@ HyperIMU -ianovir - 2018
@ Date:Tue Mar 24 18:58:04 GMT+01:00 2020, Sampling Rate:20ms

timestamp,K6DS3TR_Accelerometer.x,K6DS3TR_Accelerometer.y,K6DS3TR_Accelerometer.z
1585072684096,0.0,0.0,0.0
1585072684122,0.973243,1.9165585,9.623494
1585072684137,0.88944596,2.0949266,9.609129
1585072684159,0.94211835,2.2062569,9.609129
1585072684180,1.1899183,2.304419,9.384073
1585072684202,1.1731589,2.2158337,9.400833
1585072684221,0.9900024,2.1284454,9.446322
1585072684242,1.0187328,2.1068976,9.592369
1585072684263,0.9660604,2.0207062,9.652225
1585072684284,0.9816227,2.0111294,9.674969
1585072684305,0.88944596,1.9273324,9.574412
1585072684324,0.8559271,1.9536686,9.56723
1585072684345,0.6799533,1.9261353,9.41041
1585072684366,0.6631939,1.970428,9.388862
1585072684388,0.5722142,1.9405005,9.3733
1585072684409,0.45250413,1.8866309,9.361329
1585072684430,0.4441244,1.8363527,9.437943
1585072684451,0.2837129,1.7322049,9.504981
1585072684472,0.2801216,1.7298107,9.452309
1585072684493,0.22026655,1.7525556,9.441534
1585072684514,0.1448492,1.6364368,9.368511
1585072684533,-0.008379706,1.673547,9.338584
1585072684554,-0.12808979,1.7106571,9.357738
1585072684576,-0.2765303,1.7262194,9.324219
1585072684598,-0.33518824,1.6807296,9.32781
1585072684618,-0.36391866,1.6543933,9.459491
1585072684640,-0.34356794,1.6208745,9.451111
1585072684661,-0.49081135,1.899799,9.168595
1585072684681,-0.2717419,2.1332338,9.451111
1585072684702,-0.29807812,2.112883,9.5732155
1585072684724,-0.32441434,1.9656396,9.853337
1585072684742,-0.36272156,2.0231004,10.089166
1585072684765,-0.5530606,2.0231004,9.903615
1585072684787,-0.78888947,2.2254105,9.446322
1585072684806,-0.712275,2.4600422,9.02614
1585072684827,-0.46806642,2.742558,8.884883
1585072684848,-0.5386954,2.815581,8.810662
1585072684870,-0.6380547,2.8491,8.900445
1585072684890,-0.7278373,2.8658595,9.081207
1585072684915,-0.79846627,2.6443958,9.039309
1585072684934,-0.80205756,2.517503,8.918402
1585072684958,-0.7733272,2.528277,8.868123
1585072684977,-0.5494693,2.6001031,8.7292595
1585072684998,-0.5518635,2.552219,8.707711
1585072685019,-0.58897364,2.5701754,8.74961
1585072685040,-0.5530606,2.493561,8.933964
1585072685062,-0.5470751,2.4241292,8.993818
1585072685081,-0.48482585,2.2720973,9.4295635
1585072685107,-0.59495914,1.9812019,9.706094
1585072685126,-0.49679685,1.7956513,9.85214
1585072685145,-0.415394,1.9560628,9.818622
1585072685168,-0.30406362,2.172738,9.835381
1585072685187,-0.28491,2.0649989,9.920375
1585072685207,0.035913024,1.9608512,10.375273
1585072685229,0.20709845,1.9536686,11.121067
1585072685250,-0.01316811,1.009156,11.92911
1585072685272,0.08020575,0.34596214,12.739547
1585072685294,-0.05746084,-0.15682021,12.76349
1585072685317,-0.110133275,-0.41299978,12.360066
1585072685337,0.5686229,-0.21787235,11.484985
1585072685356,0.9636662,0.19871874,10.97502
1585072685380,1.2150574,0.2633622,11.095928
1585072685401,1.1935096,0.30765492,11.127052
1585072685421,0.51116204,-0.01436521,10.882844
1585072685440,0.11133038,0.12449849,10.451887
1585072685462,-0.21068975,0.20709845,9.694122
1585072685483,-0.17956513,0.5291186,9.325416
1585072685505,0.20949265,0.7769185,9.010578
1585072685524,0.6596026,1.2006922,8.7771435
1585072685546,0.58897364,1.4879963,8.499416
1585072685568,0.34476504,1.4460979,8.354567
1585072685586,0.47165772,1.70946,8.176199
1585072685607,0.5386954,1.9117701,8.215703
1585072685629,0.40940848,1.8710686,8.051701
1585072685651,0.39624038,1.8076223,7.988254
1585072685671,0.3878607,1.7776948,7.759608
1585072685693,0.47764325,1.8339585,7.6351094
1585072685713,0.40940848,1.8064252,7.539341
1585072685734,0.32441434,1.8207904,7.4507556
1585072685756,0.31124622,1.9548657,7.405266
1585072685775,0.19512744,1.9560628,7.392098
1585072685800,0.18794483,1.9859903,7.491457
1585072685818,0.11492168,2.1918917,7.7907324
1585072685840,-0.29568392,2.006341,8.892065
1585072685859,-0.40462008,1.7190368,9.841366
1585072685881,-0.38307226,1.4975731,10.575189
1585072685908,-0.008379706,1.5143325,11.645397
1585072685928,-0.11851298,1.1384429,12.802994
1585072685949,-0.40821138,0.90740246,13.160927
1585072685968,-1.5837644,0.32321724,14.124593
1585072685987,-1.804031,-0.25857377,14.195222
1585072686010,-1.3814543,-0.3854665,13.770251
1585072686031,-0.7386112,-0.18555063,12.762292
1585072686051,-0.70509243,-0.36152446,12.017695
1585072686073,-1.1492168,-0.16519992,11.390414
1585072686092,-1.6077064,0.09696517,10.584765
1585072686114,-1.6986861,0.21068975,10.000581
1585072686136,-1.3275849,0.45010993,8.896853
1585072686155,-0.7062895,0.61530983,8.517372
1585072686177,-0.34596214,0.6967127,8.330625
1585072686198,-0.25139117,0.7350199,8.2516165
1585072686218,-0.22864626,0.6655881,8.1343
1585072686240,-0.17118542,0.79607207,8.058883
1585072686260,-0.21188685,0.9648633,7.893683
1585072686282,-0.2765303,1.1180922,7.739257
1585072686302,-0.3878607,1.2689269,7.6626425
1585072686324,-0.4321534,1.5035586,7.711724
1585072686345,-0.4321534,1.6759412,7.807492
1585072686365,-0.50278234,1.7597382,7.728483
1585072686387,-0.17717093,1.9764135,7.9224133
1585072686407,-0.11492168,2.0566192,7.8649526
1585072686429,-0.046686932,2.067393,7.880515
1585072686448,-0.06823475,2.3116016,8.002619
1585072686470,-0.06703765,2.4420857,8.244433
1585072686492,-0.025139118,2.4612393,8.51857
1585072686512,-0.094570965,2.1894975,9.033323
1585072686533,-0.18435353,1.9728222,9.598354
1585072686555,-0.015562311,1.769315,10.315418
1585072686575,-0.01316811,1.5370775,10.839748
1585072686597,0.1388637,1.282095,11.118672
1585072686617,0.6560113,1.2258313,11.510124
1585072686639,0.92296475,0.89423436,12.027272
1585072686660,1.1540052,0.33399114,12.880805
1585072686680,1.1827357,0.03232172,13.017275
1585072686701,1.4628572,-0.8319851,12.472593
1585072686722,1.7381904,-0.94930094,11.596316
1585072686744,2.0338743,-0.7529764,11.320983
1585072686764,2.0638018,-0.46208093,10.961852
1585072686786,1.3754689,-0.3878607,10.770316
1585072686806,1.1552023,-0.5650316,10.2974615
1585072686828,1.1049241,-0.557849,10.134656
1585072686846,0.90500826,-0.18674773,9.685743
1585072686868,0.6560113,0.18195933,8.585608
1585072686890,0.427365,0.3890578,8.046912
1585072686909,0.36272156,0.58298814,7.538144
1585072686931,0.39983168,0.7026982,7.405266
1585072686953,0.320823,0.81402856,7.359776
1585072686972,0.2825158,0.8283938,7.53575
1585072686994,0.2693477,0.8846575,7.878121
1585072687016,0.2657564,0.9696517,8.256405
1585072687035,0.39624038,0.93732995,8.397662
1585072687057,0.5781997,1.1719618,8.577228
1585072687078,0.6476316,1.2844892,8.655039
1585072687099,0.47884035,1.6244658,9.057265
1585072687120,0.39863458,1.7944542,9.345766
1585072687141,0.22984336,1.851915,9.720459
1585072687162,-0.08259996,1.5945383,10.105926
1585072687183,-0.075417355,1.4532804,10.657789
1585072687204,-0.12090719,1.3623008,11.079168
1585072687225,-0.19273324,1.1923125,11.301829
1585072687247,-0.19752164,1.1168951,11.186908
1585072687264,-0.20590134,1.0127473,11.268311
1585072687286,-0.3184288,0.79726917,11.506534
1585072687307,-0.47524905,0.02873042,11.845313
1585072687328,-0.37110126,-0.19752164,11.915942
1585072687349,0.19991584,-0.439336,12.078748
1585072687370,0.34835634,-0.4225766,11.86686
1585072687391,0.05865794,-0.7553706,10.82658
1585072687413,-0.50996494,-0.78170687,10.747571
1585072687435,-1.1384429,-0.6655881,11.320983
1585072687455,-1.3634979,-0.45130703,10.320207
1585072687477,-1.3227965,-0.32561144,9.643845
1585072687496,-0.6727707,0.58657944,7.809886
1585072687518,-0.4189853,1.0726024,7.3442135
1585072687540,-0.36032736,1.5071499,6.9288197
1585072687561,-0.32561144,1.6903064,6.884527
1585072687582,-0.14724341,1.9991584,7.038953
1585072687601,-0.15083471,1.5825673,7.129933
1585072687622,-0.055066638,1.5167267,7.4483614
1585072687643,-0.02633622,1.5191209,7.728483
1585072687664,-0.07182605,1.459266,7.9942393
1585072687683,0.007182605,1.365892,8.24204
1585072687704,0.15322891,1.364695,8.505402
1585072687725,0.260968,1.447295,8.762778
1585072687746,0.31124622,1.6771383,8.65863
1585072687768,0.521936,1.9045875,8.851364
1585072687791,0.7541735,2.0578163,9.165004
1585072687812,0.82599956,1.9452889,9.442732
1585072687834,0.047884032,0.9636662,11.190498
1585072687853,-0.090979666,0.78769237,12.0332575
1585072687873,-0.33399114,1.0965444,12.384008
1585072687895,0.18435353,1.091756,12.533646
1585072687914,0.8463503,1.1432313,13.013683
1585072687936,1.2246342,0.37229836,13.154942
1585072687959,1.174356,0.077811554,12.841301
1585072687979,1.3443443,-0.48123455,12.066776
1585072687999,1.3180081,-0.23223756,11.541249
1585072688020,1.2018893,0.033518825,11.062409
1585072688041,1.0295067,0.11971009,10.588357
1585072688062,0.6452374,-0.050278235,9.923966
1585072688084,0.48482585,-0.142455,9.607931
1585072688107,0.33638534,0.15083471,9.169792
1585072688125,0.06584055,0.4381389,8.689755
1585072688145,-0.08379706,0.93134445,7.941567
1585072688166,-0.008379706,1.2042835,7.502231
1585072688187,0.1352724,1.4568717,7.1059904
1585072688208,0.16400282,1.5442601,6.885724
1585072688230,0.11851298,1.6256629,6.6965823
1585072688251,0.24540567,1.6783354,6.8067155
1585072688271,0.35434186,1.7166426,7.064092
1585072688293,0.5386954,1.5107412,7.4148426
1585072688311,0.6536171,1.4221559,7.5668745
1585072688333,0.9816227,1.2425907,8.143877
1585072688355,0.93732995,1.2066777,8.542512
1585072688374,0.94451255,1.1767502,8.925584
1585072688395,0.89902276,1.2677298,9.562442
1585072688417,0.79607207,1.3096284,9.690532
1585072688439,0.7422025,1.2976574,9.78989
1585072688458,0.676362,1.3120226,9.983821
1585072688479,1.0163386,1.4951789,10.314221
1585072688501,1.0079589,1.2270284,11.731588
1585072688519,0.38187516,0.81402856,12.437878
1585072688541,-0.0035913025,0.29807812,13.044808
1585072688563,-0.39624038,-0.2896984,13.864822
1585072688584,-0.022744916,-0.1364695,13.652935
1585072688604,-0.01316811,-0.05267244,13.140576
1585072688626,-0.6871359,-0.06584055,12.385205
1585072688646,-1.2138603,0.15801731,12.076353
1585072688668,-1.7501614,0.1352724,11.505336
1585072688688,-1.9333179,0.06584055,11.122264
1585072688710,-2.0231004,0.16400282,10.376471
1585072688728,-1.745373,0.47285482,9.443929
1585072688749,-0.89543146,1.0785879,8.054094
1585072688771,-0.6703765,1.30484,7.503428
1585072688792,-0.4417302,1.316811,7.2029557
1585072688813,-0.2825158,1.2413936,6.9503675
1585072688834,-0.1316811,1.246182,6.871359
1585072688855,-0.020350715,1.1599907,6.867768
1585072688877,-0.023942016,1.210269,7.064092
1585072688895,-0.033518825,1.2437878,7.2580223
1585072688916,-0.021547815,1.2880806,7.517793
1585072688935,0.038307227,1.3072342,7.627927
1585072688956,0.09816227,1.4616601,8.055291
1585072688977,-0.07182605,1.9800048,8.401254
1585072688997,-0.1592144,2.3331497,8.433576
1585072689018,-0.077811554,2.5773582,8.730456
1585072689039,-0.08379706,2.5953147,8.890868
1585072689060,-0.4201824,2.134431,9.973047
1585072689081,-0.32561144,1.6543933,10.9103775
1585072689104,-0.023942016,1.7836803,11.611878
1585072689125,0.029927522,1.0139444,11.865664
1585072689144,0.31364042,0.6739678,12.0727625
1585072689165,1.0307038,0.4381389,12.953828
1585072689186,1.3084313,0.22505496,12.520478
1585072689207,1.3335704,-0.18435353,11.195287
1585072689228,1.2904748,-0.2885013,11.030087
1585072689249,1.5143325,-0.007182605,11.414356
1585072689270,1.0247183,0.2717419,11.745954
1585072689291,0.5255273,-0.077811554,11.355699
1585072689312,0.427365,-0.30047232,10.936713
1585072689333,0.18794483,-0.10295067,10.320207
1585072689352,0.06464344,-0.017956512,9.727641
1585072689372,-0.06584055,0.2885013,8.9842415
1585072689393,-0.15442601,0.5781997,8.222886
1585072689414,-0.06943185,1.0749966,7.6734166
1585072689435,-0.034715924,1.1971009,7.3071036
1585072689456,0.05267244,1.2952632,7.2065473
1585072689477,0.12330139,1.3634979,7.3753386
1585072689498,0.1376666,1.3551182,7.7009497
1585072689519,0.2765303,1.4389153,8.040926
1585072689540,0.3890578,1.4640543,8.309077
1585072689559,0.50158525,1.5155296,8.336611
1585072689580,0.49919105,1.6711528,8.432379
1585072689601,0.48243165,1.8806454,8.543709
1585072689622,0.40821138,2.0135236,8.692149
1585072689642,0.31244332,2.2002714,9.172187
1585072689663,0.25378537,2.2361844,9.269152
1585072689684,0.24660277,2.2301989,9.433155
1585072689705,0.4201824,2.2421699,9.696517
1585072689726,0.830788,2.3535004,10.047267
1585072689747,1.0139444,2.2493525,10.833763
1585072689766,0.80924016,2.0362685,11.204864
1585072689787,-0.093373865,0.62728083,12.641385
1585072689808,-0.12210429,-0.031124622,13.752295
1585072689829,0.06943185,-0.01316811,13.396755
1585072689850,0.22984336,-0.079008654,12.5264635
1585072689870,0.6991069,-0.50517654,11.712435
1585072689891,0.6943185,-0.19871874,11.953052
1585072689912,-0.24181437,-0.21068975,12.056003
1585072689933,-1.1073183,-0.08140286,11.876437
1585072689954,-1.7190368,-0.44891283,10.990582
1585072689973,-1.6412252,-0.48003745,9.91439
1585072689994,-1.1408371,0.19632454,8.774749
1585072690015,-0.62608373,0.8834604,7.6973586
1585072690037,0.010773907,1.4616601,6.8402343
1585072690059,0.07062895,1.4209588,6.367379
1585072690077,0.22984336,0.9816227,6.493075
1585072690099,0.25378537,0.9600749,6.64391
1585072690120,-0.009576807,1.0390835,6.8127007
1585072690141,-0.110133275,1.103727,6.8318543
1585072690162,-0.08140286,1.3144168,6.803124
1585072690181,-0.07182605,1.388637,6.9371996
1585072690202,0.142455,1.4317327,7.229292
1585072690223,0.29568392,1.3634979,7.632715
1585072690244,0.40701428,1.2533646,8.093599
1585072690265,0.5530606,1.1504139,8.51019
1585072690286,0.5758055,0.7565677,9.630676
1585072690307,0.2908955,0.6631939,11.377247
1585072690327,0.1316811,0.41060558,12.166136
1585072690348,0.095768064,0.16759412,12.689269
1585072690369,-0.19273324,0.18794483,13.069947
1585072690388,-0.24660277,-0.11252748,13.530831
1585072690409,-0.10175357,0.02633622,13.868413
1585072690429,-0.046686932,-0.15801731,13.660118
1585072690450,0.29688102,-0.40940848,13.297397
1585072690471,0.44651863,-0.25857377,12.39957
1585072690492,0.7158663,-0.076614454,11.47062
1585072690513,1.0366893,0.29807812,11.09473
1585072690534,1.4425066,0.32800564,10.708067
1585072690555,1.1695676,-0.19991584,10.2495775
1585072690576,1.0103531,-0.4297592,9.874885
1585072690595,0.9708488,-0.4213795,9.629479
1585072690615,0.82001406,-0.22146365,9.056067
1585072690636,0.61171854,0.031124622,8.230068
1585072690657,0.6895301,0.1412579,7.7608047
1585072690678,0.7410054,0.25498247,7.3525934
1585072690698,0.6607997,0.32680854,7.117962
1585072690719,0.33758244,0.40821138,6.9120603
1585072690740,0.30047232,0.6392518,6.932411
1585072690763,0.60214174,0.6871359,7.1742253
1585072690785,0.5446809,0.92176765,7.679402
1585072690802,0.5291186,0.8379706,7.8829093
1585072690823,0.59735334,0.8463503,8.307879
1585072690844,0.6991069,0.92176765,8.637083
1585072690865,0.80445176,1.1264719,8.852561
1585072690886,0.80924016,1.3479356,9.137471
1585072690906,0.6979098,1.3838485,9.613917
1585072690927,0.5686229,1.3120226,10.299856
1585072690948,0.5303157,1.1563994,10.672154
1585072690969,0.61890113,0.88944596,11.051635
1585072690990,0.521936,1.0187328,11.775881
1585072691009,-0.21667525,0.5566519,11.939884
1585072691031,-0.59376204,-0.009576807,12.071565
1585072691051,-0.32321724,-0.58777654,12.2080345
1585072691072,0.58538234,-0.5327099,12.674904
1585072691093,0.8834604,-0.24660277,13.089101
1585072691114,0.10414778,-0.2825158,12.914324
1585072691135,-1.0354922,-0.6631939,12.4869585
1585072691156,-1.4305356,-0.6811504,12.045229
1585072691176,-1.5239093,-0.7565677,11.305421
1585072691197,-1.4149733,-0.6967127,10.913968
1585072691216,-0.81642276,0.03232172,9.289502
1585072691237,-0.6931214,0.29807812,8.4108305
1585072691258,0.01316811,0.80924016,8.063671
1585072691279,0.19153613,1.1623849,7.9475527
1585072691299,-0.09816227,0.93852705,7.7308774
1585072691320,-0.20111294,0.9504981,7.502231
1585072691341,-0.06823475,1.0067618,7.3406224
1585072691362,0.04070143,0.94092125,7.16824
1585072691382,0.22744916,0.9708488,7.038953
1585072691403,0.36870706,0.89423436,7.061698
1585072691422,0.47046062,0.89184016,7.1526775
1585072691443,0.5614403,0.78769237,7.3729444
1585072691464,0.5638345,1.033098,7.8757267
1585072691485,0.47046062,1.364695,8.303091
1585072691505,0.44651863,1.6112977,8.617929
1585072691527,0.4441244,1.7393875,9.360131
1585072691547,0.37229836,1.7884687,9.76116
1585072691568,0.095768064,1.376666,11.133038
1585072691589,0.059855044,1.0785879,11.653777
1585072691610,0.2813187,1.1959038,11.836933
1585072691628,0.40342298,1.0354922,11.988965
1585072691649,0.5351041,0.33279404,12.951434
1585072691670,0.8619126,-0.09816227,13.360843
1585072691691,0.91338795,-0.35075054,12.625823
1585072691712,0.59855044,-0.45250413,11.389217
1585072691732,0.7074866,-0.30526072,10.930728
1585072691753,0.94930094,0.45729253,11.164163
1585072691774,0.91338795,0.6655881,11.1893015
1585072691795,0.34356794,-0.12689269,10.9582615
1585072691816,0.33039984,-0.39743748,10.819398
1585072691834,0.2801216,-0.23942018,10.255563
1585072691855,0.33877954,0.031124622,9.425972
1585072691876,0.30406362,0.130484,8.919599
1585072691897,0.50757074,0.8595184,7.4746976
1585072691918,0.51475334,0.93134445,7.035362
1585072691939,0.59136784,1.1599907,6.7887588
1585072691960,0.40821138,1.1204864,6.8893156
1585072691980,0.46447513,1.3371617,7.0090256
1585072692001,0.4297592,1.3563153,7.2472486
1585072692022,0.5710171,1.2629414,7.6027875
1585072692041,0.5470751,1.1121067,7.94037
1585072692062,0.56982,1.0690111,8.301894
1585072692083,0.41299978,1.0319009,8.602366
1585072692104,0.30406362,1.0666169,8.842984
1585072692125,0.46327803,1.2904748,8.99741
1585072692146,0.30166942,1.4999673,9.239224
1585072692166,0.047884032,1.5490485,9.868899
1585072692187,-0.1352724,1.4041992,10.499771
1585072692208,-0.24061728,1.3156139,10.921151
1585072692229,-0.19033903,1.541866,10.79785
1585072692248,-0.25857377,1.7585411,10.825383
1585072692269,-0.40342298,1.6160861,11.033679
1585072692290,-0.712275,1.3204023,11.341333
1585072692311,-0.94810385,0.50996494,12.186486
1585072692331,-0.8619126,0.094570965,12.33373
1585072692352,-0.41299978,-0.32202014,12.422316
1585072692373,-0.2813187,-0.031124622,11.944673
1585072692394,-0.45489833,0.10534488,11.555614
1585072692415,-1.0450691,0.2621651,11.001357
1585072692435,-1.1947067,0.09816227,10.751163
1585072692456,-1.2234371,0.073023155,10.516531
1585072692477,-1.1683705,0.14844051,10.30225
1585072692498,-0.92057055,0.521936,9.358934
1585072692519,-0.7386112,0.8702923,8.674192
1585072692540,-0.6428431,1.2078748,7.961918
1585072692561,-0.5410896,1.3730747,7.5788455
1585072692581,-0.50637364,1.4628572,7.368156
1585072692602,-0.4297592,1.4568717,7.4687123
1585072692623,-0.36990416,1.4197617,7.5668745
1585072692644,-0.45010993,1.3730747,7.632715
1585072692663,-0.4357447,1.282095,7.6231384
1585072692684,-0.21906945,1.1444284,7.7105265
1585072692705,-0.047884032,1.1288661,7.835025
1585072692725,0.046686932,0.94092125,8.1163435
1585072692746,0.039504327,0.8655039,8.499416
1585072692768,0.11133038,0.94810385,8.714894
1585072692788,-0.0035913025,0.9576807,8.883685
1585072692809,-0.18076223,1.0714053,9.099164
1585072692830,-0.36511576,1.2078748,9.660604
1585072692851,-0.34955344,1.3503298,9.94312
1585072692871,-0.23223756,1.388637,10.092757
1585072692891,-0.35913026,1.1109096,10.396821
1585072692912,-0.36152446,0.92296475,11.002554
1585072692933,-0.10654198,0.664391,11.471817
1585072692954,-0.0011971008,-0.017956512,12.005724
1585072692975,0.16639702,-0.5793968,12.163742
1585072692995,0.748188,-0.7098808,11.6585655
1585072693016,0.91697925,-0.60094464,11.269507
1585072693046,0.9588778,-0.14963761,10.198102
1585072693065,0.88944596,0.260968,9.325416
1585072693088,0.9636662,0.17118542,9.4535055
1585072693108,0.9792285,0.03232172,9.593566
1585072693128,0.7637503,-0.439336,10.290278
1585072693149,0.7410054,-1.0582372,10.771513
1585072693170,0.80564886,-1.0857705,10.947487
1585072693192,0.6787562,-0.7505822,10.712855
1585072693213,0.6775591,-0.47046062,10.169372
1585072693235,0.6751649,0.18555063,9.344569
1585072693254,0.6452374,0.29448682,9.131485
1585072693275,0.6799533,0.5758055,8.690952
1585072693294,0.81283146,0.51954174,8.669404
1585072693316,1.0259154,0.60333884,8.901642
1585072693354,0.878672,0.35314476,9.072827
1585072693369,0.6931214,0.17238252,9.39365
1585072693397,0.60094464,0.053869538,10.085575
1585072693412,0.5398925,-0.0047884034,10.283096
1585072693429,0.5446809,-0.09935937,10.351331
1585072693447,0.70509243,-0.08140286,10.178948
1585072693540,0.6428431,0.6428431,9.7479925
1585072693559,0.80205756,0.6464345,9.884461
1585072693582,0.91458505,0.6967127,9.904813
1585072693601,0.80205756,0.770933,9.880871
1585072693622,0.6895301,0.79008657,9.740809
1585072693643,0.78170687,0.80445176,9.631873
1585072693665,0.4333505,0.6619968,9.788693
1585072693686,0.130484,0.59615624,9.799467
1585072693708,0.34835634,0.23702596,10.120291
1585072693727,1.6436194,1.4041992,9.758766
1585072693748,1.8914193,1.5837644,8.042124
1585072693770,1.5897499,1.436521,9.030929
1585072693788,1.1264719,1.4089876,8.748413
1585072693809,0.8331822,1.4341269,9.391256
1585072693830,1.021127,1.340753,9.200917
1585072693851,1.1049241,1.0223241,9.052477
