loggingTime(txt),accelerometerTimestamp_sinceReboot(s),accelerometerAccelerationX(G),accelerometerAccelerationY(G),accelerometerAccelerationZ(G),motionTimestamp_sinceReboot(s),motionYaw(rad),motionRoll(rad),motionPitch(rad),motionRotationRateX(rad/s),motionRotationRateY(rad/s),motionRotationRateZ(rad/s),motionUserAccelerationX(G),motionUserAccelerationY(G),motionUserAccelerationZ(G),motionAttitudeReferenceFrame(txt),motionQuaternionX(R),motionQuaternionY(R),motionQuaternionZ(R),motionQuaternionW(R),motionGravityX(G),motionGravityY(G),motionGravityZ(G)
2020-07-29 15:23:46.496 +0200,77993.115922375,-0.17596435546875,-0.20513916015625,-0.9631500244140625,77993.10337937501,-2.877522996735546,-0.1932262006714982,0.2139992859403605,0.03355336561799049,-0.009365417063236237,-0.00568440742790699,-0.01376540958881378,-0.01428939402103424,0.02559942007064819,XArbitraryZVertical,-0.08108216223131609,-0.1179992076062918,-0.9823866598680185,0.1200760234726169,-0.187645822763443,-0.2123696506023407,-0.959003746509552
2020-07-29 15:23:46.511 +0200,77993.135958375,-0.202117919921875,-0.1867523193359375,-0.9898529052734375,77993.12341537501,-2.877778061981858,-0.1931469118851104,0.2133160267049411,0.04280265793204308,-0.01513941679149866,-0.0259792935103178,0.007275089621543884,0.00164465606212616,-0.003040492534637451,XArbitraryZVertical,-0.08110621002273402,-0.1176494070171381,-0.98243684778504,0.1199926659312534,-0.1875975877046585,-0.2117019295692444,-0.9591608047485352
2020-07-29 15:23:46.529 +0200,77993.155994375,-0.1886138916015625,-0.200775146484375,-0.9611358642578125,77993.143451375,-2.878294760713933,-0.1928584074849104,0.2136774487573007,0.07610828429460526,-0.01032788306474686,-0.03985382616519928,-0.0191631019115448,0.02037651836872101,-0.02976393699645996,XArbitraryZVertical,-0.08096956161193755,-0.1177882309449475,-0.9824627941696709,0.1197361567553696,-0.1873061805963516,-0.2120551466941833,-0.9591397047042847
2020-07-29 15:23:46.539 +0200,77993.17603037501,-0.179290771484375,-0.2171478271484375,-0.9557647705078125,77993.163487375,-2.878949639837385,-0.1927288658966972,0.2141313533062162,0.05975461378693581,-0.01820098608732224,-0.04180075228214264,-0.00579853355884552,0.00678686797618866,-0.001115560531616211,XArbitraryZVertical,-0.08091276144594532,-0.1179763425989152,-0.9824861693263256,0.1193974156520751,-0.1871634721755981,-0.2124986946582794,-0.9590694308280945
2020-07-29 15:23:46.558 +0200,77993.19606637501,-0.1967926025390625,-0.2394256591796875,-0.95440673828125,77993.183523375,-2.879817050832799,-0.1927441100947144,0.2158380198900474,0.06170937046408653,0.004307251423597336,-0.1142086014151573,0.003470748662948608,-0.007957175374031067,0.003903687000274658,XArbitraryZVertical,-0.08085246487150624,-0.1187782482257848,-0.982457511542698,0.1188775471736241,-0.1871083527803421,-0.2141660749912262,-0.9587092399597168
2020-07-29 15:23:46.578 +0200,77993.21610237501,-0.1755828857421875,-0.2447967529296875,-0.95928955078125,77993.203559375,-2.880889550639378,-0.1921790965903566,0.2177328335033541,0.07477644085884094,-0.009485259652137756,-0.04902411997318268,-0.01463618874549866,-0.02842746675014496,0.004974067211151123,XArbitraryZVertical,-0.08050697292567492,-0.1196297096724239,-0.9824544811166516,0.1182813480143248,-0.1864887923002243,-0.2160165458917618,-0.9584147334098816
2020-07-29 15:23:46.598 +0200,77993.23613837501,-0.210540771484375,-0.19342041015625,-0.9680938720703125,77993.22359537501,-2.880751699697012,-0.1926146981632424,0.2174217008535438,-0.03780283778905869,-0.0169501006603241,0.02824761345982552,0.006993800401687622,-0.03409537672996521,7.623434066772461e-05,XArbitraryZVertical,-0.08073432282396802,-0.1195086124447443,-0.9824435863298145,0.1183399698714739,-0.1869191229343414,-0.2157127410173416,-0.9583992958068848
2020-07-29 15:23:46.618 +0200,77993.256174375,-0.177642822265625,-0.1748504638671875,-0.98834228515625,77993.24363137501,-2.881003046021825,-0.193214531873878,0.2170259048999725,0.07488496601581573,-0.009700442664325237,-0.03582891449332237,-0.02738660573959351,0.01690346002578735,-0.008756041526794434,XArbitraryZVertical,-0.08107149344915168,-0.1193400352514377,-0.9824528332732378,0.1182022206865666,-0.1875103563070297,-0.2153262495994568,-0.9583707451820374
2020-07-29 15:23:46.638 +0200,77993.276210375,-0.17156982421875,-0.199371337890625,-0.9649810791015625,77993.26366737501,-2.881449750550865,-0.1935368261951311,0.2186389960735187,0.1069944277405739,-0.04109112173318863,-0.02067454345524311,0.005747556686401367,0.03701180219650269,-0.02939766645431519,XArbitraryZVertical,-0.08114456011692588,-0.1201311086086168,-0.9823896781759216,0.1178754380365499,-0.1877521723508835,-0.2169012278318405,-0.9579681754112244
2020-07-29 15:23:46.658 +0200,77993.296246375,-0.1882781982421875,-0.2404632568359375,-0.9075927734375,77993.28370337501,-2.880917867226393,-0.194222775197758,0.2201178383077334,-0.1098080575466156,-0.01874933019280434,0.1160124689340591,0.01240161061286926,0.01390068233013153,-0.006470918655395508,XArbitraryZVertical,-0.08134667184634663,-0.1209174837449722,-0.9822598091815482,0.1180143508941917,-0.1883471310138702,-0.2183446139097214,-0.9575233459472656
2020-07-29 15:23:46.678 +0200,77993.316282375,-0.17999267578125,-0.2945404052734375,-0.95794677734375,77993.303739375,-2.880930009142825,-0.1938915270571656,0.2192226946049404,-0.04266243800520897,0.004043332301080227,0.03351732343435287,-0.004579931497573853,-0.02804462611675262,0.05116528272628784,XArbitraryZVertical,-0.08124697567560696,-0.1204590321629223,-0.982316780928524,0.1180774446017576,-0.1880675256252289,-0.2174709886312485,-0.9577770829200745
2020-07-29 15:23:46.698 +0200,77993.33631937501,-0.17578125,-0.21954345703125,-0.966461181640625,77993.323775375,-2.879984173607062,-0.1941450598806864,0.2180588229702522,-0.09650809317827225,0.02295550517737865,0.05898825451731682,0.003990322351455688,-0.0832315981388092,0.001006603240966797,XArbitraryZVertical,-0.08139571030276088,-0.1199424489892252,-0.9823058831191045,0.1185905441952676,-0.1883590519428253,-0.2163348197937012,-0.9579771161079407
2020-07-29 15:23:46.718 +0200,77993.356355375,-0.1982574462890625,-0.156646728515625,-0.9813385009765625,77993.34381237501,-2.879104567668236,-0.1937113345712772,0.2147675359984279,-0.0872485488653183,0.0118743572384119,0.05974721536040306,0.007928714156150818,-0.01137453317642212,-0.006750702857971191,XArbitraryZVertical,-0.08136008072884968,-0.1183403307042719,-0.9824258393373977,0.1192285367051394,-0.1880795806646347,-0.213120311498642,-0.9587522149085999
2020-07-29 15:23:46.738 +0200,77993.376391375,-0.1954803466796875,-0.152740478515625,-0.968170166015625,77993.36384837501,-2.878520332247648,-0.1931386652954127,0.2127584621999181,-0.02830586954951286,0.003623618744313717,0.03002949617803097,-0.01500396430492401,0.04960441589355469,-0.02111434936523438,XArbitraryZVertical,-0.08118483933343153,-0.1173456530435044,-0.9825073773634718,0.1196588867871422,-0.187612310051918,-0.211156964302063,-0.9592780470848083
2020-07-29 15:23:46.758 +0200,77993.396427375,-0.197418212890625,-0.1584014892578125,-0.97442626953125,77993.383884375,-2.878410877435055,-0.1933566173936135,0.214597336714096,-0.009687978774309158,-0.005872149020433426,-0.007691708393394947,-0.01209582388401031,0.05526597797870636,-0.008359789848327637,XArbitraryZVertical,-0.08115671268256905,-0.118263959654238,-0.9824067944716258,0.1195995739525228,-0.187746450304985,-0.2129540145397186,-0.9588544368743896
2020-07-29 15:23:46.779 +0200,77993.416463375,-0.1902008056640625,-0.20001220703125,-0.9697418212890625,77993.403920375,-2.878932879822639,-0.1929296694228611,0.2163975532398849,0.02672182768583298,-0.01306481473147869,-0.03019975498318672,-0.01450565457344055,0.05132268369197845,-0.01490670442581177,XArbitraryZVertical,-0.08085196634683557,-0.119099132772719,-0.9823710348051231,0.1192703248481409,-0.1872632503509521,-0.2147125899791718,-0.9585567116737366
2020-07-29 15:23:46.798 +0200,77993.43649937501,-0.178466796875,-0.2334747314453125,-0.95361328125,77993.423956375,-2.879379303411806,-0.1930358531296618,0.2181688548092645,0.03798699751496315,-0.01054919231683016,-0.0237283892929554,-0.007260382175445557,0.01140144467353821,-0.01060771942138672,XArbitraryZVertical,-0.08080696316087324,-0.119955000636472,-0.982309701539072,0.1189481246920832,-0.1872917711734772,-0.2164422422647476,-0.9581620693206787
2020-07-29 15:23:46.819 +0200,77993.45653537501,-0.176513671875,-0.2376861572265625,-0.9530029296875,77993.443992375,-2.87952311351888,-0.1932869615866495,0.2175140215973856,0.02297436073422432,-0.004982386715710163,-0.002972510643303394,0.00473514199256897,-0.02268563210964203,0.005610525608062744,XArbitraryZVertical,-0.08098464981002043,-0.1196433782490277,-0.9823391628987628,0.118898216251784,-0.1875595599412918,-0.2158028930425644,-0.9582539200782776
2020-07-29 15:23:46.839 +0200,77993.47657137501,-0.179931640625,-0.227325439453125,-0.9535980224609375,77993.46402837501,-2.879359108292275,-0.1935733785332252,0.2162183248361607,0.0003517391160130501,0.001955680549144745,0.006911774165928364,0.007008731365203857,-0.02813300490379333,0.006435573101043701,XArbitraryZVertical,-0.08120604771577242,-0.1190324204616271,-0.9823787966118183,0.1190324379233595,-0.1878876388072968,-0.2145375460386276,-0.9584737420082092
2020-07-29 15:23:46.859 +0200,77993.49660737501,-0.1876373291015625,-0.2142333984375,-0.9610748291015625,77993.48406437501,-2.879133561028104,-0.1938724800007341,0.2145834232744239,-0.02371604740619659,0.0005623148754239082,0.0110992519184947,0.003936499357223511,-0.01933231949806213,0.006120502948760986,XArbitraryZVertical,-0.08145381306961187,-0.1182585620662152,-0.9824296371326907,0.1192148503038859,-0.1882416307926178,-0.2129404246807098,-0.9587603807449341
2020-07-29 15:23:46.879 +0200,77993.516643375,-0.1911163330078125,-0.2028656005859375,-0.9629669189453125,77993.50410037501,-2.878935166167993,-0.1942138809493681,0.2130594145408225,-0.03307798877358437,0.002526395954191685,0.00899866409599781,-0.003388538956642151,-0.007695004343986511,-0.001109182834625244,XArbitraryZVertical,-0.08171634468700262,-0.1175404488665562,-0.9824744944852096,0.1193755340589161,-0.1886313557624817,-0.2114511281251907,-0.9590133428573608
2020-07-29 15:23:46.899 +0200,77993.536679375,-0.188690185546875,-0.2023773193359375,-0.962738037109375,77993.52413637501,-2.878861191132457,-0.1940379175475456,0.2134924636932884,-0.01459924690425396,0.001885106787085533,0.008404437452554703,-0.007049620151519775,0.004086196422576904,-0.003056764602661133,XArbitraryZVertical,-0.08159527434010196,-0.117745106995834,-0.982457268198313,0.1193985401932267,-0.1884449273347855,-0.2118743658065796,-0.9589565992355347
2020-07-29 15:23:46.919 +0200,77993.556715375,-0.186920166015625,-0.2008514404296875,-0.9600830078125,77993.54417237501,-2.878809525587311,-0.193833821254919,0.2142353038589937,-0.01494612451642752,0.001253404654562473,0.01163934171199799,-0.004844352602958679,0.005283474922180176,-0.002941429615020752,XArbitraryZVertical,-0.08144001787760519,-0.1180989239581598,-0.982428051633683,0.1193953299542135,-0.1882188320159912,-0.2126002758741379,-0.9588403105735779
2020-07-29 15:23:46.939 +0200,77993.576751375,-0.184814453125,-0.2070159912109375,-0.959930419921875,77993.564208375,-2.878701546573732,-0.1936365850476853,0.2148815661372769,-0.01121769938617945,0.00481671467423439,0.01087178010493517,-0.003284960985183716,0.007426097989082336,-0.0003820061683654785,XArbitraryZVertical,-0.08129152784224283,-0.1184081107668647,-0.9823995773704983,0.119424722034158,-0.1880032420158386,-0.2132317125797272,-0.9587424397468567
2020-07-29 15:23:46.959 +0200,77993.59678737501,-0.184783935546875,-0.2101287841796875,-0.96478271484375,77993.584244375,-2.878444850517298,-0.1938934520984869,0.2155065605273507,-0.01054977718740702,0.001935706473886967,0.009587908163666725,-0.0009638071060180664,0.001857981085777283,-0.0004045367240905762,XArbitraryZVertical,-0.08135871229548401,-0.1187400305510675,-0.9823446110553582,0.1195013977233171,-0.1882237792015076,-0.2138423025608063,-0.9585631489753723
2020-07-29 15:23:46.979 +0200,77993.616824375,-0.183807373046875,-0.2182769775390625,-0.958709716796875,77993.604280375,-2.878129589907297,-0.1946044440279185,0.2148505045318284,-0.02537226490676403,0.002553559839725494,0.01252054329961538,-0.0002411305904388428,-0.001880824565887451,-0.00525355339050293,XArbitraryZVertical,-0.08173522627608461,-0.118474053964733,-0.9823274023482669,0.11965004485202,-0.1889323592185974,-0.2132013738155365,-0.9585664868354797
2020-07-29 15:23:46.999 +0200,77993.636860375,-0.1845703125,-0.2080535888671875,-0.957763671875,77993.62431737501,-2.877847022259922,-0.1950598968744402,0.2132663408730806,-0.04589804634451866,0.00211014412343502,0.02107442542910576,0.001225590705871582,-0.01154102385044098,0.001057744026184082,XArbitraryZVertical,-0.0820534091756019,-0.1177369545730979,-0.9823652935978991,0.1198489593527327,-0.189434140920639,-0.2116533666849136,-0.9588105082511902
2020-07-29 15:23:47.033 +0200,77993.656896375,-0.1855621337890625,-0.20928955078125,-0.9637603759765625,77993.644353375,-2.877462935578609,-0.1953251433775605,0.2116521576074506,-0.02581422030925751,0.01049111224710941,0.02541145868599415,0.0007756352424621582,-0.002858817577362061,0.002280831336975098,XArbitraryZVertical,-0.08227453504020175,-0.1169779731645269,-0.9824054112185124,0.1201107477074963,-0.1897545158863068,-0.2100754827260971,-0.9590941071510315
2020-07-29 15:23:47.047 +0200,77993.676932375,-0.185699462890625,-0.2003021240234375,-0.9652557373046875,77993.664389375,-2.877098199726655,-0.1950682785334781,0.2109616089490753,-0.0407717265188694,0.01149086281657219,0.02242640033364296,-0.0004293918609619141,-0.004754245281219482,-0.003529548645019531,XArbitraryZVertical,-0.08217560211270958,-0.1166392576462778,-0.9824255794293517,0.1203428599581298,-0.1895362287759781,-0.2094002813100815,-0.9592849016189575
2020-07-29 15:23:47.059 +0200,77993.69696837501,-0.1852264404296875,-0.2046051025390625,-0.9617462158203125,77993.684425375,-2.876851833669289,-0.1946365406534029,0.2109452746027436,-0.02822544425725937,0.007804248481988907,0.02064698934555054,-0.0009705871343612671,0.004217609763145447,-0.004941761493682861,XArbitraryZVertical,-0.0819503046284772,-0.1166153667291402,-0.9824292458445801,0.120489968340987,-0.1891227215528488,-0.2093843072652817,-0.9593700170516968
2020-07-29 15:23:47.079 +0200,77993.71700437501,-0.184722900390625,-0.2015380859375,-0.962310791015625,77993.704461375,-2.876619504253108,-0.194427801599447,0.211086101150197,-0.03983616083860397,0.01029377244412899,0.01996921375393867,-0.0006987005472183228,4.918873310089111e-05,-0.001421988010406494,XArbitraryZVertical,-0.08182430357507595,-0.116681283216783,-0.9824173681244823,0.1206085495670156,-0.1889167577028275,-0.2095220237970352,-0.9593805074691772
2020-07-29 15:23:47.099 +0200,77993.73704037501,-0.183258056640625,-0.206512451171875,-0.9585723876953125,77993.72449737501,-2.876283670640432,-0.1943665052436372,0.2111392510192416,-0.02911693975329399,0.009196549654006958,0.02504664473235607,-0.0002546757459640503,0.003167003393173218,-0.00198596715927124,XArbitraryZVertical,-0.08177085255708899,-0.1167173548356227,-0.9823971874815427,0.1207741791953481,-0.1888557970523834,-0.2095739841461182,-0.9593811631202698
2020-07-29 15:23:47.119 +0200,77993.75707637501,-0.181243896484375,-0.2036590576171875,-0.94366455078125,77993.74453337501,-2.875788774323292,-0.1946057804602798,0.2108503203554967,-0.05299989879131317,0.01056275144219398,0.02962990663945675,0.00144582986831665,-0.002083316445350647,0.00176626443862915,XArbitraryZVertical,-0.08187990900280415,-0.1166105379411963,-0.9823706315311524,0.1210191356112484,-0.1890970468521118,-0.2092914581298828,-0.9593953490257263
2020-07-29 15:23:47.139 +0200,77993.777112375,-0.1822967529296875,-0.2014923095703125,-0.9749755859375,77993.76456937501,-2.875198320886194,-0.1946563498501357,0.2095311164276824,-0.05286674201488495,0.02344845607876778,0.04161858186125755,0.003559455275535583,-0.000490039587020874,0.01692855358123779,XArbitraryZVertical,-0.08196368679448236,-0.1159915937885979,-0.9823925501205288,0.121378513391627,-0.1891988068819046,-0.2080013006925583,-0.9596558213233948
2020-07-29 15:23:47.159 +0200,77993.797148375,-0.1895599365234375,-0.2126007080078125,-0.967529296875,77993.78460537501,-2.874578519934979,-0.1945558149717645,0.2084038796249013,-0.04301677271723747,0.02152272313833237,0.04111307859420776,0.002456530928611755,0.0005996525287628174,-0.01413983106613159,XArbitraryZVertical,-0.08195827676877755,-0.1154587020613454,-0.9824097397288913,0.1217505282418345,-0.1891475319862366,-0.2068985849618912,-0.9599042534828186
2020-07-29 15:23:47.180 +0200,77993.817184375,-0.1872406005859375,-0.1985321044921875,-0.952606201171875,77993.804641375,-2.874088068143268,-0.1940085864240504,0.2070260783450596,-0.07841284573078156,0.01495110802352428,0.03870268911123276,-0.005266204476356506,-0.01182557642459869,-0.00632023811340332,XArbitraryZVertical,-0.0817589648065776,-0.1147704615716275,-0.9824638162424084,0.1220982701792389,-0.1886769980192184,-0.2055504024028778,-0.9602864384651184
2020-07-29 15:23:47.199 +0200,77993.837220375,-0.183349609375,-0.186370849609375,-0.9741363525390625,77993.824677375,-2.873694314912372,-0.1935567669499008,0.2058172953269948,-0.08553414046764374,0.02226281724870205,0.03554479032754898,-0.003324165940284729,0.001087367534637451,0.008923470973968506,XArbitraryZVertical,-0.08160029302218483,-0.1141667245901037,-0.9825118933022219,0.1223834800335747,-0.1882907599210739,-0.2043672800064087,-0.9606146812438965
2020-07-29 15:23:47.220 +0200,77993.85725679167,-0.1831512451171875,-0.1741485595703125,-0.985321044921875,77993.84471379167,-2.873320987568441,-0.1932824920095464,0.205052189770653,-0.07234816998243332,0.01128047332167625,0.02284093946218491,0.0003387778997421265,0.01251703500747681,-0.01240664720535278,XArbitraryZVertical,-0.08149864775558904,-0.1137902922351034,-0.9825339944614416,0.1226241457745788,-0.1880572587251663,-0.2036182582378387,-0.9608194828033447
2020-07-29 15:23:47.239 +0200,77993.87729279167,-0.18487548828125,-0.1838836669921875,-0.976165771484375,77993.86474979167,-2.873251607032405,-0.1926899632362654,0.2044669335985993,-0.03162656724452972,0.005042284727096558,0.0158847626298666,3.293156623840332e-06,0.02417963743209839,-0.02336859703063965,XArbitraryZVertical,-0.08124522178468571,-0.1134700212481884,-0.9825795627843894,0.1227236556525327,-0.1875106990337372,-0.2030452191829681,-0.9610475301742554
2020-07-29 15:23:47.260 +0200,77993.89732879167,-0.1829833984375,-0.18792724609375,-0.960296630859375,77993.88478579167,-2.873095392356648,-0.1931070878536171,0.2046283119078585,-0.02212480828166008,-0.0003572748973965645,0.001823119586333632,-0.001335546374320984,0.01459886133670807,-0.01432120800018311,XArbitraryZVertical,-0.08142980170241636,-0.1135810428064813,-0.9825459359912381,0.1227679735808249,-0.1879052668809891,-0.2032032459974289,-0.9609370827674866
2020-07-29 15:23:47.280 +0200,77993.91736479168,-0.1789093017578125,-0.19122314453125,-0.955078125,77993.90482179167,-2.872986275675676,-0.1937356164215359,0.2048125417975847,-0.01440417114645243,0.0009143846109509468,0.003787733614444733,0.001139447093009949,0.01073151826858521,0.001396477222442627,XArbitraryZVertical,-0.08171926255764003,-0.1137143373752453,-0.982505510675181,0.1227758442928358,-0.1885019987821579,-0.2033836245536804,-0.9607820510864258
2020-07-29 15:23:47.300 +0200,77993.93740179167,-0.1804351806640625,-0.202301025390625,-0.9697113037109375,77993.92485779167,-2.872896874970444,-0.1936666038144135,0.2035765503506707,-0.02008789032697678,0.002261677756905556,0.01205890253186226,0.005195930600166321,0.006253451108932495,0.006867885589599609,XArbitraryZVertical,-0.08176827445215591,-0.1131081862359846,-0.982556981626915,0.1228909753797064,-0.1884839236736298,-0.2021733075380325,-0.9610409736633301
2020-07-29 15:23:47.320 +0200,77993.95743779167,-0.180419921875,-0.1944732666015625,-0.9741058349609375,77993.94489479167,-2.872639095816764,-0.1933592501257461,0.2020015152555766,-0.0338166169822216,0.006274262443184853,0.02505676634609699,0.003441110253334045,-0.006331294775009155,-0.007404685020446777,XArbitraryZVertical,-0.0817148784898965,-0.1123280773817286,-0.9826221563328128,0.1231205739237384,-0.1882494986057281,-0.2006305456161499,-0.9614101648330688
2020-07-29 15:23:47.340 +0200,77993.97747379167,-0.18084716796875,-0.1825408935546875,-0.956298828125,77993.96493079167,-2.87231194394506,-0.1932599227786253,0.2004275952325993,-0.03504659608006477,-0.003003924153745174,0.02721784450113773,0.003422096371650696,-9.879469871520996e-06,-0.01147937774658203,XArbitraryZVertical,-0.08175986633930665,-0.11156406358347,-0.9826739333545909,0.123372327108341,-0.1882144212722778,-0.199088379740715,-0.9617375731468201
2020-07-29 15:23:47.360 +0200,77993.99750979168,-0.180145263671875,-0.17919921875,-0.9624481201171875,77993.98496679167,-2.871852860212574,-0.1932099979301359,0.198977508197627,-0.01005176734179258,0.004388744942843914,0.0308186300098896,0.003001928329467773,0.01053425669670105,0.006612539291381836,XArbitraryZVertical,-0.08181318722875108,-0.110869132901913,-0.982709554572006,0.1236792993307299,-0.1882216334342957,-0.197667121887207,-0.9620292782783508
2020-07-29 15:23:47.380 +0200,77994.01754579168,-0.181884765625,-0.1799774169921875,-0.97576904296875,77994.00500279167,-2.871382605204649,-0.1931155040349478,0.1989543534306486,-0.01157176494598389,0.004050789400935173,0.01981433294713497,0.003615930676460266,0.01385381817817688,0.0004850029945373535,XArbitraryZVertical,-0.08174234648072372,-0.110871168226744,-0.9826852566664486,0.123916834829545,-0.1881316006183624,-0.1976444125175476,-0.9620515704154968
2020-07-29 15:23:47.400 +0200,77994.03758179166,-0.186859130859375,-0.189117431640625,-0.9761962890625,77994.02503879167,-2.871213445433312,-0.1925919509395354,0.1992807204745461,0.000612995121628046,-6.51264563202858e-05,0.01331785507500172,0.001372367143630981,0.01338811218738556,-0.01280176639556885,XArbitraryZVertical,-0.08145239168410501,-0.1110055522650097,-0.9826822809313206,0.1240113429035259,-0.1876155436038971,-0.1979643404483795,-0.96208655834198
2020-07-29 15:23:47.420 +0200,77994.05761779167,-0.18505859375,-0.1861572265625,-0.963714599609375,77994.04507479168,-2.871076002255657,-0.1918331325427,0.1993376628951544,0.001456684432923794,0.0003287559375166893,0.01328026689589024,-0.004317238926887512,0.004302620887756348,-0.01310104131698608,XArbitraryZVertical,-0.08106785209059524,-0.110991971932201,-0.9827021425302813,0.1241179081366782,-0.1868832856416702,-0.1980201601982117,-0.9622175693511963
2020-07-29 15:23:47.440 +0200,77994.07765379167,-0.1785736083984375,-0.1938934326171875,-0.95770263671875,77994.06511079168,-2.870864708587385,-0.1914199768387989,0.1992584377834773,0.02260724268853664,0.004730428569018841,0.0117085836827755,-0.002902120351791382,0.007186964154243469,-0.0005289316177368164,XArbitraryZVertical,-0.08085878821839475,-0.1109360445445214,-0.9827091439670259,0.124248923891254,-0.1864887028932571,-0.1979424953460693,-0.9623100757598877
2020-07-29 15:23:47.460 +0200,77994.09768979167,-0.179473876953125,-0.193359375,-0.9677734375,77994.08514679167,-2.870577587817468,-0.191226071776434,0.1985049150133578,-0.01295621041208506,0.005391424521803856,0.01948786713182926,0.003428265452384949,-0.00127074122428894,0.005661070346832275,XArbitraryZVertical,-0.08080154292623082,-0.1105663092208706,-0.9827311589588642,0.1244412371517173,-0.1863304078578949,-0.1972038298845291,-0.9624924063682556
2020-07-29 15:23:47.480 +0200,77994.11772579167,-0.1829833984375,-0.1847381591796875,-0.974700927734375,77994.10518279167,-2.870381820439975,-0.1910684630857226,0.1971831860690841,-0.01342439278960228,0.005374646745622158,0.009958392009139061,0.002428010106086731,-0.002002507448196411,-0.004131913185119629,XArbitraryZVertical,-0.08080794292941292,-0.1099166175390389,-0.9827812568648197,0.1246170936233617,-0.1862280368804932,-0.1959078758955002,-0.9627768397331238
2020-07-29 15:23:47.500 +0200,77994.13776179167,-0.1815338134765625,-0.1875,-0.963958740234375,77994.12521879167,-2.8701803276774,-0.1913015346043639,0.1963842395500847,0.01035084389150143,0.0003860136494040489,0.005705780349671841,-0.0008333027362823486,0.005853384733200073,-0.01095199584960938,XArbitraryZVertical,-0.08096864424308302,-0.1095477105432511,-0.9827928635743091,0.1247462063918239,-0.1864821314811707,-0.1951243579387665,-0.9628867506980896
2020-07-29 15:23:47.534 +0200,77994.15779779167,-0.181976318359375,-0.186492919921875,-0.9638824462890625,77994.14525479167,-2.870115607841668,-0.1915953584825041,0.1965258838909688,-0.001700625754892826,0.0008747037500143051,-0.005097636952996254,0.0008874833583831787,0.003227263689041138,-0.0002899169921875,XArbitraryZVertical,-0.08109933432296126,-0.109638086868658,-0.9827709420554378,0.1247542804245468,-0.1867597848176956,-0.1952632665634155,-0.9628047943115234
2020-07-29 15:23:47.551 +0200,77994.17783379168,-0.1858062744140625,-0.1892242431640625,-0.96295166015625,77994.16529079167,-2.870347224400603,-0.1914982487266091,0.1964235398349366,-0.007988749071955681,-0.004005539231002331,-0.01207161881029606,0.0003573596477508545,0.00413629412651062,-0.0001767277717590332,XArbitraryZVertical,-0.08107163878613334,-0.1095724786928319,-0.9827936316915205,0.1246512975488377,-0.1866700798273087,-0.1951628923416138,-0.9628425240516663
2020-07-29 15:23:47.560 +0200,77994.19787079167,-0.1808929443359375,-0.19476318359375,-0.9659576416015625,77994.18532679167,-2.87068385497447,-0.1909769773535342,0.1971036111698183,0.01160532608628273,-0.001382591668516397,-0.01122842356562614,-0.003987491130828857,0.00205644965171814,0.0007214546203613281,XArbitraryZVertical,-0.08078528019383505,-0.1098597188465062,-0.9828070897140233,0.1244779588188045,-0.1861429214477539,-0.1958298534154892,-0.962809145450592
2020-07-29 15:23:47.580 +0200,77994.21790679167,-0.1820068359375,-0.1910400390625,-0.963958740234375,77994.20536279168,-2.870876365287855,-0.1907379643563361,0.1966834044016598,0.01928281970322132,-0.005068406462669373,-0.009165995754301548,0.0007162988185882568,-0.003885000944137573,-0.002162277698516846,XArbitraryZVertical,-0.08070843072738355,-0.1096311060220565,-0.9828464435461444,0.1244190076282815,-0.1859283745288849,-0.1954177618026733,-0.9629343152046204
2020-07-29 15:23:47.600 +0200,77994.23794279167,-0.180938720703125,-0.193328857421875,-0.9600677490234375,77994.22539979167,-2.870994046913003,-0.1907444345631889,0.1961335938964998,0.001492637675255537,-0.006382676772773266,-0.009284506551921368,-0.0003716349601745605,-0.0006885528564453125,-6.163120269775391e-05,XArbitraryZVertical,-0.0807573386469337,-0.1093572565968723,-0.9828765765543033,0.1243902562355196,-0.1859549432992935,-0.1948785185813904,-0.9630385041236877
2020-07-29 15:23:47.620 +0200,77994.25797879168,-0.183624267578125,-0.18927001953125,-0.9686279296875,77994.24543579167,-2.871102213311935,-0.1910092319474342,0.1952583818282562,-0.01651406101882458,-0.006960582919418812,-0.006282857619225979,0.0009771585464477539,-0.003815904259681702,0.00394439697265625,XArbitraryZVertical,-0.08095588029949841,-0.108940332002697,-0.9829091493770511,0.1243695001939698,-0.1862422674894333,-0.1940200179815292,-0.9631562829017639
2020-07-29 15:23:47.640 +0200,77994.27801479168,-0.1836090087890625,-0.1951904296875,-0.9706268310546875,77994.26547179167,-2.871126046405144,-0.1916193531194202,0.1947076545970112,-0.007257311139255762,-0.005296373274177313,-0.003627762198448181,-0.001114547252655029,-0.0002847611904144287,-0.004624605178833008,XArbitraryZVertical,-0.08129634278208893,-0.1087073368187438,-0.9829087825105591,0.1243541195275996,-0.1868501901626587,-0.1934797167778015,-0.9631472229957581
2020-07-29 15:23:47.661 +0200,77994.29805079167,-0.1857147216796875,-0.1842041015625,-0.9651031494140625,77994.28550779168,-2.871318900816454,-0.1914220684814744,0.1952589912874594,-0.01707971468567848,-0.01154042035341263,-0.0031647146679461,-0.001304745674133301,-0.005676835775375366,-0.006689965724945068,XArbitraryZVertical,-0.08117052906257563,-0.1089575055283031,-0.9829058740734393,0.124240493374018,-0.1866398453712463,-0.194020614027977,-0.9630792140960693
2020-07-29 15:23:47.681 +0200,77994.31808679167,-0.181488037109375,-0.184600830078125,-0.967010498046875,77994.30554379168,-2.871493745083259,-0.19116551448878,0.1953736542380871,0.009514611214399338,0.000277356244623661,-0.00791940838098526,-0.003655880689620972,0.00541938841342926,-0.001140892505645752,XArbitraryZVertical,-0.08104579965928807,-0.1089906968849221,-0.9829222879491117,0.1241623645667786,-0.1863885372877121,-0.1941330879926682,-0.9631052017211914
2020-07-29 15:23:47.701 +0200,77994.33812279167,-0.185333251953125,-0.185028076171875,-0.96551513671875,77994.32557979166,-2.871664670708993,-0.1911459500728649,0.196485619094757,0.009098359383642673,-0.005769616924226284,-0.01262597553431988,0.0005122572183609009,0.006088078022003174,-0.003252267837524414,XArbitraryZVertical,-0.08096624700592529,-0.1095276423323385,-0.9828871369644184,0.1240198142690838,-0.1863285601139069,-0.1952237784862518,-0.9628963470458984
2020-07-29 15:23:47.721 +0200,77994.35815879167,-0.1820831298828125,-0.189056396484375,-0.9672698974609375,77994.34561579167,-2.871897599896891,-0.1910350244797858,0.1965836694930065,0.006942796520888805,-0.002785544842481613,-0.01081163994967937,-0.003440827131271362,0.005754739046096802,-0.001755118370056152,XArbitraryZVertical,-0.08091749776768474,-0.1095593982424383,-0.982902001907549,0.1239061864205695,-0.1862181127071381,-0.1953199505805969,-0.9628981947898865
2020-07-29 15:23:47.741 +0200,77994.37819479167,-0.1849365234375,-0.187225341796875,-0.9679107666015625,77994.36565179167,-2.872037763753801,-0.1914227287589075,0.1973313385232633,0.01164314243942499,-0.002878223080188036,-0.01285713724792004,0.0001467317342758179,0.002442598342895508,-0.003720760345458984,XArbitraryZVertical,-0.0810624737102674,-0.10994422201999,-0.982863492349304,0.1237759136623601,-0.1865635812282562,-0.1960531622171402,-0.96268230676651
2020-07-29 15:23:47.761 +0200,77994.39823079167,-0.1832122802734375,-0.189727783203125,-0.9680633544921875,77994.38568779167,-2.872180918168594,-0.1920100709596585,0.1972005499092752,0.01899120211601257,-0.00426972471177578,-0.01732017658650875,-0.002149611711502075,0.004148408770561218,-0.004444241523742676,XArbitraryZVertical,-0.08136828956550733,-0.1099106346355953,-0.9828540332509466,0.1236803229733349,-0.187133863568306,-0.1959249079227448,-0.9625977277755737
2020-07-29 15:23:47.781 +0200,77994.41826679168,-0.1827850341796875,-0.1964569091796875,-0.9626617431640625,77994.40572379167,-2.872484683313614,-0.1919596461943682,0.1966798889516196,0.00895401556044817,-0.003170638345181942,-0.0181480385363102,-0.0004537850618362427,0.001147240400314331,-0.0044899582862854,XArbitraryZVertical,-0.08139723289139608,-0.109639948880655,-0.9828967107615798,0.1235618067712304,-0.1871047616004944,-0.1954143047332764,-0.9627071619033813
2020-07-29 15:23:47.801 +0200,77994.43830279168,-0.181915283203125,-0.20361328125,-0.9593505859375,77994.42575979167,-2.872801767454095,-0.1921341250495028,0.1960989031368809,-0.002282659988850355,-0.007035683840513229,-0.02042641118168831,0.0001586824655532837,-0.006138458847999573,0.0009884834289550781,XArbitraryZVertical,-0.08154162666344811,-0.1093530076488734,-0.9829335667992827,0.1234276921423275,-0.1872943788766861,-0.1948444992303848,-0.9627857804298401
2020-07-29 15:23:47.821 +0200,77994.45833879166,-0.183441162109375,-0.19970703125,-0.9655303955078125,77994.44579579167,-2.873264103414263,-0.1919607922117733,0.1953663576868519,-0.000471044797450304,-0.004896632861346006,-0.01857878640294075,0.0008919835090637207,-0.01399669051170349,0.004467904567718506,XArbitraryZVertical,-0.08153364520310964,-0.1089643530492193,-0.982999783193947,0.1232493315527631,-0.1871546804904938,-0.1941259354352951,-0.9629580974578857
2020-07-29 15:23:47.841 +0200,77994.47837579167,-0.182525634765625,-0.19476318359375,-0.9613494873046875,77994.46583279167,-2.873652999068625,-0.1920996247515148,0.1946564283334043,-0.00828462652862072,-0.003705400973558426,-0.01953428983688354,-0.0004776418209075928,-0.01077070832252502,-0.001605391502380371,XArbitraryZVertical,-0.08167332172479416,-0.1086089810827753,-0.9830476434310024,0.1230888008663816,-0.1873146295547485,-0.1934294700622559,-0.9630671143531799
2020-07-29 15:23:47.862 +0200,77994.49841179168,-0.1847381591796875,-0.191314697265625,-0.9643402099609375,77994.48586879167,-2.8740941446385,-0.1920236033947633,0.1946856852203744,-0.0177613515406847,-0.00412378367036581,-0.01636665128171444,0.0003653466701507568,-0.005798816680908203,0.00258404016494751,XArbitraryZVertical,-0.08165784025687281,-0.1086006370320994,-0.9830766637475125,0.1228745224686143,-0.187240332365036,-0.1934581696987152,-0.9630758166313171
2020-07-29 15:23:47.881 +0200,77994.51844779168,-0.18463134765625,-0.1871795654296875,-0.969940185546875,77994.50590479167,-2.874453593229275,-0.1918687941017405,0.195196251452679,-0.01988202705979347,-0.002489667851477861,-0.008335165679454803,-0.002011209726333618,-0.001861020922660828,-0.0004732608795166016,XArbitraryZVertical,-0.08156522158338081,-0.1088267947999214,-0.9830837883350678,0.122678831492062,-0.1870723813772202,-0.1939590573310852,-0.9630076885223389
2020-07-29 15:23:47.901 +0200,77994.53848379166,-0.18585205078125,-0.1863861083984375,-0.9653778076171875,77994.52594079167,-2.874647841701987,-0.1918600415743819,0.1957542786313154,-0.0146221499890089,0.002179918810725212,-0.002101542660966516,-0.001932799816131592,0.002808809280395508,-0.006175577640533447,XArbitraryZVertical,-0.08153212172581316,-0.1090919363140636,-0.9830727277182332,0.1225538555869348,-0.1870432794094086,-0.1945064663887024,-0.9629029035568237
2020-07-29 15:23:47.921 +0200,77994.55851979167,-0.1844329833984375,-0.184661865234375,-0.9656829833984375,77994.54597679168,-2.874666222015945,-0.1919419855266122,0.1962421582805646,-0.02541940286755562,0.002207881771028042,0.01081463694572449,-0.003094121813774109,0.004069715738296509,-0.001719236373901367,XArbitraryZVertical,-0.08153897785162695,-0.1093354050746927,-0.9830500800401453,0.1225141416873353,-0.1871040612459183,-0.1949850022792816,-0.962794303894043
2020-07-29 15:23:47.941 +0200,77994.57855579167,-0.184356689453125,-0.1815948486328125,-0.9657745361328125,77994.56601279168,-2.87449228357998,-0.1919028039965748,0.1964478077370023,-0.02990829572081566,0.001339158974587917,0.0168279018253088,-0.001719385385513306,0.005990952253341675,-0.002055704593658447,XArbitraryZVertical,-0.0814956892604302,-0.1094409166570789,-0.9830323911225574,0.1225907306659153,-0.187058687210083,-0.1951867043972015,-0.9627622961997986
2020-07-29 15:23:47.961 +0200,77994.59859179167,-0.1847991943359375,-0.18951416015625,-0.9703826904296875,77994.58604879167,-2.874081352273209,-0.1923050390252438,0.1964163353103695,-0.01230466738343239,0.009439695626497269,0.02199854329228401,-0.001263663172721863,0.009027838706970215,-0.002214968204498291,XArbitraryZVertical,-0.08167312649648337,-0.1094669245169278,-0.982992085925986,0.1227723805663776,-0.1874471008777618,-0.1951558291912079,-0.9626929759979248
2020-07-29 15:23:47.981 +0200,77994.61862779167,-0.183502197265625,-0.1851806640625,-0.96923828125,77994.60608479167,-2.873736555359473,-0.1922454091076806,0.1952002676396189,-0.02317848615348339,0.005000206641852856,0.01809864863753319,-0.001718074083328247,-5.65648078918457e-05,-0.006585359573364258,XArbitraryZVertical,-0.08171102762445623,-0.1088811649985174,-0.9830242085109635,0.1230105623239536,-0.1874348968267441,-0.1939630061388016,-0.9629364013671875
2020-07-29 15:23:48.001 +0200,77994.63866379167,-0.1820068359375,-0.1847076416015625,-0.9642486572265625,77994.62612079167,-2.873406688383346,-0.1925186157619005,0.1941026006794297,-0.007499259430915117,0.001463795080780983,0.01558222714811563,-0.0001243948936462402,0.003225058317184448,-0.005287468433380127,XArbitraryZVertical,-0.08190511713257538,-0.1083733232166727,-0.9830383344032037,0.1232169457661687,-0.1877385973930359,-0.1928860694169998,-0.9630935788154602
2020-07-29 15:23:48.036 +0200,77994.65869979167,-0.1828460693359375,-0.1873626708984375,-0.96832275390625,77994.64615679167,-2.873118195119141,-0.1928172033609206,0.193281498983675,0.001384246628731489,0.001247013919055462,0.006719646044075489,0.001681432127952576,0.00291106104850769,-0.000201106071472168,XArbitraryZVertical,-0.08209446209583426,-0.1080009923284658,-0.9830422168716089,0.1233868343465661,-0.1880564391613007,-0.1920803189277649,-0.9631925821304321
2020-07-29 15:23:48.051 +0200,77994.67873579168,-0.1837005615234375,-0.1867218017578125,-0.969757080078125,77994.66619279167,-2.872959159040949,-0.1929440134977448,0.1923682242181528,-0.002657233271747828,0.001779112964868546,0.009338408708572388,0.0009942948818206787,-0.0006194710731506348,-0.004130780696868896,XArbitraryZVertical,-0.08221298367958838,-0.1075675881256906,-0.9830646735703964,0.1235073920052721,-0.1882121413946152,-0.1911839693784714,-0.9633404612541199
2020-07-29 15:23:48.062 +0200,77994.69877179168,-0.1816864013671875,-0.180084228515625,-0.973175048828125,77994.68622879167,-2.87282045346709,-0.1928429053184247,0.1922515717484858,0.001093429513275623,0.0009625880047678947,0.005640837363898754,4.887580871582031e-05,-9.043514728546143e-05,-0.005525112152099609,XArbitraryZVertical,-0.08216410054712185,-0.1075098468514837,-0.9830650513883169,0.1235873010254356,-0.1881190091371536,-0.1910694688558578,-0.9633814096450806
2020-07-29 15:23:48.081 +0200,77994.71880879167,-0.18017578125,-0.17596435546875,-0.971160888671875,77994.70626479168,-2.87274857620948,-0.1923479051482747,0.1918427094020495,0.01369790453463793,-0.004049747716635466,0.006317622028291225,0.001611799001693726,0.006155133247375488,-0.008777439594268799,XArbitraryZVertical,-0.08194593794184753,-0.1072817309153833,-0.9830976194045219,0.1236712111620137,-0.187657043337822,-0.1906681209802628,-0.9635509848594666
2020-07-29 15:23:48.101 +0200,77994.73884479167,-0.1802978515625,-0.17864990234375,-0.9651641845703125,77994.72630179167,-2.872662305402805,-0.1921620907738522,0.1916238867648406,0.03038713522255421,-0.001422272995114326,0.001195450779050589,0.002955347299575806,0.01006519794464111,-0.006689250469207764,XArbitraryZVertical,-0.08186550252542177,-0.1071664781357834,-0.9831088193370332,0.1237353342695947,-0.1874859482049942,-0.1904533058404922,-0.9636267423629761
2020-07-29 15:23:48.122 +0200,77994.75888079168,-0.1806640625,-0.1808624267578125,-0.9725341796875,77994.74633779167,-2.872492936089075,-0.1921842181434672,0.1922153195819533,0.04220597818493843,0.001727181486785412,-0.001154332305304706,0.002833068370819092,0.007946759462356567,-0.0008047819137573242,XArbitraryZVertical,-0.08182530342714052,-0.1074647637806726,-0.983073292566059,0.1237856414692956,-0.1874857246875763,-0.1910338848829269,-0.9635118842124939
2020-07-29 15:23:48.142 +0200,77994.77891679168,-0.17822265625,-0.180419921875,-0.97265625,77994.76637379167,-2.872276430808763,-0.1923343331868955,0.1926545104276393,0.04817545413970947,-0.003835363313555717,8.620601147413254e-05,0.00259244441986084,0.006155326962471008,-0.008282780647277832,XArbitraryZVertical,-0.08185623739807674,-0.1076982466597316,-0.9830357664314391,0.123860383361979,-0.187614306807518,-0.1914649605751038,-0.9634013175964355
2020-07-29 15:23:48.162 +0200,77994.79895279167,-0.1813507080078125,-0.18048095703125,-0.9625701904296875,77994.78640979168,-2.872159599720439,-0.1921692420085955,0.1929821146404525,0.06503952294588089,-0.002725890371948481,-0.003590592183172703,0.004866823554039001,0.006911903619766235,-0.008434832096099854,XArbitraryZVertical,-0.0817455048790524,-0.1078534145605601,-0.9830218323786291,0.1239090905842833,-0.187443271279335,-0.1917864978313446,-0.9633706212043762
2020-07-29 15:23:48.182 +0200,77994.81898879167,-0.1873016357421875,-0.1889495849609375,-0.9674530029296875,77994.80644579168,-2.872016798417476,-0.1919451559386926,0.1937345189640411,0.08717531710863113,-0.001673142425715923,-0.009069741703569889,0.001501008868217468,0.007572144269943237,0.001553595066070557,XArbitraryZVertical,-0.08157412973897377,-0.108214233918094,-0.9829911293365191,0.1239509459917844,-0.1871998012065887,-0.1925248801708221,-0.9632706642150879
2020-07-29 15:23:48.202 +0200,77994.83902479167,-0.1867218017578125,-0.1905517578125,-0.9749298095703125,77994.82648179166,-2.871862407908865,-0.1917467246950886,0.1947951407914381,0.09539196640253067,-0.00478211697191,-0.001522571314126253,-0.004674717783927917,0.0001200437545776367,-0.003489255905151367,XArbitraryZVertical,-0.0813927267537137,-0.1087281783431062,-0.9829457224552748,0.1239806195321164,-0.1869696378707886,-0.1935655474662781,-0.9631068110466003
2020-07-29 15:23:48.222 +0200,77994.85906054167,-0.1842041015625,-0.1876220703125,-0.9662628173828125,77994.84651754168,-2.871565777891374,-0.1916476068139171,0.1960045157131247,0.106435164809227,-0.005517149344086647,-0.006648700218647718,-0.004231855273246765,-0.0003233551979064941,-0.01117312908172607,XArbitraryZVertical,-0.0812416598041084,-0.1093269276247049,-0.9828809412745971,0.1240668412832764,-0.1868294477462769,-0.1947519183158875,-0.9628948569297791
2020-07-29 15:23:48.242 +0200,77994.87909654167,-0.1842498779296875,-0.1990509033203125,-0.95831298828125,77994.86655354167,-2.871408255609902,-0.1914155114570277,0.1974599748462173,0.1146222576498985,-0.006929157301783562,-0.01043331809341908,-0.001985326409339905,0.004000559449195862,-0.00273662805557251,XArbitraryZVertical,-0.08101513839271846,-0.1100323351001887,-0.9828193340479991,0.124078747384658,-0.1865518391132355,-0.1961793005466461,-0.9626588821411133
2020-07-29 15:23:48.262 +0200,77994.89913254167,-0.1840362548828125,-0.2171783447265625,-0.958770751953125,77994.88658954167,-2.871331728949209,-0.191450085860578,0.198899352378686,0.1183312386274338,-0.009260488674044609,-0.01995366252958775,-0.002051323652267456,-0.00604991614818573,0.004935145378112793,XArbitraryZVertical,-0.08092512675090553,-0.1107430369841504,-0.9827522671275832,0.1240371155834328,-0.186531201004982,-0.1975905001163483,-0.962374210357666
2020-07-29 15:23:48.282 +0200,77994.91916854167,-0.17041015625,-0.2257232666015625,-0.9565277099609375,77994.90662554167,-2.871278411165486,-0.1919292089361951,0.2000610675035108,0.07415618747472763,-0.003839890472590923,-0.01821659691631794,-0.001430213451385498,-0.02306511998176575,0.004169285297393799,XArbitraryZVertical,-0.08107459526335777,-0.1113442352030408,-0.9826799018947294,0.1239741224897403,-0.1869483590126038,-0.1987291872501373,-0.9620587229728699
2020-07-29 15:23:48.302 +0200,77994.93920454168,-0.179962158203125,-0.230987548828125,-0.954193115234375,77994.92666154167,-2.871190658002946,-0.192289874881628,0.2003777956912411,0.04042592272162437,-0.001541316043585539,-0.0006719577359035611,0.01252306997776031,-0.03130683302879333,0.006285965442657471,XArbitraryZVertical,-0.08122427221637378,-0.1115253635328576,-0.9826462410555664,0.1239800396345093,-0.1872832924127579,-0.1990395784378052,-0.9619294404983521
2020-07-29 15:23:48.322 +0200,77994.95924154167,-0.190093994140625,-0.223297119140625,-0.956787109375,77994.94669754167,-2.871117605455365,-0.1922957532684978,0.2000350127897337,0.01175020169466734,0.007879616692662239,0.003728916170075536,0.002989292144775391,-0.03689926862716675,0.008684873580932617,XArbitraryZVertical,-0.08124759926499533,-0.1113607182850773,-0.9826561843250115,0.1240341356018467,-0.187301978468895,-0.1987036466598511,-0.9619952440261841
2020-07-29 15:23:48.342 +0200,77994.97927754167,-0.1936187744140625,-0.23358154296875,-0.958984375,77994.96673454167,-2.870928061013685,-0.1927517094402977,0.200448195275282,-0.00525994086638093,0.001362328417599201,0.003075756598263979,-0.006729468703269958,-0.02881325781345367,0.005928575992584229,XArbitraryZVertical,-0.08143149186336722,-0.1115991781905079,-0.9826081699797964,0.1240794931290113,-0.187724843621254,-0.1991085708141327,-0.9618290662765503
2020-07-29 15:23:48.362 +0200,77994.99931354167,-0.1990203857421875,-0.2117462158203125,-0.957550048828125,77994.98677054167,-2.871768687415477,-0.1922588446938011,0.2002175653920972,-0.139573410153389,0.03122035786509514,-0.09765241295099258,-0.01070873439311981,-0.03931845724582672,0.003865540027618408,XArbitraryZVertical,-0.08125268425333093,-0.111421439655558,-0.9826902054539114,0.1237064373825029,-0.1872595399618149,-0.1988825500011444,-0.9619665145874023
2020-07-29 15:23:48.382 +0200,77995.01934954168,-0.1788787841796875,-0.198638916015625,-0.959228515625,77995.00680654167,-2.873453469741645,-0.1910610382835946,0.1993202347779508,-0.08574718981981277,0.02965202182531357,-0.04832907021045685,-0.01720304787158966,-0.0183422863483429,0.005689084529876709,XArbitraryZVertical,-0.08082153244193871,-0.1108395053543215,-0.982881061561781,0.1229934090567686,-0.1861409693956375,-0.1980030685663223,-0.9623649716377258
2020-07-29 15:23:48.402 +0200,77995.03938554168,-0.1817169189453125,-0.1695404052734375,-0.9724578857421875,77995.02684254167,-2.874274709530802,-0.1904350594439878,0.1995839320451404,-0.04364181682467461,0.01286398805677891,-0.01570162177085876,0.002340435981750488,-0.004982531070709229,0.004074156284332275,XArbitraryZVertical,-0.08054075575899493,-0.1108972097755245,-0.9829453754716853,0.1226103449298915,-0.1855286210775375,-0.1982615441083908,-0.9624300003051758
2020-07-29 15:23:48.422 +0200,77995.05942154168,-0.173675537109375,-0.1694183349609375,-0.9775848388671875,77995.04687854167,-2.874707892665168,-0.1903735029237164,0.2003583759234425,-0.006043708883225918,0.00749452318996191,-0.0472843162715435,-0.0005840659141540527,0.024857297539711,-0.009291589260101318,XArbitraryZVertical,-0.08047984074629611,-0.1112556342253302,-0.9829411970375194,0.1223594759138644,-0.185440257191658,-0.1990205496549606,-0.962290346622467
2020-07-29 15:23:48.442 +0200,77995.07945754167,-0.177093505859375,-0.18682861328125,-0.9673309326171875,77995.06691454168,-2.876246066978085,-0.190126638344478,0.2017853498303336,0.0518689937889576,0.01603741198778152,-0.0664450004696846,0.007172659039497375,0.02634508907794952,-0.01464724540710449,XArbitraryZVertical,-0.08034382492900087,-0.1118782654451987,-0.9829831861222074,0.1215409692665361,-0.1851488500833511,-0.2004187703132629,-0.9620562195777893
2020-07-29 15:23:48.462 +0200,77995.09949354167,-0.196441650390625,-0.2021331787109375,-0.96392822265625,77995.08695054168,-2.877940216691282,-0.1896435496025848,0.2040864851584478,0.02652288973331451,0.009140357375144958,-0.07351937890052795,0.003215253353118896,0.01113633811473846,-0.004750967025756836,XArbitraryZVertical,-0.08004038448283265,-0.1129091798440918,-0.9830044065941548,0.120612578502818,-0.1845966428518295,-0.2026726901531219,-0.9616901278495789
2020-07-29 15:23:48.482 +0200,77995.11952954167,-0.196075439453125,-0.1957244873046875,-0.964752197265625,77995.10698654166,-2.878522555604675,-0.1892134979542925,0.2051293095607583,0.004809071309864521,-0.01117370370775461,-0.009660203009843826,-0.01657575368881226,-0.00317084789276123,-0.001474082469940186,XArbitraryZVertical,-0.07978916773927638,-0.1133712426801409,-0.9830105241136144,0.120295083708556,-0.1841431856155396,-0.203693762421608,-0.9615613222122192
2020-07-29 15:23:48.502 +0200,77995.13956554167,-0.1909637451171875,-0.1999664306640625,-0.96539306640625,77995.12702254167,-2.878251407883599,-0.1890885194634979,0.2047419200434487,0.03430784121155739,-0.008632780984044075,0.02549435943365097,-0.01631249487400055,0.002867341041564941,-0.002199947834014893,XArbitraryZVertical,-0.07973940541572343,-0.1131846185751141,-0.9830163798432405,0.1204560706166898,-0.184037834405899,-0.203314483165741,-0.9616617560386658
2020-07-29 15:23:48.535 +0200,77995.15960154167,-0.185333251953125,-0.1908721923828125,-0.9668731689453125,77995.14705854167,-2.877770707592316,-0.1888669266334285,0.2042210058303719,0.006004165392369032,-0.006464435718953609,0.02244815975427628,-0.01138956844806671,-0.001872822642326355,-0.002699494361877441,XArbitraryZVertical,-0.07963970073431148,-0.1129350372846499,-0.9830192302578367,0.1207325695999651,-0.1838445961475372,-0.2028044164180756,-0.9618064165115356
2020-07-29 15:23:48.546 +0200,77995.17963854167,-0.1801300048828125,-0.1934967041015625,-0.9625244140625,77995.16709454167,-2.877546781479617,-0.1889583684863927,0.2033402198835863,0.03549068421125412,-0.009531598538160324,-0.009974493645131588,-0.005640506744384766,0.006378859281539917,-0.004024982452392578,XArbitraryZVertical,-0.07973359677715908,-0.1125176690611628,-0.9830408943732555,0.1208843356939384,-0.1839660257101059,-0.2019418478012085,-0.9619646668434143
2020-07-29 15:23:48.562 +0200,77995.19967454167,-0.177337646484375,-0.2084197998046875,-0.9654388427734375,77995.18713154166,-2.877534213091368,-0.1895483576345559,0.2050079328084171,0.06011253967881203,-0.01041417010128498,-0.01465975493192673,5.492568016052246e-05,0.005349546670913696,-0.0001068115234375,XArbitraryZVertical,-0.07990619873657623,-0.1133713781670182,-0.9829430001860762,0.120768343914551,-0.1844698190689087,-0.203574925661087,-0.9615238308906555
2020-07-29 15:23:48.583 +0200,77995.21971054167,-0.1758270263671875,-0.2181396484375,-0.9598388671875,77995.20716754167,-2.877525437280279,-0.1905912092067331,0.2059488713403418,0.03931684792041779,-0.00944850780069828,-0.0222884938120842,0.003791123628616333,-0.008673772215843201,-0.003393828868865967,XArbitraryZVertical,-0.08035234050382559,-0.1138958940995107,-0.9828589113924364,0.1206630561060467,-0.1854360848665237,-0.2044960707426071,-0.9611424803733826
2020-07-29 15:23:48.603 +0200,77995.23974654167,-0.1768646240234375,-0.2097930908203125,-0.9609375,77995.22720354167,-2.877657730575029,-0.1915535629404116,0.2064947368630254,0.01062235329300165,-0.007555799093097448,-0.01935041882097721,0.006184384226799011,-0.01787169277667999,0.001924216747283936,XArbitraryZVertical,-0.08079457619405381,-0.1142161311216319,-0.9828037963960485,0.1205138078169391,-0.1863396763801575,-0.2050303667783737,-0.9608538150787354
2020-07-29 15:23:48.623 +0200,77995.25978254167,-0.184112548828125,-0.2143096923828125,-0.9664764404296875,77995.24723954167,-2.877847685584899,-0.1921069881197011,0.2066370615325763,0.02464602701365948,-0.000443561002612114,-0.01417658105492592,0.005660757422447205,-0.009389027953147888,0.000696718692779541,XArbitraryZVertical,-0.08106741279112331,-0.1143115242270361,-0.982786522880054,0.1203811783345844,-0.1868658363819122,-0.2051696628332138,-0.9607219099998474
2020-07-29 15:23:48.643 +0200,77995.27981854168,-0.181488037109375,-0.1964263916015625,-0.9644775390625,77995.26727554167,-2.878011775235466,-0.1919245055700222,0.2057077138723771,-0.02523484639823437,-0.008014395833015442,0.006749207153916359,-0.001722961664199829,-0.01479414105415344,-0.00462651252746582,XArbitraryZVertical,-0.08105212351810949,-0.1138384101260629,-0.9828451221911276,0.1203611174237518,-0.1867268085479736,-0.2042600065469742,-0.9609427452087402
2020-07-29 15:23:48.663 +0200,77995.29985454168,-0.1788787841796875,-0.20343017578125,-0.9566802978515625,77995.28731154167,-2.878061567237101,-0.1916469926573441,0.2062971245043998,0.02365706115961075,-0.005350701510906219,-0.005879008211195469,0.0006186366081237793,0.003652706742286682,-0.002692639827728271,XArbitraryZVertical,-0.08087736834374357,-0.1141085817568984,-0.9828331409513364,0.1203206765066888,-0.1864371597766876,-0.2048369497060776,-0.9608761668205261
2020-07-29 15:23:48.683 +0200,77995.31989054166,-0.1835479736328125,-0.20513916015625,-0.9684600830078125,77995.30734754167,-2.87825334197916,-0.1912503180075592,0.207577124896192,0.01086709741503,0.00222679041326046,-0.009684095159173012,0.002806738018989563,-0.002127498388290405,0.004924595355987549,XArbitraryZVertical,-0.08060391244392698,-0.1147043257174139,-0.9828035343027388,0.1201802077288323,-0.1860059946775436,-0.2060896456241608,-0.9606918692588806
2020-07-29 15:23:48.703 +0200,77995.33992654167,-0.1833038330078125,-0.2067718505859375,-0.9652862548828125,77995.32738354168,-2.878462910281006,-0.1908940870496429,0.2085588611418793,0.006519886199384928,0.0002086469903588295,-0.006304886192083359,-0.002234295010566711,-0.0028982013463974,-0.006985008716583252,XArbitraryZVertical,-0.08037230714033529,-0.1151556469657387,-0.9827862365421847,0.1200448573489235,-0.185625284910202,-0.2070502042770386,-0.9605589509010315
2020-07-29 15:23:48.723 +0200,77995.35996254167,-0.1851348876953125,-0.21478271484375,-0.9575042724609375,77995.34741954168,-2.878568851829973,-0.190912984011569,0.209674124286128,0.01651779189705849,-0.003131223376840353,-0.004483398050069809,-0.00201532244682312,-0.003465250134468079,-0.004036664962768555,XArbitraryZVertical,-0.08030980779947387,-0.1156990965362833,-0.9827412645865505,0.1199316817614429,-0.1855995059013367,-0.2081411778926849,-0.9603281021118164
2020-07-29 15:23:48.743 +0200,77995.37999954168,-0.1815338134765625,-0.20343017578125,-0.9639739990234375,77995.36745654167,-2.878550833174886,-0.1908257288826829,0.2095474560710381,-0.02427064999938011,0.003667294047772884,0.0060024568811059,-0.003923356533050537,-0.01159712672233582,0.003786385059356689,XArbitraryZVertical,-0.08027473274481182,-0.1156325059576377,-0.9827494952189025,0.1199524215185938,-0.1855207085609436,-0.2080172747373581,-0.9603701829910278
2020-07-29 15:23:48.763 +0200,77995.40003554166,-0.1808624267578125,-0.2099456787109375,-0.960357666015625,77995.38749254167,-2.878499349382841,-0.1906413723185365,0.2091595211921978,0.01022767275571823,0.00279777217656374,0.006824308075010777,-0.0004802793264389038,-0.0006152242422103882,-0.002572596073150635,XArbitraryZVertical,-0.08020827481603,-0.1154334001599168,-0.9827713365714283,0.1200092004676886,-0.185358926653862,-0.2076378166675568,-0.9604835510253906
2020-07-29 15:23:48.783 +0200,77995.42007154167,-0.18206787109375,-0.19915771484375,-0.9636993408203125,77995.40752854168,-2.87807080075054,-0.1913180866598906,0.2099219490629996,0.00829581543803215,-0.003114977851510048,0.01855473220348358,0.0007965266704559326,-0.006402269005775452,0.0007688999176025391,XArbitraryZVertical,-0.08046269267621146,-0.1158648701611718,-0.9826838641430744,0.1201396139744381,-0.1859786957502365,-0.2083835601806641,-0.960202157497406
2020-07-29 15:23:48.803 +0200,77995.44010754167,-0.180267333984375,-0.20330810546875,-0.9622039794921875,77995.42756454168,-2.87767921313529,-0.191245088905785,0.2104730090080827,0.03349637612700462,-0.005900378338992596,0.01646129786968231,-0.0004987418651580811,0.004912108182907104,-0.002669751644134521,XArbitraryZVertical,-0.08036550953028199,-0.1161462480915047,-0.9826382336851069,0.1203065489104142,-0.1858867555856705,-0.208922490477562,-0.9601028561592102
2020-07-29 15:23:48.823 +0200,77995.46014354167,-0.182525634765625,-0.2109375,-0.962646484375,77995.44760054167,-2.87734234737394,-0.1915581337248116,0.2121388884552833,0.03663384541869164,-0.005238848738372326,-0.003006903454661369,0.001530379056930542,0.002352684736251831,-0.00156635046005249,XArbitraryZVertical,-0.08038280302189707,-0.1169948472813668,-0.9825290926476746,0.1203638160915073,-0.1861207783222198,-0.2105513215065002,-0.9597015976905823
2020-07-29 15:23:48.843 +0200,77995.48017954167,-0.181427001953125,-0.2134552001953125,-0.9604644775390625,77995.46763654167,-2.877165562340049,-0.1914891079988061,0.2126671687726557,0.01740036532282829,-0.001071800943464041,0.01077385153621435,-0.0008133053779602051,-0.00477224588394165,-0.002103090286254883,XArbitraryZVertical,-0.08030143324373699,-0.1172566104503925,-0.9824968927848341,0.1204261323393904,-0.1860333383083344,-0.2110677361488342,-0.9596051573753357
2020-07-29 15:23:48.863 +0200,77995.50021554167,-0.1859130859375,-0.2118072509765625,-0.9605865478515625,77995.48767254167,-2.876935357021879,-0.1913080510363122,0.2128251191446396,0.003453789046034217,0.0002461979165673256,0.01292971894145012,0.0001094192266464233,-0.007139146327972412,7.981061935424805e-05,XArbitraryZVertical,-0.08018788178489068,-0.1173323175224958,-0.9824830366331405,0.1205413128329571,-0.1858532577753067,-0.2112221121788025,-0.9596060514450073
2020-07-29 15:23:48.883 +0200,77995.52025154167,-0.18353271484375,-0.20086669921875,-0.966522216796875,77995.50770854167,-2.876394323228415,-0.191709850527767,0.2125705534545592,0.002994527108967304,-0.007137150038033724,0.03667514771223068,-0.003990098834037781,-0.005734294652938843,-6.371736526489258e-05,XArbitraryZVertical,-0.08037144992255212,-0.1172535681736672,-0.9824459895302715,0.1207972889630568,-0.1862490475177765,-0.2109732925891876,-0.9595840573310852
2020-07-29 15:23:48.903 +0200,77995.54028754168,-0.1809539794921875,-0.2029571533203125,-0.961700439453125,77995.52774454167,-2.875660967468296,-0.1916606385101348,0.2117868698690297,0.01004897430539131,-0.007585626561194658,0.03413411229848862,-0.001625090837478638,0.004458010196685791,-0.005832195281982422,XArbitraryZVertical,-0.08035963759449906,-0.1168961536138701,-0.9824395465930365,0.1212028127576859,-0.186233252286911,-0.2102071791887283,-0.9597552418708801
2020-07-29 15:23:48.923 +0200,77995.56032354168,-0.181365966796875,-0.2071685791015625,-0.96417236328125,77995.54778054167,-2.875121374162762,-0.1918544288562699,0.212831683343926,0.01983422599732876,-0.005092374980449677,0.01652327366173267,0.001094326376914978,0.003365218639373779,-0.001256823539733887,XArbitraryZVertical,-0.08034934033471748,-0.117441388241222,-0.9823510415006387,0.1213999131221696,-0.1863772720098495,-0.211228534579277,-0.9595029950141907
2020-07-29 15:23:48.943 +0200,77995.58036054167,-0.1800689697265625,-0.2169647216796875,-0.957000732421875,77995.56781654168,-2.874864505752734,-0.1918706894858988,0.2139055897998751,0.009940450079739094,-0.001357025466859341,0.002232029335573316,0.0006552338600158691,0.0001789778470993042,-0.003949761390686035,XArbitraryZVertical,-0.08026614365210977,-0.1179786884282432,-0.9822852270536091,0.1214668900036504,-0.1863494962453842,-0.2122780829668045,-0.9592767357826233
2020-07-29 15:23:48.963 +0200,77995.60039654167,-0.185943603515625,-0.211639404296875,-0.9571685791015625,77995.58785354167,-2.874793730935207,-0.1921809336235716,0.2144653613671439,-0.02846352942287922,0.007639665156602859,0.004934642929583788,0.00222073495388031,-0.009082868695259094,0.003051280975341797,XArbitraryZVertical,-0.0803746520589379,-0.118274528736751,-0.9822425233137361,0.1214529337897347,-0.1866243779659271,-0.2128250747919083,-0.9591020941734314
2020-07-29 15:23:48.983 +0200,77995.62043254168,-0.184783935546875,-0.1939544677734375,-0.966094970703125,77995.60788954167,-2.874729373277954,-0.1922575673973152,0.2127385853687211,-0.04341105744242668,0.01060456223785877,0.01214910857379436,-0.003513723611831665,-0.005405843257904053,0.003220438957214355,XArbitraryZVertical,-0.08053092832299008,-0.1174360447553055,-0.9823152738581022,0.121573818867623,-0.1867678165435791,-0.2111375331878662,-0.9594470858573914
2020-07-29 15:23:49.004 +0200,77995.64046854168,-0.1751556396484375,-0.1905670166015625,-0.9738922119140625,77995.62792554167,-2.87470539952836,-0.191584459702926,0.2112392797254149,-0.04768076911568642,0.02255416661500931,0.004411826375871897,-0.002926215529441833,0.01084743440151215,-0.005280911922454834,XArbitraryZVertical,-0.08030515631946361,-0.1166616598476206,-0.9824096379683203,0.1217062862821018,-0.1861820369958878,-0.2096717953681946,-0.9598822593688965
2020-07-29 15:23:49.035 +0200,77995.66050454167,-0.1773529052734375,-0.18939208984375,-0.96002197265625,77995.64796154168,-2.874937022425584,-0.1910279113952291,0.2106139645001897,-0.02201788127422333,0.005592493340373039,0.001948060235008597,0.006204530596733093,0.01363764703273773,-0.0128515362739563,XArbitraryZVertical,-0.08008953114163372,-0.1163121761591069,-0.9824745991407753,0.1216587251546265,-0.1856726408004761,-0.2090603411197662,-0.9601143002510071
2020-07-29 15:23:49.048 +0200,77995.68054054167,-0.182769775390625,-0.202728271484375,-0.9607391357421875,77995.66799754168,-2.874822080802034,-0.1909279187271448,0.2112980655980823,-0.0004820968024432659,-0.001409489661455154,0.01143172848969698,0.003886982798576355,0.01546601951122284,0.0008994340896606445,XArbitraryZVertical,-0.07998529504479115,-0.1166458309023565,-0.9824403804673916,0.1216840972038395,-0.1855494529008865,-0.2097292691469193,-0.9599922299385071
2020-07-29 15:23:49.063 +0200,77995.70057654167,-0.1833343505859375,-0.2115631103515625,-0.9695892333984375,77995.68803354166,-2.874404133042641,-0.1914209140564584,0.2123102896321329,0.02613899484276772,-0.009211486205458641,0.01568392105400562,-0.001107215881347656,0.003096416592597961,-0.0001112222671508789,XArbitraryZVertical,-0.08013128362157874,-0.1171884142150167,-0.9823488094794672,0.1218058746718699,-0.1859822124242783,-0.2107188701629639,-0.9596917033195496
2020-07-29 15:23:49.084 +0200,77995.72061254167,-0.1812591552734375,-0.2145538330078125,-0.9604949951171875,77995.70806954167,-2.874011104790954,-0.1916006773720824,0.2127017416070875,0.02293308265507221,-0.01410477794706821,0.01596739515662193,-0.001518607139587402,-0.005364641547203064,-0.009073138236999512,XArbitraryZVertical,-0.0801687330695581,-0.1174068551755463,-0.9822996792179317,0.1219671870486888,-0.1861390024423599,-0.2111015170812607,-0.959577202796936
2020-07-29 15:23:49.104 +0200,77995.74064854167,-0.183258056640625,-0.21881103515625,-0.9533843994140625,77995.72810554167,-2.8736262449671,-0.1918023637154717,0.2122686597351317,0.0216562282294035,-0.01103202346712351,0.0240398570895195,0.000762641429901123,-0.008768826723098755,7.194280624389648e-05,XArbitraryZVertical,-0.08027599943906406,-0.1172224777293066,-0.9822880447986095,0.1221678720969109,-0.18634994328022,-0.2106781750917435,-0.9596292972564697
2020-07-29 15:23:49.125 +0200,77995.76068454167,-0.1812591552734375,-0.210235595703125,-0.96484375,77995.74814154167,-2.873127404480371,-0.1917676896856408,0.211497808205257,-0.004391883499920368,0.00370404589921236,0.02360541932284832,-0.001238539814949036,-0.01376211643218994,0.007344305515289307,XArbitraryZVertical,-0.08028465843952547,-0.1168628283250642,-0.982294182970825,0.1224566755697579,-0.1863475739955902,-0.2099245637655258,-0.9597948789596558
2020-07-29 15:23:49.144 +0200,77995.78072054168,-0.181732177734375,-0.204742431640625,-0.970672607421875,77995.76817754167,-2.872615336770635,-0.1920521803131469,0.2104033870364362,-0.01757173426449299,0.004987956024706364,0.02536428533494473,0.001069784164428711,-0.006231978535652161,-0.003947138786315918,XArbitraryZVertical,-0.08047255885313144,-0.1163648033859775,-0.9823011975788775,0.1227509343463754,-0.1866643577814102,-0.2088544070720673,-0.959966778755188
2020-07-29 15:23:49.164 +0200,77995.80075754167,-0.1819305419921875,-0.2052154541015625,-0.9631195068359375,77995.78821454167,-2.872334883385836,-0.1918158824613088,0.2098862774017608,-0.02036033011972904,0.004000456072390079,0.02027818001806736,0.0003952682018280029,-0.001232802867889404,-0.009629487991333008,XArbitraryZVertical,-0.08037711198297744,-0.1161082845089866,-0.9823169120301861,0.1229304476789029,-0.1864580810070038,-0.2083486765623093,-0.9601167440414429
2020-07-29 15:23:49.184 +0200,77995.82079354167,-0.1854705810546875,-0.1997833251953125,-0.9675445556640625,77995.80825054167,-2.872186632901062,-0.1917748021119763,0.2099442252068598,-0.05658664554357529,-8.057244122028351e-05,0.01192365307360888,0.0001561194658279419,-0.001650482416152954,-0.00208050012588501,XArbitraryZVertical,-0.08034418228472692,-0.1161400935925251,-0.9823068788530052,0.1230025316155513,-0.1864163428544998,-0.2084053456783295,-0.9601125717163086
2020-07-29 15:23:49.204 +0200,77995.84082954167,-0.178863525390625,-0.201690673828125,-0.9642333984375,77995.82828654167,-2.872160755490023,-0.1919131425322659,0.2098593717077299,-0.04271463677287102,-0.002345857210457325,0.009212935343384743,-0.003250852227210999,0.003700628876686096,-0.006513833999633789,XArbitraryZVertical,-0.0804166922983046,-0.1161080835923146,-0.9823035351839207,0.1230117928190101,-0.1865525245666504,-0.2083223611116409,-0.9601041078567505
2020-07-29 15:23:49.225 +0200,77995.860865625,-0.18109130859375,-0.192230224609375,-0.96148681640625,77995.84832262501,-2.87216383185649,-0.1918442042676154,0.2099351136689074,-0.03197237849235535,-0.007192810066044331,0.01105390302836895,0.003288641571998596,0.001865670084953308,-0.003205239772796631,XArbitraryZVertical,-0.08037760431614505,-0.116140822137594,-0.9823030297077202,0.1230101625676119,-0.1864833384752274,-0.2083964347839355,-0.9601014852523804
2020-07-29 15:23:49.244 +0200,77995.880901625,-0.1818084716796875,-0.1964569091796875,-0.958282470703125,77995.86835862501,-2.871980773458218,-0.191689617347991,0.210038947871789,0.03450611606240273,-0.006366697605699301,0.01502239238470793,0.0009118616580963135,0.01142531633377075,-0.0004512667655944824,XArbitraryZVertical,-0.08028362592956581,-0.1161895217297842,-0.9822932688013828,0.1231034227796793,-0.1863307803869247,-0.2084979861974716,-0.9601090550422668
2020-07-29 15:23:49.264 +0200,77995.900937625,-0.18280029296875,-0.1976318359375,-0.96533203125,77995.888394625,-2.871643116840576,-0.1917663778350622,0.2109043978072035,0.04862579330801964,0.0002858787775039673,-0.004252501763403416,0.0002330392599105835,0.00802534818649292,0.002565741539001465,XArbitraryZVertical,-0.08023975006853301,-0.1166316740631091,-0.9822301418035502,0.123217906361151,-0.1863700300455093,-0.2093443423509598,-0.9599172472953796
2020-07-29 15:23:49.284 +0200,77995.920973625,-0.1808929443359375,-0.209625244140625,-0.972686767578125,77995.908430625,-2.871585079245882,-0.1923286613431178,0.211411553899428,0.04221756383776665,-0.00287289684638381,-0.01879442669451237,-0.0002514123916625977,0.00733482837677002,-0.004688262939453125,XArbitraryZVertical,-0.08047618218089087,-0.1169170198717664,-0.9821808647854038,0.1231860394695988,-0.1868894249200821,-0.2098402380943298,-0.9597079753875732
2020-07-29 15:23:49.304 +0200,77995.94100962501,-0.1852874755859375,-0.2141571044921875,-0.9614410400390625,77995.928466625,-2.871921297805404,-0.1916084546515196,0.2116978226398886,0.01326181180775166,-0.0005130697973072529,-0.01139521412551403,0.0009695589542388916,-0.004385188221931458,-0.01196938753128052,XArbitraryZVertical,-0.08012165579095833,-0.1169993808614894,-0.982217428165117,0.123047508905162,-0.1861867308616638,-0.2101201266050339,-0.9597833156585693
2020-07-29 15:23:49.326 +0200,77995.96104562501,-0.1842498779296875,-0.2115631103515625,-0.959716796875,77995.948502625,-2.87201115924608,-0.1914583633332064,0.2107431115887053,-0.02023329772055149,0.0007846886292099953,0.005595830269157887,-0.003528401255607605,-0.009828805923461914,-0.0005044937133789062,XArbitraryZVertical,-0.08012146992716844,-0.1165189629787683,-0.9822724685150428,0.1230638334339732,-0.1860807687044144,-0.2091866284608841,-0.9600077867507935
2020-07-29 15:23:49.344 +0200,77995.98108162501,-0.18548583984375,-0.199554443359375,-0.9603424072265625,77995.96853862501,-2.871969379786206,-0.1915710010612875,0.2092679933843829,-0.02304679341614246,-0.002347454894334078,0.01162857469171286,-0.002327948808670044,-0.008643954992294312,0.001494169235229492,XArbitraryZVertical,-0.08027981566321131,-0.115805052969911,-0.9823322000679644,0.123157644310819,-0.1862474530935287,-0.207743912935257,-0.9602887034416199
2020-07-29 15:23:49.364 +0200,77996.001118625,-0.1838836669921875,-0.1999664306640625,-0.9652862548828125,77995.988575625,-2.871693315769055,-0.1916016634371074,0.208263120706836,0.02090548351407051,-0.004968537949025631,0.01917509734630585,-0.00349639356136322,0.002404510974884033,0.001062691211700439,XArbitraryZVertical,-0.08035077695749568,-0.1153258116217838,-0.9823591399441232,0.1233458241853569,-0.1863165497779846,-0.2067608684301376,-0.960487425327301
2020-07-29 15:23:49.384 +0200,77996.02115462501,-0.181640625,-0.201934814453125,-0.9658660888671875,77996.008611625,-2.87136544762302,-0.1912951607914312,0.2094147227813311,0.01864872127771378,-0.008019189350306988,0.0122054535895586,-0.002226129174232483,0.003092929720878601,-0.004054367542266846,XArbitraryZVertical,-0.08009885617533383,-0.115884131657209,-0.9822993916711509,0.1234623067388628,-0.1859767585992813,-0.2078874409198761,-0.9603101015090942
2020-07-29 15:23:49.404 +0200,77996.04119062501,-0.182861328125,-0.2066192626953125,-0.9618682861328125,77996.028647625,-2.871086868320584,-0.1918866645784967,0.210652313557153,0.03851443529129028,-0.005375469103455544,-5.026347935199738e-06,0.0005236566066741943,0.002306818962097168,-0.004989266395568848,XArbitraryZVertical,-0.08028446384628966,-0.1165379578540777,-0.9822024630026813,0.123497743215126,-0.1864955425262451,-0.20909783244133,-0.9599466323852539
2020-07-29 15:23:49.425 +0200,77996.06122662501,-0.1812286376953125,-0.204559326171875,-0.9693145751953125,77996.04868362501,-2.870949842980022,-0.1921977613965538,0.2121494280443329,0.02012784034013748,0.0004661744460463524,-0.005489083472639322,-0.0004639476537704468,-0.0009478181600570679,-0.001349389553070068,XArbitraryZVertical,-0.08032179460994271,-0.1172958310503855,-0.9821131912457763,0.1234655067437521,-0.1867341697216034,-0.2105616182088852,-0.9595801830291748
2020-07-29 15:23:49.444 +0200,77996.08126262501,-0.1817779541015625,-0.2118682861328125,-0.95556640625,77996.06871962501,-2.870987599426611,-0.1927236826461429,0.211860222655194,0.005157546140253544,-0.004846032708883286,-0.01345965825021267,0.001672998070716858,0.0008359402418136597,-0.008833348751068115,XArbitraryZVertical,-0.08060302136504895,-0.1171851490142326,-0.9821076506991377,0.1234319078349697,-0.1872504651546478,-0.2102788984775543,-0.9595415592193604
2020-07-29 15:23:49.465 +0200,77996.101298625,-0.18377685546875,-0.20733642578125,-0.957061767578125,77996.08875562501,-2.871268681551534,-0.1926846702980384,0.2108631213659062,-0.01352532766759396,-0.0005170642398297787,-0.01049388572573662,0.001126304268836975,-0.007425233721733093,0.005122482776641846,XArbitraryZVertical,-0.08067184445550397,-0.1166831303588043,-0.9821719677922118,0.1233504586911109,-0.1872530877590179,-0.2093039751052856,-0.9597542285919189
2020-07-29 15:23:49.485 +0200,77996.121334625,-0.184539794921875,-0.2057342529296875,-0.96673583984375,77996.10879162501,-2.871520191059391,-0.1923059778999027,0.2100306234955232,0.0001774351112544537,-0.001388716977089643,-0.008560506626963615,-0.001195132732391357,-0.00368855893611908,0.003863036632537842,XArbitraryZVertical,-0.08056017340990392,-0.1162419325069915,-0.9822404897733265,0.1232942663924405,-0.1869228631258011,-0.2084898501634598,-0.9599957466125488
2020-07-29 15:23:49.505 +0200,77996.141370625,-0.1854095458984375,-0.203765869140625,-0.9609375,77996.128827625,-2.871657175419078,-0.1922300464157054,0.2101517078482502,0.007491407450288534,-0.002322687767446041,-0.001592650660313666,-0.00203394889831543,-0.001970693469047546,-0.005821406841278076,XArbitraryZVertical,-0.08052218058586551,-0.116291044102837,-0.9822464594461573,0.123224806593575,-0.186845138669014,-0.2086082696914673,-0.9599851369857788
2020-07-29 15:23:49.526 +0200,77996.161406625,-0.184112548828125,-0.2003631591796875,-0.966094970703125,77996.148863625,-2.871864898358488,-0.1915715324364309,0.2105327395853306,0.01644588634371758,-0.002404979430139065,-0.008978889323771,-0.003536030650138855,0.0003616809844970703,2.062320709228516e-05,XArbitraryZVertical,-0.08018357984341382,-0.1164287554645956,-0.9822684716359393,0.1231404570872223,-0.1861977875232697,-0.2089809030294418,-0.9600299000740051
2020-07-29 15:23:49.545 +0200,77996.18144262501,-0.185302734375,-0.209869384765625,-0.9625396728515625,77996.168899625,-2.87207671642232,-0.1916353778455979,0.2116625963378543,-0.00277893990278244,0.00165767315775156,-0.01788666844367981,-0.002223193645477295,0.00484350323677063,-0.005375444889068604,XArbitraryZVertical,-0.08014649848556819,-0.1169775658913477,-0.9822274313820599,0.122971476752407,-0.1862139850854874,-0.2100856751203537,-0.9597855806350708
2020-07-29 15:23:49.565 +0200,77996.201479625,-0.185211181640625,-0.209564208984375,-0.961090087890625,77996.18893662501,-2.872309711668511,-0.1921904352440174,0.2121673797890182,-0.02311177551746368,-0.005876676179468632,-0.01316621620208025,-0.002912864089012146,-0.004180684685707092,-0.002023041248321533,XArbitraryZVertical,-0.08039664901835117,-0.1172495324439756,-0.9821963818981613,0.1227971584145618,-0.1867264211177826,-0.2105791717767715,-0.9595778584480286
2020-07-29 15:23:49.585 +0200,77996.221515625,-0.1819610595703125,-0.1942596435546875,-0.9644775390625,77996.208972625,-2.872431738795636,-0.1927544848942988,0.2114536695291183,-0.03026875481009483,-0.005480930209159851,-0.001381652196869254,-0.002264529466629028,-0.004557013511657715,-0.000532686710357666,XArbitraryZVertical,-0.08073179633765913,-0.1169297109382692,-0.9822137643275655,0.122743027860411,-0.1872963756322861,-0.2098814100027084,-0.9596196413040161
2020-07-29 15:23:49.605 +0200,77996.241551625,-0.18328857421875,-0.202392578125,-0.956787109375,77996.229008625,-2.872355651855531,-0.1932500683814402,0.2108726336870833,0.0252111479640007,0.001165786758065224,0.001782106701284647,0.001472949981689453,0.0101926177740097,-0.003894150257110596,XArbitraryZVertical,-0.08101224050024937,-0.116678641042698,-0.9822155895481757,0.1227831571195663,-0.1877953112125397,-0.2093132883310318,-0.9596462249755859
2020-07-29 15:23:49.626 +0200,77996.26158762501,-0.1848297119140625,-0.202117919921875,-0.964447021484375,77996.249044625,-2.872339744703289,-0.1931648728720873,0.2106872354689197,0.02652968093752861,-0.005066010169684887,-0.01048787496984005,7.286667823791504e-05,0.001882612705230713,0.0038490891456604,XArbitraryZVertical,-0.08098272290246862,-0.1165832588012617,-0.9822264585272731,0.1228060382420038,-0.187720999121666,-0.2091319859027863,-0.9597002863883972
2020-07-29 15:23:49.645 +0200,77996.28162362501,-0.1831817626953125,-0.2079315185546875,-0.9651641845703125,77996.269080625,-2.872436718477106,-0.1929574810022724,0.2116150429348053,0.04186869040131569,-0.003848146181553602,-0.005653476342558861,-0.001699060201644897,0.003043457865715027,-0.003959238529205322,XArbitraryZVertical,-0.08082024808773718,-0.1170209949186856,-0.982198534936543,0.1227199296743955,-0.1874846816062927,-0.2100391834974289,-0.9595483541488647
2020-07-29 15:23:49.665 +0200,77996.30165962501,-0.182708740234375,-0.2047119140625,-0.9615020751953125,77996.289116625,-2.872381380566297,-0.1933879908585302,0.2132167321225118,0.03481584042310715,-0.006487871520221233,-0.01480546779930592,0.0002890229225158691,-0.001240760087966919,-0.005079030990600586,XArbitraryZVertical,-0.08091394443831849,-0.1178339961999035,-0.9821042676504361,0.1226343731353094,-0.1878328621387482,-0.2116048783063889,-0.9591361880302429
2020-07-29 15:23:49.685 +0200,77996.32169562501,-0.1834869384765625,-0.213043212890625,-0.960418701171875,77996.30915262501,-2.872611766971962,-0.1934628736407713,0.213091753057754,0.03252152726054192,-0.002634543925523758,-0.01771341264247894,0.0008371919393539429,0.001859545707702637,-0.00140535831451416,XArbitraryZVertical,-0.08097321740202204,-0.1177680614662295,-0.9821211145769027,0.1225236654850822,-0.1879097670316696,-0.2114827334880829,-0.9591480493545532
2020-07-29 15:23:49.705 +0200,77996.341731625,-0.1870269775390625,-0.2186126708984375,-0.9569091796875,77996.32918862501,-2.87281271118064,-0.193605464393859,0.2128238854968882,0.03382381051778793,-0.001831867266446352,-0.02261438779532909,0.0002032220363616943,-0.006727471947669983,-0.0002938508987426758,XArbitraryZVertical,-0.08107419368258854,-0.1176374807015616,-0.9821399629431788,0.122431248739781,-0.1880574226379395,-0.2112209051847458,-0.959176778793335
2020-07-29 15:23:49.727 +0200,77996.361767625,-0.1841583251953125,-0.2209014892578125,-0.96221923828125,77996.34922462501,-2.872942159927105,-0.1935566374224314,0.2126059935942471,0.009021127596497536,0.0004925401881337166,-0.009003162384033203,-0.003373906016349792,-0.0125049501657486,0.003268718719482422,XArbitraryZVertical,-0.08107337706364473,-0.1175225429235723,-0.9821598712887533,0.122382467387571,-0.1880194395780563,-0.2110079377889633,-0.9592311382293701
2020-07-29 15:23:49.745 +0200,77996.381803625,-0.1824798583984375,-0.204681396484375,-0.9623870849609375,77996.36926062501,-2.873139716864969,-0.1931293889855123,0.2123833852272235,-0.012587895616889,-0.001181256957352161,-0.002141489880159497,-0.0008967965841293335,-0.01500634849071503,-0.00191795825958252,XArbitraryZVertical,-0.0808910303074897,-0.1173793841741467,-0.9821995340753399,0.1223227274026846,-0.1876185983419418,-0.2107903361320496,-0.9593574404716492
2020-07-29 15:23:49.765 +0200,77996.40184062501,-0.1833953857421875,-0.209503173828125,-0.962493896484375,77996.389296625,-2.873319907306307,-0.192570244830049,0.2120433725834704,0.01226166170090437,0.002072593197226524,-0.003795921802520752,0.0002711117267608643,0.0008891522884368896,-0.001914858818054199,XArbitraryZVertical,-0.08065123155183954,-0.1171714018432254,-0.9822486341978766,0.122285510474515,-0.1870958507061005,-0.2104579508304596,-0.9595324993133545
2020-07-29 15:23:49.785 +0200,77996.421876625,-0.1833648681640625,-0.1991424560546875,-0.968841552734375,77996.40933362501,-2.873395239222685,-0.1927006322000068,0.2129327782941241,-0.01267204992473125,-0.001437453087419271,-0.00560436025261879,-0.000557243824005127,-0.003083363175392151,-0.002225339412689209,XArbitraryZVertical,-0.08065633742719525,-0.1176119182299718,-0.9822071658259791,0.1221924482419856,-0.1871850490570068,-0.2113273441791534,-0.9593240022659302
2020-07-29 15:23:49.805 +0200,77996.441912625,-0.1826171875,-0.21234130859375,-0.9590301513671875,77996.42936962501,-2.873591456362799,-0.1924762540960494,0.2135590551011888,0.007786219473928213,-0.003076096065342426,-0.0080357501283288,-0.0007617175579071045,0.007875263690948486,-0.008659064769744873,XArbitraryZVertical,-0.08051309746808952,-0.1178970150577434,-0.9821993601501029,0.1220752149483774,-0.1869444251060486,-0.2119394391775131,-0.9592358469963074
2020-07-29 15:23:49.826 +0200,77996.461948625,-0.1824798583984375,-0.205352783203125,-0.9634552001953125,77996.44940562501,-2.8737304577311,-0.1925834619260236,0.2145348287268971,-0.002970421221107244,-0.0034723742865026,-0.005375480744987726,4.76837158203125e-05,-0.004392176866531372,0.0009340643882751465,XArbitraryZVertical,-0.08050450481527865,-0.118375817776712,-0.9821583034403611,0.1219474666378291,-0.1870075911283493,-0.2128929495811462,-0.9590123891830444
2020-07-29 15:23:49.845 +0200,77996.481984625,-0.1802215576171875,-0.216278076171875,-0.9619903564453125,77996.469441625,-2.873795207910721,-0.1926055811621734,0.2147757912140811,0.02204411849379539,-0.002652120776474476,-0.005679993890225887,0.0001961439847946167,0.002826303243637085,-0.003544270992279053,XArbitraryZVertical,-0.08050205068865351,-0.1184925584333218,-0.982150179916081,0.1219012357520948,-0.1870189905166626,-0.2131283730268478,-0.958957850933075
2020-07-29 15:23:49.865 +0200,77996.502020625,-0.181396484375,-0.213623046875,-0.9569091796875,77996.489477625,-2.873776562307753,-0.1928207053321327,0.2149846092259935,-0.008090081624686718,-0.004322455264627934,-0.0001107917632907629,0.002647578716278076,-0.007899731397628784,-0.002161383628845215,XArbitraryZVertical,-0.08059172128546419,-0.1186086742547672,-0.9821306984501801,0.121886268280329,-0.1872167438268661,-0.2133323848247528,-0.9588739275932312
2020-07-29 15:23:49.885 +0200,77996.52205662501,-0.184173583984375,-0.2111358642578125,-0.957489013671875,77996.509513625,-2.873788929286041,-0.1927027517127904,0.2138837113846163,-0.005946370773017406,0.002822007052600384,0.00550014665350318,0.001406028866767883,-0.006295382976531982,0.003165900707244873,XArbitraryZVertical,-0.0806128738349684,-0.1180618716390581,-0.9821872722095406,0.121947192824884,-0.1871485114097595,-0.2122567147016525,-0.9591259360313416
2020-07-29 15:23:49.905 +0200,77996.54209262501,-0.1878204345703125,-0.20599365234375,-0.9654693603515625,77996.529549625,-2.873704587436204,-0.192559487070186,0.2138472078930313,-0.001465735491365194,0.002725333906710148,0.005066241137683392,-0.001503810286521912,-0.003843039274215698,0.002619683742523193,XArbitraryZVertical,-0.08054013428908485,-0.1180386537640732,-0.9821896094693324,0.1219990663453168,-0.1870125830173492,-0.2122210413217545,-0.959160327911377
2020-07-29 15:23:49.926 +0200,77996.56212862501,-0.18743896484375,-0.2058563232421875,-0.9654083251953125,77996.54958562501,-2.873726140640089,-0.1924164652440105,0.2138540962969723,-0.004390019457787275,-0.0004512844607234001,-0.0004992708563804626,-0.005284935235977173,0.001305758953094482,-0.00533592700958252,XArbitraryZVertical,-0.08047068357462012,-0.1180324397193385,-0.9821963191204605,0.1219965283065966,-0.186875119805336,-0.2122277617454529,-0.9591856002807617
2020-07-29 15:23:49.961 +0200,77996.58216462501,-0.1846771240234375,-0.202484130859375,-0.96087646484375,77996.56962162501,-2.873971604981501,-0.191953760327942,0.2141199918200035,-0.01522335968911648,-0.008152080699801445,-0.007796104066073895,-0.005347520112991333,0.001696884632110596,-0.005244672298431396,XArbitraryZVertical,-0.08023902236943065,-0.1181245799174455,-0.982217609083575,0.1218888625502083,-0.1864205002784729,-0.21248759329319,-0.9592165946960449
2020-07-29 15:23:49.976 +0200,77996.60220162501,-0.1825714111328125,-0.2118682861328125,-0.9610443115234375,77996.58965762501,-2.874236581317243,-0.1919657228866342,0.214992334629589,0.01115378737449646,-0.002791403792798519,-0.01295928843319416,-0.002609074115753174,0.00590166449546814,-0.0008931159973144531,XArbitraryZVertical,-0.08019858286660751,-0.1185419006274861,-0.9821926954361706,0.1217106193932071,-0.1863965392112732,-0.2133399397134781,-0.9590319991111755
2020-07-29 15:23:49.986 +0200,77996.62223762501,-0.182159423828125,-0.213470458984375,-0.961456298828125,77996.609694625,-2.874338659281663,-0.1924230684255071,0.2159021905986656,0.002417819574475288,-0.001070735510438681,-0.01035106461495161,-0.0001112967729568481,-0.002614349126815796,-0.001330792903900146,XArbitraryZVertical,-0.08036459358770298,-0.1190111818725035,-0.9821381018972706,0.1215838430387327,-0.1867979317903519,-0.2142287641763687,-0.9587557315826416
2020-07-29 15:23:50.006 +0200,77996.64227362501,-0.187347412109375,-0.20947265625,-0.961578369140625,77996.62973062501,-2.874380641226088,-0.193084620352541,0.2156216332335676,-0.003579086624085903,0.002526129595935345,-0.0113239549100399,0.0009314566850662231,-0.004484176635742188,-0.001806139945983887,XArbitraryZVertical,-0.08071189399543041,-0.1189123193380688,-0.9821270909153165,0.1215391655724837,-0.1874436885118484,-0.2139547020196915,-0.958690881729126
2020-07-29 15:23:50.034 +0200,77996.66230962501,-0.1880340576171875,-0.2048187255859375,-0.9660186767578125,77996.64976662501,-2.87450733084929,-0.1935526651887239,0.2148724379932239,-0.004408261273056269,0.001180434599518776,-0.01138444803655148,-0.003788232803344727,-0.001201331615447998,-0.001860618591308594,XArbitraryZVertical,-0.08100246790951851,-0.1185687562333125,-0.9821508307204712,0.1214901463876774,-0.1879231482744217,-0.2132228016853333,-0.9587600827217102
2020-07-29 15:23:50.047 +0200,77996.682345625,-0.1836395263671875,-0.20245361328125,-0.962005615234375,77996.66980262501,-2.874697130088821,-0.1937368008061662,0.2140061243448487,0.003301589516922832,-0.0002787113189697266,-0.00960518978536129,-0.004267722368240356,0.002625837922096252,-0.006157994270324707,XArbitraryZVertical,-0.08116562189576983,-0.1181480028067919,-0.9821950696674264,0.1214334418911818,-0.1881351917982101,-0.2123763263225555,-0.9589064121246338
2020-07-29 15:23:50.066 +0200,77996.702381625,-0.18072509765625,-0.20794677734375,-0.9563140869140625,77996.68983862501,-2.874893718355177,-0.1933592540317655,0.2141671283803109,0.004249542020261288,0.00219962652772665,-0.006972616538405418,-0.0002331733703613281,0.005144700407981873,-0.002108454704284668,XArbitraryZVertical,-0.08098041010232296,-0.1181959720787769,-0.9822147952425391,0.1213503766944852,-0.1877665668725967,-0.2125336527824402,-0.958943784236908
2020-07-29 15:23:50.086 +0200,77996.722417625,-0.1850433349609375,-0.2064056396484375,-0.962066650390625,77996.709874625,-2.875019521136557,-0.1930037217697837,0.2150502427703015,-0.002847649622708559,-6.21965155005455e-05,-0.002590042538940907,0.002313017845153809,0.0004943907260894775,0.003467917442321777,XArbitraryZVertical,-0.08075064707665458,-0.1186018056609487,-0.9821958088441862,0.1212614360380107,-0.18738953769207,-0.2133965194225311,-0.9588258862495422
2020-07-29 15:23:50.105 +0200,77996.742453625,-0.1874237060546875,-0.2087860107421875,-0.9653167724609375,77996.729910625,-2.874974405133639,-0.1936321728224289,0.2154781698696255,0.005811085924506187,-0.002206840086728334,-0.004828961566090584,-0.001433849334716797,0.002443894743919373,-0.002487480640411377,XArbitraryZVertical,-0.08102625438723969,-0.1188512876112376,-0.9821477049407203,0.121222894322045,-0.1879744976758957,-0.2138145714998245,-0.9586182236671448
2020-07-29 15:23:50.125 +0200,77996.76248962501,-0.1854400634765625,-0.2073974609375,-0.9621124267578125,77996.749946625,-2.874941693114999,-0.1942558581476889,0.2151818541772645,0.01258283853530884,-4.38205897808075e-05,-0.003341966774314642,-0.003218293190002441,-0.0002192109823226929,-0.005791604518890381,XArbitraryZVertical,-0.08135160639144146,-0.1187453205714046,-0.9821341587686627,0.1212181290492623,-0.1885845512151718,-0.2135250866413116,-0.9585629105567932
2020-07-29 15:23:50.146 +0200,77996.78252562501,-0.18365478515625,-0.2151947021484375,-0.9599609375,77996.769982625,-2.875058277194691,-0.1941499029977077,0.2145555914377066,0.01065071485936642,-0.001466747839003801,-0.002668757690116763,-0.001308709383010864,0.0005716681480407715,-0.002439796924591064,XArbitraryZVertical,-0.08135089108727755,-0.1184274763049792,-0.982174670802606,0.1212015275537363,-0.1885087490081787,-0.2129132300615311,-0.9587139487266541
2020-07-29 15:23:50.166 +0200,77996.802562625,-0.1834716796875,-0.2128143310546875,-0.9608154296875,77996.790018625,-2.875055812190335,-0.1937519113159408,0.2143323288930822,-0.0009438889101147652,0.0008581923320889473,0.006999315693974495,0.0001127868890762329,-0.007438674569129944,-0.0001695156097412109,XArbitraryZVertical,-0.08117111774437788,-0.1182941178461493,-0.9822010573566275,0.1212385261954382,-0.1881363242864609,-0.2126950770616531,-0.9588354825973511
2020-07-29 15:23:50.186 +0200,77996.822598625,-0.1862640380859375,-0.2222900390625,-0.9558563232421875,77996.810055625,-2.874833372011103,-0.1936579818794841,0.2142866998593756,0.007120296359062195,-0.00187660800293088,0.01226229220628738,0.0002097338438034058,-0.005101814866065979,-0.0009974837303161621,XArbitraryZVertical,-0.08111506526795899,-0.1182750974659983,-0.9821935215157023,0.1213558309126502,-0.1880481243133545,-0.2126504927873611,-0.9588627219200134
2020-07-29 15:23:50.206 +0200,77996.84263462501,-0.18634033203125,-0.2164764404296875,-0.9580841064453125,77996.830091625,-2.874315293604788,-0.1945088836227634,0.2138437470229665,-0.01512482203543186,0.009221050888299942,0.02578597702085972,-0.001767948269844055,-0.01500032842159271,0.003895163536071777,XArbitraryZVertical,-0.08153375666152539,-0.1181309245233934,-0.9821479688808934,0.1215842486797546,-0.1888821423053741,-0.2122176587581635,-0.9587946534156799
2020-07-29 15:23:50.226 +0200,77996.86267062501,-0.183929443359375,-0.218231201171875,-0.9593658447265625,77996.850127625,-2.873652826394888,-0.1949826956121065,0.2132620153537111,-0.01418658904731274,0.008448466658592224,0.02956800907850266,-0.001377135515213013,-0.00974196195602417,0.001698017120361328,XArbitraryZVertical,-0.08176872164230545,-0.117901946321243,-0.9821151480456023,0.1219135970743465,-0.1893603056669235,-0.2116491347551346,-0.9588260054588318
2020-07-29 15:23:50.246 +0200,77996.88270662501,-0.18280029296875,-0.213470458984375,-0.9586334228515625,77996.870163625,-2.873131006801307,-0.1948913937278997,0.2133748958886839,-0.03913614898920059,0.006067068316042423,0.03403283655643463,0.0009437501430511475,-0.01138892769813538,0.0004102587699890137,XArbitraryZVertical,-0.08168507360434271,-0.1179729750300447,-0.9820818092396494,0.12216899436872,-0.1892681270837784,-0.2117594629526138,-0.9588198661804199
2020-07-29 15:23:50.266 +0200,77996.90274262501,-0.182952880859375,-0.2011566162109375,-0.9645538330078125,77996.89019962501,-2.872598807379131,-0.1946398457799101,0.2131255981434031,-0.05213703215122223,0.005148278549313545,0.0364915058016777,0.001847341656684875,-0.006866082549095154,0.001239657402038574,XArbitraryZVertical,-0.08154798218892298,-0.1178572424482963,-0.9820709720916247,0.122458855276722,-0.1890371441841125,-0.2115158140659332,-0.9589191675186157
2020-07-29 15:23:50.286 +0200,77996.922778625,-0.1808624267578125,-0.208953857421875,-0.969146728515625,77996.91023562501,-2.872101486318139,-0.1945595125947121,0.2130351623315154,-0.03653863072395325,0.01281179115176201,0.03139421343803406,0.001623153686523438,0.005361422896385193,-0.004647552967071533,XArbitraryZVertical,-0.0814856995818858,-0.1178283051037849,-0.9820479430481656,0.1227127688069,-0.1889638006687164,-0.2114274203777313,-0.9589531421661377
2020-07-29 15:23:50.306 +0200,77996.942814625,-0.1816253662109375,-0.1918487548828125,-0.9646148681640625,77996.93027162501,-2.871621319294168,-0.1947794055579891,0.2129056064749857,-0.04910755529999733,0.009196816012263298,0.02460440993309021,0.003924787044525146,-0.002559453248977661,-0.009254872798919678,XArbitraryZVertical,-0.08157467180837435,-0.11779795274187,-0.9820154061676085,0.1229426948965976,-0.1891799718141556,-0.211300790309906,-0.9589384198188782
2020-07-29 15:23:50.326 +0200,77996.962850625,-0.1819610595703125,-0.2125091552734375,-0.9529876708984375,77996.95030762501,-2.871189203913308,-0.1946567701175416,0.2131916868294154,-0.009159741923213005,0.01011587306857109,0.02500342577695847,0.003035560250282288,0.01481877267360687,-0.004758298397064209,XArbitraryZVertical,-0.08146845888632574,-0.1179480869047561,-0.9819806975810579,0.1231463589001777,-0.1890506595373154,-0.2115803956985474,-0.9589022994041443
2020-07-29 15:23:50.347 +0200,77996.982886625,-0.182342529296875,-0.210235595703125,-0.9611663818359375,77996.970343625,-2.870799471434653,-0.194309057091397,0.2133499584279117,-0.04853923618793488,0.01111615635454655,0.03132778778672218,0.002367883920669556,-0.005690455436706543,0.006900906562805176,XArbitraryZVertical,-0.0812633715691541,-0.1180200033888822,-0.9819635516444396,0.1233495243024033,-0.1887107640504837,-0.2117350846529007,-0.9589350819587708
2020-07-29 15:23:50.366 +0200,77997.002922625,-0.1905059814453125,-0.1965789794921875,-0.9805908203125,77996.990379625,-2.870482064826095,-0.19362770769963,0.2118836351086493,-0.05875206366181374,0.01327171921730042,0.0320720262825489,0.001406371593475342,-0.004816889762878418,-0.0008558034896850586,XArbitraryZVertical,-0.08101562364449336,-0.1172728817492869,-0.9820387684627087,0.1236258484745846,-0.1881168782711029,-0.2103017866611481,-0.9593670964241028
2020-07-29 15:23:50.386 +0200,77997.022959625,-0.19183349609375,-0.2000885009765625,-0.964202880859375,77997.01041662501,-2.87030842046261,-0.1927006943578127,0.2109820017554797,-0.03637232258915901,0.005831112153828144,0.02278813160955906,-0.007590427994728088,0.007978662848472595,-0.01992893218994141,XArbitraryZVertical,-0.08061512999253097,-0.116781057494139,-0.9821065666217876,0.1238145965328899,-0.187263697385788,-0.20942023396492,-0.9597267508506775
2020-07-29 15:23:50.407 +0200,77997.042995625,-0.184051513671875,-0.2059173583984375,-0.94439697265625,77997.03045262501,-2.870226068736794,-0.1922231686971294,0.2094732220299132,-0.03096929751336575,0.01101442240178585,0.01110861077904701,-0.009306848049163818,0.003027856349945068,-0.003151893615722656,XArbitraryZVertical,-0.08048436858640776,-0.116015928904772,-0.982189006622043,0.1239649044305144,-0.1868655383586884,-0.2079446613788605,-0.9601251482963562
2020-07-29 15:23:50.427 +0200,77997.063031625,-0.1779937744140625,-0.2016448974609375,-0.966400146484375,77997.050488625,-2.870222575050105,-0.1918819404211463,0.2093466596845156,-0.05386010184884071,0.01046634465456009,0.01099926885217428,-0.001839980483055115,-0.002921909093856812,0.01674151420593262,XArbitraryZVertical,-0.0803256898347835,-0.1159329325426896,-0.9822082263125791,0.1239932813192067,-0.1865429133176804,-0.207820862531662,-0.9602146744728088
2020-07-29 15:23:50.447 +0200,77997.083067625,-0.1808013916015625,-0.210479736328125,-0.9777374267578125,77997.070524625,-2.870258532849439,-0.1918365151028248,0.2092960102033664,-0.03360755741596222,0.005952286534011364,0.0009251399897038937,0.004177138209342957,0.001302182674407959,-0.005243301391601562,XArbitraryZVertical,-0.08030910298573553,-0.1159038630531796,-0.9822146012203525,0.1239810186848236,-0.1865013092756271,-0.2077713310718536,-0.9602335095405579
2020-07-29 15:23:50.466 +0200,77997.10310362501,-0.178924560546875,-0.1957550048828125,-0.97003173828125,77997.090560625,-2.870352738539728,-0.1920372942544492,0.2077175615218308,-0.04876786842942238,0.004610585980117321,0.003780048806220293,0.00161878764629364,-0.009041011333465576,-0.01630395650863647,XArbitraryZVertical,-0.08052661447918957,-0.1151394430687138,-0.9822831316008376,0.1240087028520828,-0.1867564618587494,-0.2062270641326904,-0.9605167508125305
2020-07-29 15:23:50.486 +0200,77997.12313962501,-0.180328369140625,-0.1883392333984375,-0.962310791015625,77997.110596625,-2.870268158722335,-0.1928020829643179,0.2067192392942076,-0.02770053595304489,0.002660352736711502,0.001698978478088975,0.004251539707183838,0.004729419946670532,-0.008541107177734375,XArbitraryZVertical,-0.08096911039081585,-0.1147013047842223,-0.9822915243084966,0.1240605250259529,-0.1875303536653519,-0.2052500993013382,-0.9605752229690552
2020-07-29 15:23:50.506 +0200,77997.14317562501,-0.17779541015625,-0.1824798583984375,-0.9644317626953125,77997.13063262501,-2.870226637612898,-0.1933533733930553,0.2063688726768941,-0.03736594319343567,-0.0008086804300546646,0.006151593755930662,0.003378480672836304,0.01181027293205261,-0.0008524060249328613,XArbitraryZVertical,-0.08126267575150944,-0.1145655764503269,-0.9822821358455223,0.1240683959756397,-0.1880736798048019,-0.2049071788787842,-0.9605422019958496
2020-07-29 15:23:50.535 +0200,77997.16321162501,-0.180511474609375,-0.1943359375,-0.9695587158203125,77997.15066862501,-2.87038959508095,-0.1929157294161373,0.2062318143490146,-0.01454917993396521,0.007255903445184231,0.003662831615656614,0.005506068468093872,0.01753860712051392,-0.002866148948669434,XArbitraryZVertical,-0.0810669047329762,-0.1144646859385572,-0.9823160893536278,0.1240208865791358,-0.1876586675643921,-0.204773023724556,-0.9606519937515259
2020-07-29 15:23:50.547 +0200,77997.183247625,-0.181915283203125,-0.1893463134765625,-0.969940185546875,77997.17070462501,-2.870391712084533,-0.1921878454545135,0.2064485722965899,-0.01550698466598988,0.006269735284149647,0.01240667421370745,0.002098739147186279,0.005889832973480225,-0.007902562618255615,XArbitraryZVertical,-0.08069395620067489,-0.1145256394502327,-0.9823359711219248,0.1240497119556299,-0.1869508922100067,-0.204985186457634,-0.9607447385787964
2020-07-29 15:23:50.567 +0200,77997.203283625,-0.1837158203125,-0.18682861328125,-0.9664154052734375,77997.19074062501,-2.870258042757006,-0.1915981220449423,0.2062573704599951,-0.003505051136016846,0.003206833265721798,0.01700557395815849,0.000148773193359375,0.01069667935371399,-0.008138954639434814,XArbitraryZVertical,-0.08041037657462836,-0.1144007658308531,-0.9823599639451854,0.1241594942179243,-0.18639175593853,-0.2047980427742004,-0.9608932733535767
2020-07-29 15:23:50.587 +0200,77997.22332062501,-0.185760498046875,-0.180999755859375,-0.9680633544921875,77997.210777625,-2.869929580414982,-0.1914901262075222,0.2052681924225985,0.009476261213421822,0.002124258317053318,0.01838041096925735,-0.001715540885925293,0.0122685581445694,-0.004400670528411865,XArbitraryZVertical,-0.08040967214636306,-0.1139227071820765,-0.9823876005636678,0.1243804387256472,-0.1863264441490173,-0.2038297355175018,-0.9611117839813232
2020-07-29 15:23:50.607 +0200,77997.24335662501,-0.1873016357421875,-0.19305419921875,-0.968963623046875,77997.23081362501,-2.869533285758907,-0.1912705929930955,0.2047651946125486,0.02581249177455902,0.004691013135015965,0.01877950504422188,-0.003947257995605469,0.01761643588542938,-0.005910515785217285,XArbitraryZVertical,-0.08031547314255945,-0.1136785618131561,-0.9823938902508009,0.1246147402914841,-0.1861349046230316,-0.2033372670412064,-0.9612532258033752
2020-07-29 15:23:50.627 +0200,77997.263392625,-0.1856689453125,-0.2012481689453125,-0.9647674560546875,77997.25084962501,-2.869201511493978,-0.191010322469472,0.204216961291266,0.01390043832361698,0.00367368571460247,0.01554357260465622,-0.005712121725082397,0.005037680268287659,-0.0066567063331604,XArbitraryZVertical,-0.08020826992584157,-0.1134070775817281,-0.9824077135993401,0.1248220456515131,-0.185905858874321,-0.202800452709198,-0.9614109396934509
2020-07-29 15:23:50.647 +0200,77997.283428625,-0.18377685546875,-0.1975250244140625,-0.9611358642578125,77997.27088562501,-2.868832400286311,-0.1909196711290328,0.2036260878289023,0.0148321446031332,0.005162392742931843,0.01266762614250183,-0.004142358899116516,-0.003721475601196289,-0.002329349517822266,XArbitraryZVertical,-0.08018542445161064,-0.1131267521890622,-0.9824141660673431,0.125040327252012,-0.1858414113521576,-0.2022218257188797,-0.9615452885627747
2020-07-29 15:23:50.667 +0200,77997.303464625,-0.18243408203125,-0.207916259765625,-0.9637451171875,77997.29092162501,-2.868439577994198,-0.1909942408285971,0.2032025907652336,0.02637162059545517,0.003976487554609776,0.01649530977010727,-0.002164348959922791,-0.0004034489393234253,0.001370728015899658,XArbitraryZVertical,-0.08023041100842929,-0.1129397042436508,-0.9824050832761022,0.1252518844503294,-0.1859293431043625,-0.201807051897049,-0.9616153836250305
2020-07-29 15:23:50.687 +0200,77997.323500625,-0.175628662109375,-0.201568603515625,-0.9619598388671875,77997.310957625,-2.868120942087478,-0.1910582259406606,0.2024736053414785,0.006520418915897608,0.00114208459854126,0.01364987529814243,-0.0007341951131820679,-0.01149208843708038,-0.001109302043914795,XArbitraryZVertical,-0.08029654522900115,-0.1125993870115583,-0.9824141466060463,0.125444020645459,-0.1860187649726868,-0.2010930180549622,-0.9617477059364319
2020-07-29 15:23:50.707 +0200,77997.34353662501,-0.17822265625,-0.1996917724609375,-0.9654388427734375,77997.330993625,-2.867839738622614,-0.1914705981525104,0.2017299410971116,-0.001590237952768803,6.350502371788025e-05,0.005909321829676628,0.006486326456069946,-0.00585608184337616,0.0007441043853759766,XArbitraryZVertical,-0.08053705735269311,-0.1122722517663544,-0.9824121648994858,0.1255990867740842,-0.1864437609910965,-0.2003644853830338,-0.9618174433708191
2020-07-29 15:23:50.727 +0200,77997.36357262501,-0.183258056640625,-0.193939208984375,-0.969512939453125,77997.351029625,-2.867566274668728,-0.1920994349719239,0.2021852518433214,0.003064834512770176,0.001101871021091938,0.007781980559229851,0.004466086626052856,-0.003543511033058167,-0.002937197685241699,XArbitraryZVertical,-0.08079760984142548,-0.1125458274625167,-0.9823499627624209,0.1256734688220275,-0.1870311051607132,-0.2008105516433716,-0.9616103768348694
2020-07-29 15:23:50.747 +0200,77997.38360862501,-0.1867218017578125,-0.2005767822265625,-0.9618072509765625,77997.371065625,-2.867307135204052,-0.1925149182828935,0.2030501369384921,0.01319829560816288,-0.001309354789555073,0.001167373266071081,-0.0002115815877914429,0.003036603331565857,-0.007254123687744141,XArbitraryZVertical,-0.08092439353121436,-0.1130060702135753,-0.9822793428137018,0.1257304292966577,-0.1873973309993744,-0.2016577422618866,-0.9613617658615112
2020-07-29 15:23:50.767 +0200,77997.40364462501,-0.1865386962890625,-0.1943511962890625,-0.9651641845703125,77997.39110162501,-2.867254073508299,-0.192511366135547,0.2039981957299003,0.001113269943743944,-0.0008070827461779118,-0.0019639334641397,-0.003714472055435181,-0.002694040536880493,0.0002685189247131348,XArbitraryZVertical,-0.08085087463588864,-0.1134723406089289,-0.9822349253518197,0.1257052670356961,-0.1873572468757629,-0.2025862336158752,-0.9611743092536926
2020-07-29 15:23:50.787 +0200,77997.423681625,-0.1815032958984375,-0.202423095703125,-0.9676513671875,77997.41113762501,-2.867356438848339,-0.1918414594776787,0.2048684923621837,0.01941717602312565,-0.001783131156116724,-0.0006898770807310939,-0.004193201661109924,0.004364013671875,-0.003135502338409424,XArbitraryZVertical,-0.08046457111167593,-0.1138523757900258,-0.9822301966948161,0.1256458495082883,-0.1866796165704727,-0.203438401222229,-0.9611262083053589
2020-07-29 15:23:50.807 +0200,77997.44371762501,-0.1820068359375,-0.19384765625,-0.959930419921875,77997.431174625,-2.867625782847811,-0.1910316810799974,0.2050266025295231,0.00222900090739131,-0.002865439746528864,-0.01321780495345592,7.593631744384766e-05,-0.003556698560714722,-0.005506157875061035,XArbitraryZVertical,-0.08007073574360087,-0.1138681486351417,-0.9822727129687152,0.1255511457645688,-0.1858951449394226,-0.2035932093858719,-0.9612454175949097
2020-07-29 15:23:50.827 +0200,77997.46375362501,-0.1813812255859375,-0.2019195556640625,-0.9614410400390625,77997.451210625,-2.867862234115229,-0.1908062660641742,0.2045201393324968,0.004499212838709354,-0.00589425303041935,-0.009544164873659611,-0.0006201863288879395,0.00453437864780426,0.002354443073272705,XArbitraryZVertical,-0.08001014069942659,-0.113596464146732,-0.9823188246393081,0.1254751365523809,-0.185698002576828,-0.203097328543663,-0.9613884687423706
2020-07-29 15:23:50.847 +0200,77997.48378962501,-0.1823272705078125,-0.197265625,-0.965728759765625,77997.47124662501,-2.867957950022846,-0.1916562124773492,0.2044887796714267,-0.001755087170749903,-0.001252097077667713,-0.009173681028187275,0.0008047521114349365,-0.00356745719909668,0.0006954073905944824,XArbitraryZVertical,-0.08043530348577399,-0.1136305699260571,-0.9822920876749799,0.1253815252196445,-0.1865162700414658,-0.2030666172504425,-0.9612365365028381
2020-07-29 15:23:50.867 +0200,77997.50382562501,-0.1818389892578125,-0.2063446044921875,-0.9621124267578125,77997.49128262501,-2.867925491918537,-0.192261123083789,0.2041455818733028,0.006738265976309776,0.002598834224045277,-0.002924992004409432,0.0004396438598632812,0.0007581859827041626,-0.003635883331298828,XArbitraryZVertical,-0.08075539630911396,-0.1135016985410535,-0.9822807007814482,0.1253816998118569,-0.1871110051870346,-0.2027305513620377,-0.9611918330192566
2020-07-29 15:23:50.887 +0200,77997.523861625,-0.1833343505859375,-0.1883087158203125,-0.9713592529296875,77997.51131862501,-2.867991427385844,-0.1920418594632884,0.2047062149795311,-0.01537116430699825,-0.0008733952417969704,0.002446983940899372,0.000700831413269043,-0.007784575223922729,-8.863210678100586e-05,XArbitraryZVertical,-0.08061087793831978,-0.1137598948263565,-0.9822691251757607,0.1253313919069956,-0.1868785321712494,-0.2032795250415802,-0.961121141910553
2020-07-29 15:23:50.907 +0200,77997.543897625,-0.18292236328125,-0.1934051513671875,-0.9650115966796875,77997.53135462501,-2.867972723900452,-0.1918577216084477,0.2039129233398964,0.01405197195708752,0.003829214721918106,-0.0007674131775274873,-0.0009374320507049561,0.009492561221122742,-0.009147524833679199,XArbitraryZVertical,-0.0805767838059888,-0.1133605441655374,-0.9823100869186822,0.1253939754248256,-0.1867322325706482,-0.2025027275085449,-0.9613135457038879
2020-07-29 15:23:50.927 +0200,77997.563933625,-0.1837158203125,-0.1967620849609375,-0.9619598388671875,77997.551390625,-2.868017202324674,-0.1917758890589902,0.2049421416454038,0.006850917357951403,-9.415484964847565e-05,-0.007675995118916035,-0.0006411373615264893,0.005380555987358093,-0.002985298633575439,XArbitraryZVertical,-0.08046464805892548,-0.113857750325796,-0.9822710571245495,0.1253210778194784,-0.1866137385368347,-0.203510507941246,-0.9611237049102783
2020-07-29 15:23:50.947 +0200,77997.583969625,-0.1821136474609375,-0.2055206298828125,-0.9602508544921875,77997.571426625,-2.868224065415088,-0.1915410470371093,0.2042550900591679,-0.002333925571292639,-0.00887646060436964,-0.01058797165751457,-0.001629158854484558,0.001366466283798218,0.000243067741394043,XArbitraryZVertical,-0.08041075032689211,-0.1134981837461648,-0.9823236531923397,0.125270002214576,-0.1864145994186401,-0.2028377950191498,-0.9613045454025269
2020-07-29 15:23:50.967 +0200,77997.60400562501,-0.181488037109375,-0.205047607421875,-0.960723876953125,77997.591462625,-2.868458772424438,-0.1915381006612954,0.2050580700018682,0.002555771265178919,-0.001485656015574932,-0.008700018748641014,-6.005167961120605e-05,-0.006624042987823486,0.001796126365661621,XArbitraryZVertical,-0.08036461606147839,-0.1138818896193185,-0.982303184971287,0.1251114801388948,-0.1863806992769241,-0.2036240100860596,-0.9611448645591736
2020-07-29 15:23:50.988 +0200,77997.62404162501,-0.180694580078125,-0.19805908203125,-0.966827392578125,77997.611498625,-2.868512248547558,-0.1915573316630269,0.204394424213565,-0.004274171311408281,0.003455572761595249,-0.005111029371619225,0.0006087124347686768,-0.006785720586776733,0.001448988914489746,XArbitraryZVertical,-0.08042504293805515,-0.1135558698647638,-0.9823348982623794,0.1251199876127573,-0.1864248663187027,-0.2029742300510406,-0.961273729801178
2020-07-29 15:23:51.008 +0200,77997.644078625,-0.183013916015625,-0.19561767578125,-0.968048095703125,77997.631534625,-2.868562391735082,-0.191602694766763,0.2033863055072997,-0.001012998167425394,-0.002471025567501783,0.002562603447586298,0.001482725143432617,-0.0007615089416503906,-0.00446707010269165,XArbitraryZVertical,-0.08052295796642776,-0.1130628568328788,-0.9823802981831968,0.1251472642120866,-0.1865073442459106,-0.2019869834184647,-0.9614657163619995
2020-07-29 15:23:51.034 +0200,77997.664114625,-0.1851043701171875,-0.1868133544921875,-0.9658050537109375,77997.651571625,-2.868443161633191,-0.1921558301020301,0.2029010664249454,0.001793175004422665,0.002251025289297104,-0.001904430566355586,-0.0002988278865814209,0.001215726137161255,-0.005694866180419922,XArbitraryZVertical,-0.08082295858990092,-0.1128645852912986,-0.982371614490577,0.1252008158595302,-0.187057837843895,-0.2015117257833481,-0.9614584445953369
2020-07-29 15:23:51.048 +0200,77997.68415062501,-0.1837005615234375,-0.194915771484375,-0.9634246826171875,77997.671607625,-2.868336171727978,-0.1922471818251785,0.2041359762203776,0.03064652718603611,0.003073675557971001,0.001433955738320947,-0.002350091934204102,0.01120138168334961,-0.003707826137542725,XArbitraryZVertical,-0.08077254900695284,-0.1134795370024434,-0.9823074005048367,0.1251813035669554,-0.1870979815721512,-0.2027211487293243,-0.9611963629722595
2020-07-29 15:23:51.068 +0200,77997.70418662501,-0.1820068359375,-0.2006988525390625,-0.966400146484375,77997.691643625,-2.868250822817687,-0.1922566629598163,0.2053813337568408,0.01807907223701477,0.002825468778610229,-0.002823525574058294,-0.0009846538305282593,0.004289984703063965,-0.001571953296661377,XArbitraryZVertical,-0.08068230414044397,-0.114093551033668,-0.9822470577488678,0.1251551733605515,-0.1870587021112442,-0.2039404958486557,-0.9609460830688477
2020-07-29 15:23:51.088 +0200,77997.72422262501,-0.1827392578125,-0.2048797607421875,-0.9663238525390625,77997.711679625,-2.868313162875848,-0.191819966374468,0.2058412411549362,0.01435117796063423,0.0006161108613014221,-0.004246034193783998,0.0002816766500473022,-0.001053318381309509,-0.00455772876739502,XArbitraryZVertical,-0.08043813367794984,-0.1142889720837231,-0.9822482525678189,0.125124559356932,-0.1866211444139481,-0.2043907195329666,-0.9609354734420776
2020-07-29 15:23:51.108 +0200,77997.74425862501,-0.18109130859375,-0.20281982421875,-0.95587158203125,77997.73171562501,-2.868345846302114,-0.1916979068052009,0.2054132093681557,0.01598848961293697,-0.00181935029104352,-0.004488990642130375,-0.0005490034818649292,-0.005643442273139954,-0.0043753981590271,XArbitraryZVertical,-0.0804110012648762,-0.1140703763491845,-0.9822740692483178,0.1251386347172429,-0.1865205019712448,-0.2039716988801956,-0.9610440135002136
2020-07-29 15:23:51.128 +0200,77997.764294625,-0.1823883056640625,-0.2082366943359375,-0.9623870849609375,77997.75175162501,-2.868284974106794,-0.1918774269721862,0.2048913890033668,0.009850569069385529,0.0001252898946404457,0.002339354250580072,0.001287326216697693,-0.004082471132278442,0.006146073341369629,XArbitraryZVertical,-0.08053342568308999,-0.1138284690305129,-0.9822860100239834,0.125186549908909,-0.186713308095932,-0.2034608274698257,-0.9611148834228516
2020-07-29 15:23:51.148 +0200,77997.784330625,-0.1827392578125,-0.1977386474609375,-0.968017578125,77997.77178762501,-2.868167221815444,-0.1921409295233197,0.2040053231678741,-0.01531803421676159,-0.003353064879775047,0.0005580040160566568,0.0002712905406951904,-0.01034677028656006,-0.0002450346946716309,XArbitraryZVertical,-0.08072021588601561,-0.1134157008307431,-0.982306904353111,0.1252774269133627,-0.1870009005069733,-0.202593207359314,-0.9612422585487366
2020-07-29 15:23:51.168 +0200,77997.804366625,-0.18292236328125,-0.1925048828125,-0.9636077880859375,77997.79182362501,-2.868076722269898,-0.1922423184196474,0.2039805474745524,0.01205579936504364,0.005752815864980221,0.001854811562225223,1.648068428039551e-05,0.0001275986433029175,-0.005889296531677246,XArbitraryZVertical,-0.0807666840382891,-0.1134135796049341,-0.9822981286187804,0.125317426054807,-0.1870993226766586,-0.2025689482688904,-0.9612281918525696
2020-07-29 15:23:51.188 +0200,77997.824402625,-0.18194580078125,-0.20074462890625,-0.9634857177734375,77997.811859625,-2.868135318286641,-0.1917214686925519,0.2048430130257321,0.01672392152249813,-0.0006038835272192955,-0.007027439773082733,-0.0006882250308990479,0.00618627667427063,-0.001552283763885498,XArbitraryZVertical,-0.08045180456529472,-0.1138010277238875,-0.9822850858487011,0.1252715654322009,-0.1865652799606323,-0.2034134566783905,-0.9611536860466003
2020-07-29 15:23:51.208 +0200,77997.844439625,-0.181640625,-0.2049102783203125,-0.96630859375,77997.831895625,-2.868203070819516,-0.1918148060613391,0.2057895628732807,-0.007520032580941916,0.001553276553750038,-0.00699441647157073,0.0003400444984436035,-0.0011482834815979,-0.001632273197174072,XArbitraryZVertical,-0.08043304631395516,-0.1142677657591885,-0.9822438524542569,0.1251817209995153,-0.1866182088851929,-0.2043401300907135,-0.960946798324585
2020-07-29 15:23:51.228 +0200,77997.86447487501,-0.183563232421875,-0.2021331787109375,-0.9669342041015625,77997.85193087501,-2.868292745465986,-0.1918272353893233,0.2066022770768712,-0.0002883519046008587,0.0005346182733774185,-0.001815785304643214,0.0006258934736251831,-0.004536896944046021,-0.004616975784301758,XArbitraryZVertical,-0.08038549721587657,-0.1146629821650449,-0.9822129986280845,0.1250929513822643,-0.1865984201431274,-0.2051356285810471,-0.9607811570167542
2020-07-29 15:23:51.248 +0200,77997.88451087501,-0.1818084716796875,-0.202392578125,-0.96307373046875,77997.87196787501,-2.868281502548373,-0.1917207551341727,0.206874884873148,0.01296793203800917,0.002090969122946262,-0.00194856314919889,-0.001407012343406677,-0.001499131321907043,-0.005276858806610107,XArbitraryZVertical,-0.08031284142822619,-0.1147902863615914,-0.9822044678417831,0.1250898127298941,-0.1864854544401169,-0.2054024338722229,-0.9607460498809814
2020-07-29 15:23:51.268 +0200,77997.90454687501,-0.1829681396484375,-0.2037506103515625,-0.959320068359375,77997.89200387501,-2.868286534786108,-0.1916747830349781,0.2061187340600908,0.01139839738607407,0.005105401389300823,0.001872806344181299,0.0003334581851959229,-0.002481415867805481,-0.001259326934814453,XArbitraryZVertical,-0.0803452454365589,-0.1144168729754957,-0.9822401248637732,0.1251309018283921,-0.1864708214998245,-0.2046623378992081,-0.9609068632125854
2020-07-29 15:23:51.288 +0200,77997.924582875,-0.18206787109375,-0.20819091796875,-0.96514892578125,77997.91203987501,-2.868294969042956,-0.191417113311394,0.2061003316177465,-0.01017986424267292,0.0007873522117733955,0.003150515491142869,-0.00106734037399292,-0.003857031464576721,0.002544820308685303,XArbitraryZVertical,-0.08022050785020463,-0.1143913965361149,-0.9822518387002648,0.1251425070986657,-0.1862239390611649,-0.2046443223953247,-0.9609585404396057
2020-07-29 15:23:51.308 +0200,77997.944618875,-0.1806640625,-0.1949920654296875,-0.9664154052734375,77997.93207587501,-2.868312571338407,-0.1913840437582451,0.2065989281595627,-0.003102513961493969,0.003781810402870178,0.002048156689852476,-0.0002170950174331665,-0.007820665836334229,-0.003376007080078125,XArbitraryZVertical,-0.08016922271247336,-0.1146328270158095,-0.9822321483606947,0.1251087888043731,-0.1861727237701416,-0.2051323503255844,-0.9608644247055054
2020-07-29 15:23:51.328 +0200,77997.964654875,-0.1833343505859375,-0.195648193359375,-0.96197509765625,77997.952111875,-2.868143147016815,-0.1918906063081104,0.2068378469777792,0.007433483842760324,-0.001084584277123213,0.003191337455064058,0.001652985811233521,0.005606591701507568,-0.004781723022460938,XArbitraryZVertical,-0.08039099408053507,-0.1147883314260558,-0.9821906336303958,0.1251500171924526,-0.1866500824689865,-0.2053661793470383,-0.9607218503952026
2020-07-29 15:23:51.348 +0200,77997.984690875,-0.1834869384765625,-0.1917572021484375,-0.9637603759765625,77997.972147875,-2.868170371066687,-0.1917516339972396,0.2076150462873068,0.002814763225615025,0.004517109133303165,-0.00197812425903976,-0.001177459955215454,0.005693405866622925,-0.0004694461822509766,XArbitraryZVertical,-0.08026805997452111,-0.115159166758241,-0.9821633413759203,0.1251025208345865,-0.1864860951900482,-0.2061267495155334,-0.9605908393859863
2020-07-29 15:23:51.368 +0200,77998.00472687501,-0.1852569580078125,-0.20745849609375,-0.9680023193359375,77997.992183875,-2.868146598155433,-0.1914755910933033,0.2084023861678595,0.01881290413439274,0.00322334561496973,0.001184303546324372,-0.001619189977645874,0.01033699512481689,-0.002360403537750244,XArbitraryZVertical,-0.08007414860362203,-0.1155284395905708,-0.9821376357375127,0.1250874260255516,-0.1861899793148041,-0.2068971246480942,-0.9604825973510742
2020-07-29 15:23:51.388 +0200,77998.02476287501,-0.181060791015625,-0.20733642578125,-0.9604034423828125,77998.012219875,-2.868156586095084,-0.1914263356874567,0.2093334341782057,0.001454021316021681,-0.001610558480024338,0.0002098910044878721,-0.003471300005912781,-0.004474624991416931,-0.006778478622436523,XArbitraryZVertical,-0.0799831232352774,-0.1159808892042108,-0.9820984695702206,0.125034977137029,-0.1861059367656708,-0.2078079283237457,-0.9603022933006287
2020-07-29 15:23:51.408 +0200,77998.04479887501,-0.1822967529296875,-0.203399658203125,-0.9566802978515625,77998.032255875,-2.868105712810101,-0.1914628859191614,0.2084810883072222,-0.01068866066634655,-0.004801025614142418,0.006818372756242752,0.0007920712232589722,-0.005166977643966675,0.0009832382202148438,XArbitraryZVertical,-0.08005984383934636,-0.1155678184146945,-0.982132108772649,0.1251039977983621,-0.186174675822258,-0.2069741189479828,-0.9604690074920654
2020-07-29 15:23:51.428 +0200,77998.064835875,-0.1825714111328125,-0.2072601318359375,-0.962493896484375,77998.05229187501,-2.868017011910171,-0.1917651880695578,0.2073046481690576,-0.01731007918715477,-0.003065975848585367,0.005692349746823311,-0.0001150965690612793,-0.002354562282562256,0.004884183406829834,XArbitraryZVertical,-0.08028836712838566,-0.1150141629171458,-0.9821669912762445,0.125193854431674,-0.1865113079547882,-0.2058230042457581,-0.9606510400772095
2020-07-29 15:23:51.448 +0200,77998.08487187501,-0.1846923828125,-0.1969451904296875,-0.9604644775390625,77998.072328875,-2.867972368467596,-0.1919276092891314,0.2059483220436811,-0.04514171183109283,-0.006961381528526545,0.004137711133807898,-0.0001854896545410156,-0.007511690258979797,-0.0006921887397766113,XArbitraryZVertical,-0.08046377580703284,-0.1143618691478097,-0.9822178118162244,0.1252799548185524,-0.1867204010486603,-0.2044955343008041,-0.9608938694000244
2020-07-29 15:23:51.468 +0200,77998.10490787501,-0.1860198974609375,-0.19921875,-0.9681854248046875,77998.092364875,-2.86803649691634,-0.1920593839088798,0.2056696932363887,-0.06348210573196411,-0.007613855879753828,0.0061172004789114,-0.002172142267227173,0.002536848187446594,0.001367747783660889,XArbitraryZVertical,-0.0805523223832572,-0.1142310745127251,-0.9822288566320811,0.1252560453730331,-0.1868578940629959,-0.204222783446312,-0.9609251618385315
2020-07-29 15:23:51.489 +0200,77998.12494387501,-0.1893157958984375,-0.1786346435546875,-0.9929046630859375,77998.112400875,-2.868474737584032,-0.1920249204483235,0.204537871315823,-0.1345983445644379,-0.02021247148513794,-0.008729047141969204,-0.003489017486572266,-0.0008190721273422241,-0.006125867366790771,XArbitraryZVertical,-0.08064220995011358,-0.1136568945102138,-0.9823074463113414,0.1251040962128518,-0.1868687719106674,-0.2031146883964539,-0.9611579179763794
2020-07-29 15:23:51.509 +0200,77998.14497987501,-0.1757049560546875,-0.1666259765625,-0.977874755859375,77998.13243687501,-2.869098752192947,-0.191899710081221,0.2027909412409023,-0.09885953366756439,0.02184922806918621,-0.01083134673535824,-0.006836727261543274,0.01809385418891907,-0.03048348426818848,XArbitraryZVertical,-0.08074207776693228,-0.1127681431873603,-0.9824277335001137,0.1248991943252875,-0.1868158131837845,-0.2014038562774658,-0.9615281224250793
2020-07-29 15:23:51.535 +0200,77998.165015875,-0.178131103515625,-0.1845703125,-0.950103759765625,77998.15247287501,-2.869468067399896,-0.1916119089350146,0.2028685935286695,0.003744606394320726,-0.003346406854689121,-0.02052080072462559,0.006500944495201111,0.03017684817314148,-0.01541608572006226,XArbitraryZVertical,-0.08061593834502663,-0.1127733286620121,-0.9824589948628415,0.1247298021168677,-0.1865361034870148,-0.2014799267053604,-0.9615665078163147
2020-07-29 15:23:51.549 +0200,77998.185051875,-0.174713134765625,-0.200775146484375,-0.948699951171875,77998.17250887501,-2.869526653607454,-0.1920378089661133,0.2039297595967893,0.03693372011184692,-0.0001623313874006271,-0.007014123722910881,0.004434868693351746,0.01324771344661713,0.01207166910171509,XArbitraryZVertical,-0.0807520831005097,-0.1133173733066709,-0.9823992217683006,0.1246196074964401,-0.1869046986103058,-0.2025192081928253,-0.9612765312194824
2020-07-29 15:23:51.569 +0200,77998.205087875,-0.1761627197265625,-0.2093963623046875,-0.9656524658203125,77998.19254487501,-2.869356233943732,-0.192305241132901,0.2048330893614537,0.01998176611959934,0.009238893166184425,0.005315285176038742,0.008069723844528198,-0.002093106508255005,0.01325088739395142,XArbitraryZVertical,-0.08080871117495701,-0.1137834196102031,-0.9823382525238107,0.1246392220802661,-0.1871267259120941,-0.2034037411212921,-0.961046576499939
2020-07-29 15:23:51.589 +0200,77998.225123875,-0.1796417236328125,-0.206390380859375,-0.964630126953125,77998.212580875,-2.869003376830962,-0.1921488704508642,0.2045734210747002,0.02701504155993462,0.005764267407357693,0.01313105318695307,0.006483227014541626,-0.01096262037754059,-0.003622472286224365,XArbitraryZVertical,-0.08073056709444157,-0.1136607272156099,-0.9823339036568526,0.1248354732814151,-0.1869865208864212,-0.2031494975090027,-0.9611276388168335
