loggingTime(txt),accelerometerTimestamp_sinceReboot(s),accelerometerAccelerationX(G),accelerometerAccelerationY(G),accelerometerAccelerationZ(G),motionTimestamp_sinceReboot(s),motionYaw(rad),motionRoll(rad),motionPitch(rad),motionRotationRateX(rad/s),motionRotationRateY(rad/s),motionRotationRateZ(rad/s),motionUserAccelerationX(G),motionUserAccelerationY(G),motionUserAccelerationZ(G),motionAttitudeReferenceFrame(txt),motionQuaternionX(R),motionQuaternionY(R),motionQuaternionZ(R),motionQuaternionW(R),motionGravityX(G),motionGravityY(G),motionGravityZ(G)
2020-07-29 15:58:20.733 +0200,78796.617496875,0.0003204345703125,0.096405029296875,-0.996734619140625,78796.599945875,1.784535561858376,0.006714805491679596,-0.1020016110030684,0.007777564227581024,-0.0107793165370822,0.002439008094370365,-0.02104384079575539,0.00676022469997406,-0.001278460025787354,XArbitraryZVertical,-0.03460683216998912,-0.03758202324119775,0.7773730596632449,0.626961774626808,0.006679853890091181,0.1018248274922371,-0.9947799444198608
2020-07-29 15:58:20.736 +0200,78796.63753187501,0.004180908203125,0.102935791015625,-1.00189208984375,78796.61998087501,1.784396050670619,0.006467909082391834,-0.1016409853015221,0.000679441262036562,-0.01341611240059137,-0.01181681640446186,-0.005957633256912231,-0.002594321966171265,-0.001790463924407959,XArbitraryZVertical,-0.03440048107568306,-0.03751680873108689,0.7773411055716436,0.627016719023298,0.006434483453631401,0.101466067135334,-0.9948182106018066
2020-07-29 15:58:20.756 +0200,78796.657566875,0.0009307861328125,0.09552001953125,-0.9957427978515625,78796.640015875,1.784109622496456,0.006228734207755365,-0.1010638072538209,0.023381557315588,-0.005936092231422663,-0.01747089810669422,-0.001865362748503685,0.00449669361114502,-0.006889462471008301,XArbitraryZVertical,-0.0341319925298453,-0.03736251433624908,0.7772673449186812,0.6271319779101509,0.006196911446750164,0.1008918508887291,-0.9948781132698059
2020-07-29 15:58:20.776 +0200,78796.67760187501,-0.0023193359375,0.0902557373046875,-0.9937591552734375,78796.660050875,1.783784247845622,0.006125423884275001,-0.1000114198976183,0.02786538936197758,-0.007785657420754433,-0.01340352743864059,-0.005015835165977478,-0.001897469162940979,-0.0006365180015563965,XArbitraryZVertical,-0.03376798942066604,-0.03698031474528424,0.7771886573412838,0.6272718317395264,0.006094777025282383,0.09984477609395981,-0.9949843287467957
2020-07-29 15:58:20.796 +0200,78796.697636875,0.0037078857421875,0.093505859375,-1.002761840820312,78796.68008587501,1.783555285782882,0.005706846342013685,-0.1002229487778311,0.01346980500966311,-0.0008814125321805477,-0.008738735690712929,-0.007859485223889351,-0.00736711174249649,0.001328885555267334,XArbitraryZVertical,-0.03367590824725335,-0.03718995581077965,0.7771195908324219,0.6273500083603027,0.005678177811205387,0.1000552475452423,-0.994965672492981
2020-07-29 15:58:20.816 +0200,78796.717671875,0.0004119873046875,0.098968505859375,-0.99615478515625,78796.700120875,1.783463509534343,0.005537697354816038,-0.09967717366397734,0.02145036682486534,-0.003955765627324581,0.002539028646424413,-0.001668350771069527,-0.003587149083614349,-0.007619738578796387,XArbitraryZVertical,-0.03344074534099207,-0.03702936427662415,0.7771047263829228,0.6273904705880837,0.005510182119905949,0.09951219707727432,-0.9950211048126221
2020-07-29 15:58:20.836 +0200,78796.73770687501,-0.0010833740234375,0.0870361328125,-0.9909515380859375,78796.72015587501,1.783518821742679,0.005378241046450225,-0.09953939493230982,0.02436825819313526,-0.0009386702440679073,0.006835430394858122,-0.004809519276022911,0.002009257674217224,-0.0009984374046325684,XArbitraryZVertical,-0.03333455802795117,-0.03702676151219449,0.7771275238322667,0.6273680169672993,0.005351593252271414,0.09937509894371033,-0.9950356483459473
2020-07-29 15:58:20.856 +0200,78796.757741875,0.0072479248046875,0.0921478271484375,-1.002655029296875,78796.740190875,1.78354570782114,0.005388030191573921,-0.09930570995141817,-0.004799879156053066,0.01145301759243011,-0.0004792837426066399,-0.006314503028988838,-0.009696237742900848,0.004227399826049805,XArbitraryZVertical,-0.03326458621285783,-0.03693331437556538,0.777140515107103,0.6273611967745427,0.005361458752304316,0.09914257377386093,-0.9950587749481201
2020-07-29 15:58:20.876 +0200,78796.777775875,-0.002655029296875,0.099884033203125,-0.9962921142578125,78796.760225875,1.783589812871398,0.005430982111335734,-0.09915043267400871,0.001723799854516983,-0.004331537522375584,0.008275439962744713,0.001975012943148613,-0.004433788359165192,-0.007461309432983398,XArbitraryZVertical,-0.03323177186418407,-0.03686022428424117,0.7771567648748802,0.6273471145047261,0.00540428189560771,0.09898805618286133,-0.9950739741325378
2020-07-29 15:58:20.896 +0200,78796.79781087501,0.0017852783203125,0.08514404296875,-0.9921875,78796.780259875,1.783733080804221,0.005333604804401178,-0.09860840391449494,0.01838919520378113,0.004562088754028082,0.007325642742216587,-0.007833678275346756,0.003828689455986023,-0.001045703887939453,XArbitraryZVertical,-0.03302134033309731,-0.03668246915899244,0.7772141907925945,0.627297452818927,0.005307669751346111,0.09844867885112762,-0.9951279759407043
2020-07-29 15:58:20.920 +0200,78796.817845875,0.0050048828125,0.0925140380859375,-1.000823974609375,78796.80029487501,1.783835817745388,0.005424357990280451,-0.09890004862320144,-0.02188032865524292,0.008305693045258522,0.005269948393106461,-0.003481334075331688,-0.01119447499513626,0.003030359745025635,XArbitraryZVertical,-0.03314616246908014,-0.03676906574497602,0.7772390657034357,0.6272549906508359,0.005397824570536613,0.0987389013171196,-0.9950987100601196
2020-07-29 15:58:20.936 +0200,78796.837880875,0.00115966796875,0.0974273681640625,-0.997039794921875,78796.820329875,1.783919721796793,0.005298131596129878,-0.09916047234399049,-0.01313610561192036,-0.005225294269621372,0.005777698941528797,-0.0001390408724546432,-0.004077337682247162,-0.005630552768707275,XArbitraryZVertical,-0.03317720881663128,-0.03691127241120087,0.7772622383953871,0.627216289442093,0.005272080656141043,0.0989980474114418,-0.995073676109314
2020-07-29 15:58:20.956 +0200,78796.85791587501,0.00274658203125,0.090576171875,-0.99462890625,78796.84036487501,1.784062284371073,0.005218453255818459,-0.09902655979191502,-0.01158854272216558,-0.002211395185440779,0.006950517185032368,-0.003906967118382454,0.000965997576713562,-0.001833021640777588,XArbitraryZVertical,-0.03310163143464824,-0.0368865678473405,0.7773109528307698,0.6271613246550498,0.005192863754928112,0.09886479377746582,-0.9950873255729675
2020-07-29 15:58:20.976 +0200,78796.877950875,0.0063629150390625,0.1003875732421875,-1.005416870117188,78796.860399875,1.78419511286046,0.005086867576046967,-0.09973999824684564,-0.03173602372407913,-0.0007269489578902721,0.007836665026843548,-0.002191945910453796,-0.006577849388122559,0.0005094408988952637,XArbitraryZVertical,-0.03327166662330916,-0.03720737343565286,0.777340426793949,0.6270969204473379,0.00506156450137496,0.09957470744848251,-0.9950172305107117
2020-07-29 15:58:20.996 +0200,78796.89798587501,0.000213623046875,0.1004180908203125,-0.997039794921875,78796.880434875,1.784393880317619,0.004814438705755123,-0.09985916692507736,-0.01175445877015591,-0.01871686801314354,0.01007817126810551,0.001688925549387932,0.003117851912975311,-0.0102887749671936,XArbitraryZVertical,-0.03319942374727453,-0.03734242280195692,0.7774048578331978,0.62701275629071,0.004790435545146465,0.09969328343868256,-0.9950066804885864
2020-07-29 15:58:21.016 +0200,78796.918020875,-0.00079345703125,0.1003265380859375,-1.000747680664062,78796.90046987501,1.784523296204706,0.004500303986144845,-0.0994443753750838,0.005626662634313107,-0.01143285632133484,0.009022912941873074,-0.004155579954385757,0.003551080822944641,-0.001870036125183105,XArbitraryZVertical,-0.0329449032115482,-0.03728177196252094,0.7774589766077028,0.6269627752653717,0.00447805505245924,0.09928055107593536,-0.9950494170188904
2020-07-29 15:58:21.036 +0200,78796.938055875,-0.0024261474609375,0.1026611328125,-0.9984588623046875,78796.920504875,1.784591625301227,0.004192996325112074,-0.09956752970215091,0.008391289971768856,-0.005474566482007504,0.0005356853362172842,-0.00486425869166851,0.003339953720569611,-0.0055885910987854,XArbitraryZVertical,-0.03286276057413141,-0.03742711579287145,0.7774829736151554,0.6269285704507692,0.004172217100858688,0.09940309822559357,-0.9950385093688965
2020-07-29 15:58:21.056 +0200,78796.95809087501,-0.00091552734375,0.0990447998046875,-0.999542236328125,78796.94053987501,1.784535315438924,0.004068326387439042,-0.09899737724045619,0.02426346391439438,0.002539151813834906,-0.00720292842015624,-0.006376137956976891,0.00622810423374176,-0.003244102001190186,XArbitraryZVertical,-0.03263666654473109,-0.03724359644651981,0.777478744482184,0.6269565481904171,0.004048395901918411,0.09883575141429901,-0.9950955510139465
2020-07-29 15:58:21.076 +0200,78796.978125875,-0.0039825439453125,0.0947723388671875,-0.9921722412109375,78796.960574875,1.784312172579962,0.004266586865676475,-0.09853369233272448,0.03072416037321091,0.008738990873098373,-0.01697554998099804,-0.005058196373283863,0.003061994910240173,-0.004283666610717773,XArbitraryZVertical,-0.03257254759077747,-0.03699752338360664,0.7774147804290205,0.6270538781178452,0.004245878662914038,0.09837432950735092,-0.9951404333114624
2020-07-29 15:58:21.096 +0200,78796.99816087501,0.003570556640625,0.0827178955078125,-0.991455078125,78796.980609875,1.78396459705517,0.004439344662585991,-0.09829963315345712,0.02610557153820992,0.01973278634250164,-0.01914720609784126,-0.008293052203953266,-0.0009832009673118591,0.003108024597167969,XArbitraryZVertical,-0.03257273898931022,-0.03684670576733376,0.7773076124137166,0.6271955098486443,0.004417899064719677,0.09814140200614929,-0.9951626658439636
2020-07-29 15:58:21.116 +0200,78797.018195875,0.0080413818359375,0.093109130859375,-0.998016357421875,78797.00064487501,1.783618769868551,0.004783009397595826,-0.09811718359684771,-0.01146404072642326,0.0240846574306488,-0.01161194406449795,-0.001073723658919334,-0.0128604993224144,0.003841102123260498,XArbitraryZVertical,-0.0326554451801596,-0.03666236486936716,0.7771971596499232,0.6273388515217897,0.004759986884891987,0.09795983135700226,-0.9951789975166321
2020-07-29 15:58:21.136 +0200,78797.03823062501,0.0108489990234375,0.0906219482421875,-1.000747680664062,78797.020679875,1.783479799691241,0.005023728246106646,-0.09865190382964195,-0.009892510250210762,0.01010306179523468,0.003272881964221597,0.003163622692227364,-0.002988465130329132,-0.00277256965637207,XArbitraryZVertical,-0.03291921885149796,-0.03679239812221106,0.7771389876410548,0.6273895981373548,0.004999280907213688,0.09849196672439575,-0.9951252937316895
2020-07-29 15:58:21.156 +0200,78797.058265625,0.001495361328125,0.0919342041015625,-0.9967803955078125,78797.04071462501,1.783619968657387,0.00475603816690995,-0.09909449604153686,-0.01483640260994434,-0.01613093912601471,0.01196795050054789,0.00623135082423687,-0.005905389785766602,-0.005545258522033691,XArbitraryZVertical,-0.03295140232600276,-0.03705069135116597,0.7771785129917853,0.6273237296971446,0.004732687957584858,0.09893239289522171,-0.9950829148292542
2020-07-29 15:58:21.176 +0200,78797.078300625,0.0037994384765625,0.1203765869140625,-1.007415771484375,78797.060749625,1.784017922647271,0.00419670139930247,-0.09951034439995335,-0.02528851106762886,-0.02404878288507462,0.02281416952610016,-0.002579061314463615,-0.004996895790100098,-0.001615762710571289,XArbitraryZVertical,-0.0328570080804083,-0.03739429391632174,0.7773041969986307,0.6271525396616791,0.004175927955657244,0.09934619814157486,-0.9950441718101501
2020-07-29 15:58:21.197 +0200,78797.098334625,-0.005767822265625,0.0938873291015625,-0.9926300048828125,78797.08078462501,1.784441781260578,0.003699141332351682,-0.09895878115234498,0.03886983916163445,-0.02034326083958149,0.01867371425032616,0.0002078786492347717,0.02398099005222321,-0.012195885181427,XArbitraryZVertical,-0.03248279977481419,-0.03734279743774248,0.7774562108531637,0.6269866869894345,0.003681035246700048,0.09879734367132187,-0.995100736618042
2020-07-29 15:58:21.216 +0200,78797.11836962501,-0.0075531005859375,0.071502685546875,-0.9829864501953125,78797.10081862501,1.784637771379847,0.003576509287510693,-0.09759108441251871,0.04342997074127197,0.0006088926456868649,0.0138238687068224,-0.009240785613656044,-0.001180268824100494,0.002721250057220459,XArbitraryZVertical,-0.03200284233005694,-0.03685263055227365,0.7775465537193396,0.6269283222518263,0.003559483913704753,0.09743624925613403,-0.9952353835105896
2020-07-29 15:58:21.237 +0200,78797.138404625,0.0076141357421875,0.10302734375,-1.005416870117188,78797.12085362501,1.784862738226382,0.003793757323784249,-0.09718960201979009,-0.02661756053566933,0.01365119032561779,0.01251694280654192,-0.01123716682195663,-0.02317504584789276,0.01240211725234985,XArbitraryZVertical,-0.03195735906259915,-0.03663201943310636,0.7776214275731541,0.6268506387121904,0.003775844816118479,0.09703666716814041,-0.9952736496925354
2020-07-29 15:58:21.257 +0200,78797.15843962501,0.00347900390625,0.1025848388671875,-1.000030517578125,78797.140888625,1.785106246443105,0.003906993479568928,-0.09743151686955344,-0.01916550286114216,-0.002475047949701548,0.01103124115616083,0.003820199519395828,0.00811469554901123,-0.0100516676902771,XArbitraryZVertical,-0.03207272335996918,-0.03669450649691462,0.7776912043004001,0.6267545226693465,0.00388845382258296,0.0972774401307106,-0.9952496886253357
2020-07-29 15:58:21.277 +0200,78797.17847462501,-0.0031890869140625,0.100982666015625,-0.98504638671875,78797.16092362501,1.78534971337839,0.003924132012367291,-0.09783525354715056,0.01162663102149963,2.113310620188713e-05,0.009183843620121479,-0.0003314260393381119,0.007280141115188599,-0.004703819751739502,XArbitraryZVertical,-0.03220139305375473,-0.03685007356504119,0.7777592940577838,0.6266542289733495,0.0039053566288203,0.0976792499423027,-0.9952102899551392
2020-07-29 15:58:21.297 +0200,78797.198509625,0.00189208984375,0.0897216796875,-0.993408203125,78797.180958625,1.785435654194346,0.003759874614673999,-0.09777133767225528,0.0005394923500716686,0.006995419505983591,-0.001712555298581719,-0.006840042769908905,0.005740039050579071,0.01028704643249512,XArbitraryZVertical,-0.03211591028484892,-0.03687805584737518,0.7777901282052161,0.6266188054845799,0.00374190928414464,0.09761564433574677,-0.9952171444892883
2020-07-29 15:58:21.317 +0200,78797.21854462501,-0.0045166015625,0.07391357421875,-0.979827880859375,78797.20099362501,1.785411571333893,0.004040202126539875,-0.09717026241008554,-0.001401152927428484,0.01253692433238029,0.007285847328603268,-0.002031299285590649,-0.004937276244163513,0.001981258392333984,XArbitraryZVertical,-0.03203708883062906,-0.03655604756138896,0.7777898564385723,0.6266420500175486,0.004021132364869118,0.09701742231845856,-0.995274543762207
2020-07-29 15:58:21.337 +0200,78797.238579625,-0.0135040283203125,0.07135009765625,-0.9763641357421875,78797.221028625,1.785764627148353,0.004396510119963775,-0.09766961233975015,-0.06763290613889694,0.02452114969491959,0.03198898956179619,-0.008785787969827652,-0.02123027294874191,0.01551270484924316,XArbitraryZVertical,-0.03232560238975684,-0.03664434028083412,0.7778849337863566,0.6265040527266275,0.004375542979687452,0.09751440584659576,-0.9952244758605957
2020-07-29 15:58:21.357 +0200,78797.25861462501,-0.011962890625,0.109466552734375,-0.984954833984375,78797.241063625,1.786566124377054,0.005335177778806258,-0.1003010787468064,-0.1562124490737915,0.06527576595544815,0.04294949024915695,-0.01868333294987679,-0.02634868770837784,0.01871830224990845,XArbitraryZVertical,-0.03349974551342952,-0.03738737671976208,0.7780677786310888,0.6261713301879364,0.005308338440954685,0.1001329869031906,-0.9949598908424377
2020-07-29 15:58:21.377 +0200,78797.278649625,-0.00701904296875,0.1063385009765625,-0.972076416015625,78797.26109862501,1.787500611080223,0.007264683850738516,-0.103605155227851,-0.153212383389473,0.1469543874263763,0.04252487048506737,-0.01901291310787201,0.008560746908187866,0.009787678718566895,XArbitraryZVertical,-0.03526658368694922,-0.03808541492776252,0.7782582294012137,0.6257953674653463,0.007225665263831615,0.1034199073910713,-0.9946115612983704
2020-07-29 15:58:21.397 +0200,78797.298684625,0.004302978515625,0.0674591064453125,-0.96624755859375,78797.281133625,1.78824774532398,0.01048477335785223,-0.1063597887045638,-0.2018721997737885,0.1930816620588303,0.05493200570344925,-0.01719095185399055,0.002759836614131927,0.02235674858093262,XArbitraryZVertical,-0.03736669796659106,-0.03816402720409447,0.7783733365646252,0.6255255539144738,0.0104253338649869,0.1061593741178513,-0.9942944645881653
2020-07-29 15:58:21.425 +0200,78797.31871962501,0.0074310302734375,0.0380401611328125,-0.960906982421875,78797.30116862501,1.78938264239633,0.01501453908633733,-0.1111522940184235,-0.3920963406562805,0.2528470158576965,0.06099959835410118,-0.01025561988353729,-0.04076790809631348,0.02762210369110107,XArbitraryZVertical,-0.04060512305412567,-0.03863629631254871,0.7785287626035137,0.6251011895952969,0.01492132246494293,0.110923558473587,-0.9937168955802917
2020-07-29 15:58:21.439 +0200,78797.338754625,0.01141357421875,0.101593017578125,-0.9766845703125,78797.321203625,1.79086453650396,0.02058037502101968,-0.1220249895407958,-0.7722006440162659,0.3247156143188477,0.09110420197248459,-0.01249833218753338,-0.08072315901517868,0.03163290023803711,XArbitraryZVertical,-0.04613439799144362,-0.04116578528297878,0.7785936739048227,0.6244749045941397,0.02042590081691742,0.1217223852872849,-0.9923539757728577
2020-07-29 15:58:21.457 +0200,78797.35878962501,0.0403289794921875,0.1748046875,-0.982666015625,78797.341238625,1.791458536668997,0.02790880338581447,-0.1399831480379628,-0.9846765398979187,0.404000848531723,0.03630483150482178,-0.01554692164063454,-0.0345415472984314,0.01339530944824219,XArbitraryZVertical,-0.05456793953255887,-0.04589089210440343,0.7780679757902602,0.6241206931374051,0.0276322215795517,0.1395264267921448,-0.9898327589035034
2020-07-29 15:58:21.477 +0200,78797.378824625,0.031341552734375,0.1103057861328125,-0.99810791015625,78797.36127362501,1.794153944446984,0.03694665472678554,-0.1583326875909845,-0.9389947056770325,0.4519100487232208,0.1663905382156372,0.004739478230476379,0.02096563577651978,0.004472076892852783,XArbitraryZVertical,-0.06372264072587157,-0.05030516634483093,0.7780145371014744,0.6229784838675849,0.03647620975971222,0.1576719731092453,-0.9868176579475403
2020-07-29 15:58:21.498 +0200,78797.39885862501,0.0135345458984375,0.1568450927734375,-1.022064208984375,78797.381308625,1.799553936492611,0.04782995301130683,-0.1781523009334272,-1.053444504737854,0.5312042832374573,0.2735361456871033,-0.01456955820322037,-0.06259770691394806,-0.01464849710464478,XArbitraryZVertical,-0.07395104440226513,-0.05484165034623379,0.7785374341324188,0.6208084486065293,0.04705499112606049,0.1772114187479019,-0.9830472469329834
2020-07-29 15:58:21.517 +0200,78797.418893625,0.113067626953125,0.259552001953125,-1.057205200195312,78797.401342625,1.807481907311397,0.06148355214009627,-0.2003101638374952,-1.127069354057312,0.6794049739837646,0.3427853286266327,-0.04521787166595459,-0.0372912734746933,-0.04337996244430542,XArbitraryZVertical,-0.08585805860011053,-0.05959703442025749,0.7794389711962291,0.6176985700847014,0.06021622940897942,0.1989732980728149,-0.9781531691551208
2020-07-29 15:58:21.537 +0200,78797.43892862501,0.119232177734375,0.283447265625,-1.025482177734375,78797.42137762501,1.81607205482,0.07891653750758976,-0.220785188602345,-0.8803142905235291,0.7486769556999207,0.3651397526264191,0.03801651298999786,0.04587981104850769,-0.08385223150253296,XArbitraryZVertical,-0.0986408576373479,-0.06265346501850305,0.7802145192725798,0.6144995897651961,0.0769210010766983,0.2189958244562149,-0.9726890325546265
2020-07-29 15:58:21.557 +0200,78797.458963625,0.137786865234375,0.315338134765625,-0.999603271484375,78797.441412625,1.825310331774037,0.09568502647332738,-0.2338393141126328,-0.5273247361183167,0.7710483074188232,0.4114079475402832,0.02855254709720612,0.0573660135269165,-0.05637830495834351,XArbitraryZVertical,-0.1088460532718265,-0.0631306364808359,0.7814178950849979,0.6111899471992155,0.09293888509273529,0.2317140400409698,-0.9683341383934021
2020-07-29 15:58:21.577 +0200,78797.47899862501,0.1195068359375,0.2324066162109375,-0.977081298828125,78797.461447625,1.833527619402636,0.1149016975576688,-0.2379678352636455,-0.05815817788243294,1.048310399055481,0.3131879568099976,0.02907722443342209,0.08534026145935059,-0.03335154056549072,XArbitraryZVertical,-0.1173468408493755,-0.05936553879612196,0.7825788743187234,0.6085028966453655,0.1114181131124496,0.2357282191514969,-0.9654108881950378
2020-07-29 15:58:21.597 +0200,78797.499033625,0.16082763671875,0.2415618896484375,-0.9866943359375,78797.48148262501,1.838759421530725,0.1377332405191067,-0.237459151474802,0.02338741719722748,1.166890025138855,0.2556793689727783,-0.01069463789463043,0.002891138195991516,-0.01344108581542969,XArbitraryZVertical,-0.1259840858948732,-0.0525438111833224,0.7828135516321971,0.6070997902025972,0.1334454268217087,0.2352338433265686,-0.9627343416213989
2020-07-29 15:58:21.617 +0200,78797.519068625,0.06939697265625,0.2312774658203125,-1.014999389648438,78797.501517625,1.843765139655902,0.1625150218498301,-0.2357406734633816,0.05509807169437408,1.199002385139465,0.3078252971172333,0.007326632738113403,0.01367643475532532,-0.02618098258972168,XArbitraryZVertical,-0.1350534584720981,-0.04467435816157325,0.7828333761639813,0.6057530171360865,0.1573254615068436,0.233563244342804,-0.9595295190811157
2020-07-29 15:58:21.637 +0200,78797.53910362501,0.142852783203125,0.236053466796875,-0.9953765869140625,78797.52155262501,1.848983145062531,0.187822482427584,-0.2321994610214507,0.2498434633016586,1.423231720924377,0.30927374958992,-0.1078948676586151,0.006752952933311462,-0.05788320302963257,XArbitraryZVertical,-0.1438121989583655,-0.03597467322722449,0.7829044801389852,0.6042221982336701,0.181709036231041,0.2301185131072998,-0.9560477733612061
2020-07-29 15:58:21.657 +0200,78797.559138625,0.181488037109375,0.2198028564453125,-0.9716644287109375,78797.541587625,1.852778168530962,0.2163352716249791,-0.2238365229918506,0.4240693151950836,1.375444054603577,0.2554480731487274,-0.06135626137256622,0.01947733759880066,-0.04189246892929077,XArbitraryZVertical,-0.1524664444948647,-0.02431862252699986,0.7825682175797034,0.6031166375284481,0.209296852350235,0.2219720631837845,-0.952325165271759
2020-07-29 15:58:21.677 +0200,78797.57917362501,0.2548675537109375,0.201416015625,-0.9692535400390625,78797.561622625,1.855982708967838,0.244589977197794,-0.214224863590347,0.4798522889614105,1.378044605255127,0.250645637512207,-0.04938302934169769,0.01238062977790833,-0.02234327793121338,XArbitraryZVertical,-0.1606900775020357,-0.01222452891071092,0.7820686668657398,0.6019949559414112,0.2366231381893158,0.2125900685787201,-0.948058545589447
2020-07-29 15:58:21.697 +0200,78797.599208625,0.2555999755859375,0.23101806640625,-0.9269866943359375,78797.58165762501,1.858521943748991,0.2724586964895752,-0.2030976075234549,0.549120306968689,1.344725012779236,0.2877124547958374,-0.002294600009918213,0.004615038633346558,-0.02455878257751465,XArbitraryZVertical,-0.168349152323146,0.0003862000707518798,0.7814271254689122,0.6008578185372097,0.2635692954063416,0.2017042338848114,-0.9433168172836304
2020-07-29 15:58:21.717 +0200,78797.619243625,0.2877349853515625,0.233428955078125,-0.912109375,78797.601692625,1.860899012909218,0.3001674714986796,-0.1907924934516182,0.5585363507270813,1.373886108398438,0.294181615114212,-0.02765759825706482,0.04599091410636902,0.01247423887252808,XArbitraryZVertical,-0.1756245440001148,0.0134060677141797,0.7807599076154069,0.5994916857825123,0.2903148531913757,0.1896370649337769,-0.9379525780677795
2020-07-29 15:58:21.738 +0200,78797.63927862501,0.36749267578125,0.151458740234375,-0.9156646728515625,78797.62172762501,1.86289082251606,0.3283985758286865,-0.1778014258346764,0.6306725740432739,1.405942797660828,0.2897390425205231,-0.02199128270149231,0.06086228787899017,0.02118992805480957,XArbitraryZVertical,-0.1829202663506461,0.02685964860629873,0.7799036169809341,0.5979708200598797,0.317442923784256,0.1768660843372345,-0.9316374659538269
2020-07-29 15:58:21.758 +0200,78797.659313625,0.38958740234375,0.0987396240234375,-0.9184722900390625,78797.641762625,1.864284435255558,0.3571587739166079,-0.162997556838924,0.709422767162323,1.443593263626099,0.3245073258876801,0.03089907765388489,-0.006873235106468201,0.01064693927764893,XArbitraryZVertical,-0.1899040751712335,0.04121414664176123,0.778887453302242,0.5962987354134354,0.3449797034263611,0.1622767597436905,-0.9244756698608398
2020-07-29 15:58:21.777 +0200,78797.67934862501,0.393524169921875,0.1581268310546875,-0.925445556640625,78797.661797625,1.866227484855986,0.3864276827435932,-0.1495476157712468,0.5286241173744202,1.440495729446411,0.3351730704307556,0.02597126364707947,-0.046629399061203,-0.0005055665969848633,XArbitraryZVertical,-0.1974942092435155,0.05508699177493626,0.777783637744072,0.5941499129647606,0.3726753890514374,0.14899080991745,-0.9159229397773743
2020-07-29 15:58:21.797 +0200,78797.699383625,0.3842620849609375,0.109893798828125,-0.93157958984375,78797.68183262501,1.86875042850668,0.4156545711306984,-0.1379540053230796,0.5384871959686279,1.453487157821655,0.3626295328140259,0.003293901681900024,0.02395284175872803,-0.01700383424758911,XArbitraryZVertical,-0.2056258401761555,0.06810078275305839,0.7765990232083558,0.5915862759596214,0.399952620267868,0.1375168412923813,-0.9061605930328369
2020-07-29 15:58:21.817 +0200,78797.719418625,0.42926025390625,0.1661376953125,-0.880706787109375,78797.701867625,1.871220443314196,0.4450026230226675,-0.1254174305268889,0.5666352510452271,1.436706066131592,0.3758121430873871,-0.03243538737297058,-0.01215434074401855,-0.03351980447769165,XArbitraryZVertical,-0.2135474479660234,0.08147070320186975,0.775369587789203,0.5886951813704107,0.4270792007446289,0.1250889003276825,-0.895520031452179
2020-07-29 15:58:21.838 +0200,78797.739452625,0.4499053955078125,0.0794219970703125,-0.8971099853515625,78797.72190262501,1.872701059438888,0.4737383552065227,-0.1117251160951985,0.6025975346565247,1.428915500640869,0.3942235708236694,-0.01309061050415039,0.0573551207780838,0.006426095962524414,XArbitraryZVertical,-0.220870920374706,0.09516087662247047,0.7739242698622171,0.5858341373723419,0.4533717036247253,0.1114928275346756,-0.8843209147453308
2020-07-29 15:58:21.858 +0200,78797.75948762501,0.4957733154296875,0.04962158203125,-0.8952789306640625,78797.74193662501,1.874597778547402,0.5021012632355275,-0.09824884161287363,0.4522189497947693,1.374462604522705,0.4041328430175781,-0.01739957928657532,-0.01628437638282776,-0.02166092395782471,XArbitraryZVertical,-0.2281341177618428,0.1085442913503267,0.7725337290462414,0.582550101472235,0.4789475798606873,0.09809085726737976,-0.8723459243774414
2020-07-29 15:58:21.878 +0200,78797.779522625,0.5355987548828125,0.141357421875,-0.891326904296875,78797.761971625,1.878649982745016,0.5295692708802185,-0.0873423615540326,0.3094249069690704,1.301785469055176,0.4611355066299438,0.004770338535308838,-0.0354892760515213,-0.0321342945098877,XArbitraryZVertical,-0.2359076075297098,0.1203333671300936,0.7715419803564779,0.5784379830885479,0.5032360553741455,0.0872313529253006,-0.8597349524497986
2020-07-29 15:58:21.898 +0200,78797.79955762501,0.455322265625,-0.1114501953125,-0.8644256591796875,78797.782006625,1.882523330838679,0.5550058850880943,-0.07434273581856357,0.6091018915176392,1.240882158279419,0.5544882416725159,0.02288007736206055,0.06888866424560547,-0.04007124900817871,XArbitraryZVertical,-0.2423284740561241,0.1322951499052153,0.770846795060131,0.5740820601862365,0.525492787361145,0.07427427172660828,-0.8475497961044312
2020-07-29 15:58:21.925 +0200,78797.819592625,0.5970611572265625,0.16351318359375,-0.79071044921875,78797.80204162501,1.886315845439292,0.5801380345564874,-0.05329789597852755,0.5421228408813477,1.194740295410156,0.6146975159645081,-0.07873314619064331,-0.163427859544754,-0.02522027492523193,XArbitraryZVertical,-0.2464194656991756,0.1472337755006795,0.7708516806036566,0.5686715368760084,0.5473610162734985,0.05327266454696655,-0.8351992964744568
2020-07-29 15:58:21.938 +0200,78797.839627625,0.5882415771484375,-0.0225830078125,-0.7760009765625,78797.822076625,1.892247962512411,0.6031979735098882,-0.03975950239488326,0.3879648447036743,1.167786121368408,0.6976679563522339,0.0440095067024231,0.1247304081916809,0.03647011518478394,XArbitraryZVertical,-0.2520046126526691,0.1582916757248307,0.7709350838596403,0.563113185530014,0.5668306350708008,0.03974902629852295,-0.8228748440742493
2020-07-29 15:58:21.958 +0200,78797.85966262501,0.6952362060546875,0.1078033447265625,-0.864501953125,78797.84211162501,1.900133806405813,0.6273184492433863,-0.02561644647581507,0.2357572019100189,1.176351189613342,0.7193729877471924,0.01572245359420776,-0.0475740022957325,0.03797262907028198,XArbitraryZVertical,-0.2580497292953438,0.1695314957654305,0.7714048185876212,0.5564207938296122,0.5867832899093628,0.02561364509165287,-0.8093388080596924
2020-07-29 15:58:21.978 +0200,78797.879697625,0.683319091796875,0.1255950927734375,-0.8316650390625,78797.862146625,1.908367639041163,0.6500613253985034,-0.01280990669982533,0.4100148975849152,1.097717523574829,0.6987387537956238,0.104762077331543,0.0953051745891571,-0.0635610818862915,XArbitraryZVertical,-0.2640337406631361,0.179709456031131,0.7719267127587056,0.5496544019861289,0.6051855683326721,0.01280955597758293,-0.7959814071655273
2020-07-29 15:58:21.998 +0200,78797.89973262501,0.7194366455078125,0.0888671875,-0.746795654296875,78797.882181625,1.912184707334261,0.6719895917060249,0.004048373415598134,0.6336257457733154,1.069589257240295,0.6182634830474854,0.0759131908416748,0.1295450478792191,-0.04380154609680176,XArbitraryZVertical,-0.2682508090807176,0.1917091885908259,0.7716462602918278,0.5439219279937391,0.6225391030311584,-0.004048362374305725,-0.78257817029953
2020-07-29 15:58:22.018 +0200,78797.919767625,0.745330810546875,0.040618896484375,-0.7156982421875,78797.90221662501,1.912787737415842,0.6936967061849566,0.02188092578101249,0.7061137557029724,1.099093675613403,0.5496298670768738,0.09574472904205322,0.1102145090699196,0.0275304913520813,XArbitraryZVertical,-0.2718196948101336,0.2043581490153271,0.7705555331940444,0.5390695205922982,0.6392308473587036,-0.02187917940318584,-0.7687035799026489
2020-07-29 15:58:22.038 +0200,78797.939802625,0.74847412109375,0.02276611328125,-0.7492828369140625,78797.922251625,1.911768198409511,0.7164145589480991,0.03931167209946665,0.6632645726203918,1.16888439655304,0.5346884727478027,0.1051042079925537,0.07896506786346436,0.04387426376342773,XArbitraryZVertical,-0.2757010560252684,0.2172503760318907,0.7688051316294285,0.5345370537872222,0.6561775207519531,-0.039301548153162,-0.7535824179649353
2020-07-29 15:58:22.058 +0200,78797.95983762501,0.7118377685546875,0.0464935302734375,-0.8606719970703125,78797.94228662501,1.912832084591899,0.7405996749682784,0.0553870890778073,0.4758277237415314,1.233951807022095,0.6149473190307617,0.09115493297576904,0.07677917182445526,-0.005955696105957031,XArbitraryZVertical,-0.280722081796862,0.2296278925616826,0.7672292837202016,0.5289853055225155,0.673695981502533,-0.05535877496004105,-0.7369322776794434
2020-07-29 15:58:22.078 +0200,78797.979872625,0.6342315673828125,-0.0215606689453125,-0.9151153564453125,78797.962321625,1.915340172601479,0.7652743566897257,0.07070908386894739,0.54471355676651,1.230299592018127,0.5984643697738647,0.0376313328742981,0.1154263019561768,-0.1344605684280396,XArbitraryZVertical,-0.2863007307420726,0.2415301347657767,0.7658286695297268,0.5226868016105258,0.6910038590431213,-0.07065017521381378,-0.7193901538848877
2020-07-29 15:58:22.098 +0200,78797.99990762501,0.62933349609375,-0.0240936279296875,-0.89031982421875,78797.982356625,1.913222059575045,0.7900615978324474,0.08920371953629305,0.9092130661010742,1.204870343208313,0.5223271250724792,-0.05614030361175537,0.06535923480987549,-0.2068438529968262,XArbitraryZVertical,-0.2904760418882081,0.2551902178616223,0.763441321265421,0.5173577296760548,0.7075721025466919,-0.08908545970916748,-0.7010032534599304
2020-07-29 15:58:22.118 +0200,78798.019942625,0.603515625,-0.21014404296875,-0.7113494873046875,78798.00239162501,1.903441431588781,0.8143170773815418,0.111425765106134,1.285033583641052,1.112457633018494,0.4205714762210846,-0.07584458589553833,0.08439871668815613,-0.2004836201667786,XArbitraryZVertical,-0.2923385366079331,0.2710789593560372,0.759472042781391,0.5140588866973447,0.7227469682693481,-0.111195333302021,-0.6821087598800659
2020-07-29 15:58:22.138 +0200,78798.03997737501,0.6163330078125,-0.31817626953125,-0.500213623046875,78798.022426625,1.890413300460178,0.8373169569108454,0.1346641182480934,1.193578720092773,1.022772192955017,0.4160015285015106,-0.1147143840789795,-0.07915019989013672,-0.03976970911026001,XArbitraryZVertical,-0.2928023497193272,0.2873466212308169,0.754947658625189,0.5116178889356855,0.7361242175102234,-0.1342574805021286,-0.6633974313735962
2020-07-29 15:58:22.159 +0200,78798.06001137501,0.6936492919921875,-0.2222137451171875,-0.5387420654296875,78798.04246137501,1.878974870645168,0.8586268845367335,0.1565280640485143,1.091471314430237,0.9639219045639038,0.4824399352073669,-0.1131834387779236,-0.1660760939121246,0.1538925170898438,XArbitraryZVertical,-0.2930319634130898,0.3023046110416359,0.7509593175622402,0.5087282321844471,0.7476919293403625,-0.1558896601200104,-0.6454883813858032
2020-07-29 15:58:22.178 +0200,78798.08004637501,0.789581298828125,-0.18182373046875,-0.618896484375,78798.06249537501,1.869458076765929,0.8787625662750662,0.1774440963448852,0.9762943983078003,0.9010161757469177,0.5133333802223206,-0.04578834772109985,-0.04999017715454102,0.09838354587554932,XArbitraryZVertical,-0.2932101838863846,0.3162045670258083,0.7475549747031329,0.5051772223188591,0.7578601241111755,-0.1765143871307373,-0.6280848979949951
2020-07-29 15:58:22.198 +0200,78798.100081375,0.8478240966796875,-0.2026824951171875,-0.56768798828125,78798.082530375,1.862847789064307,0.8966815591904724,0.1955839847875869,0.6505349278450012,0.7513307929039001,0.466976135969162,0.04184591770172119,0.007791578769683838,0.002832889556884766,XArbitraryZVertical,-0.2936847163855692,0.3280194383348519,0.7449586114812463,0.5011877966629004,0.766364574432373,-0.1943394243717194,-0.6123050451278687
2020-07-29 15:58:22.218 +0200,78798.12011637501,0.8672943115234375,-0.201690673828125,-0.523468017578125,78798.10256537501,1.860056756907259,0.9107650706587723,0.2097231345724742,0.4501298367977142,0.5934224128723145,0.4352827072143555,0.09394282102584839,0.000445827841758728,0.04174935817718506,XArbitraryZVertical,-0.2944319973839559,0.3368329173065763,0.7435095831176362,0.4970381914021534,0.7726636528968811,-0.2081891149282455,-0.599706768989563
2020-07-29 15:58:22.238 +0200,78798.140151375,0.9000701904296875,-0.3026123046875,-0.664093017578125,78798.12260037501,1.856776352677416,0.9226378344994084,0.222691689587166,0.6388044357299805,0.5515434145927429,0.4076935052871704,0.1086832880973816,0.01379625499248505,0.07533895969390869,XArbitraryZVertical,-0.2945750079802414,0.3447025182217877,0.7421532872421683,0.4935730523741003,0.7775113582611084,-0.220855638384819,-0.588811457157135
2020-07-29 15:58:22.259 +0200,78798.16018637501,0.9043426513671875,-0.2090911865234375,-0.7000732421875,78798.142635375,1.851393618653164,0.9339184205279708,0.2362840891556228,0.5009494423866272,0.4210317730903625,0.3905234336853027,0.1374521851539612,-0.07421115040779114,-0.07567417621612549,XArbitraryZVertical,-0.2939152122957324,0.3528902593665203,0.7404264650267393,0.4907656599226511,0.781618058681488,-0.2340915948152542,-0.5781646370887756
2020-07-29 15:58:22.279 +0200,78798.18022137501,0.9637451171875,-0.314544677734375,-0.619232177734375,78798.16267037501,1.848519989805598,0.9411740411062489,0.2470819050435114,0.4165674448013306,0.2587448358535767,0.2938619554042816,0.1396898627281189,0.02953900396823883,-0.1186871528625488,XArbitraryZVertical,-0.2929761852452819,0.3587292149760719,0.7396522088567348,0.4882550108593081,0.783703625202179,-0.2445755302906036,-0.5709565877914429
2020-07-29 15:58:22.299 +0200,78798.200256375,1.042098999023438,-0.355224609375,-0.7162628173828125,78798.182705375,1.84397882416711,0.9468413103316607,0.257011527090158,0.3983282744884491,0.1765927076339722,0.2563554644584656,0.197908341884613,-0.06653234362602234,-0.04360008239746094,XArbitraryZVertical,-0.2913770062223942,0.3641014056292535,0.7386252021133285,0.4867878464238759,0.7849170565605164,-0.2541913688182831,-0.5650591850280762
2020-07-29 15:58:22.319 +0200,78798.22029137501,1.047500610351562,-0.40753173828125,-0.6082763671875,78798.20274037501,1.846745475359898,0.9476516688085973,0.2606885450323262,-0.3896737992763519,-0.02956791780889034,0.2308292239904404,0.276561439037323,-0.1037441790103912,-0.1417874693870544,XArbitraryZVertical,-0.2911150923687033,0.3651234732136488,0.7395128934562083,0.4848273857515937,0.7846104502677917,-0.2577458918094635,-0.5638737082481384
2020-07-29 15:58:22.339 +0200,78798.240326375,1.08966064453125,-0.2655181884765625,-0.5843658447265625,78798.222775375,1.862319217238242,0.9436627329788781,0.2561384739735277,-1.079535484313965,0.03896214067935944,0.2768281996250153,0.2832450866699219,-0.1603433787822723,-0.0300859808921814,XArbitraryZVertical,-0.2937728198828883,0.3603565981909124,0.7434479223206124,0.4807555446221362,0.7832964658737183,-0.2533468902111053,-0.5676813125610352
2020-07-29 15:58:22.358 +0200,78798.26036137501,1.077957153320312,-0.0078277587890625,-0.438079833984375,78798.242810375,1.88886885918026,0.9373239869296549,0.2445449282997704,-1.609174013137817,-0.02507276833057404,0.2913132607936859,0.3266727924346924,-0.02928885817527771,0.0003166794776916504,XArbitraryZVertical,-0.299425471303829,0.350965564497797,0.7497067743154643,0.474454801101806,0.7819972038269043,-0.2421148121356964,-0.5743350982666016
2020-07-29 15:58:22.379 +0200,78798.280396375,1.135208129882812,-0.2571563720703125,-0.3011016845703125,78798.26284537501,1.918728414784765,0.9295729185719651,0.229892671328292,-1.534048795700073,0.08237086981534958,0.3298124670982361,0.3166435360908508,0.2145059257745743,0.154509425163269,XArbitraryZVertical,-0.3057479255003342,0.3395567713864236,0.7566441638329077,0.4676634818528192,0.7802813649177551,-0.2278730273246765,-0.5824388265609741
2020-07-29 15:58:22.399 +0200,78798.300431375,1.15020751953125,-0.21795654296875,-0.4838104248046875,78798.282880375,1.946448046356071,0.9236382149679925,0.2215535297113078,-1.105373501777649,-0.08343914151191711,0.5807932019233704,0.3758274912834167,-0.04275262355804443,0.2970935106277466,XArbitraryZVertical,-0.3104188188385639,0.3309801916646413,0.7632796683185487,0.4598874805427081,0.7783000469207764,-0.2197454422712326,-0.5881845355033875
2020-07-29 15:58:22.426 +0200,78798.32046637501,1.099029541015625,-0.21484375,-0.5290374755859375,78798.30291537501,1.968796332955892,0.915496180794245,0.2211131201092142,-0.7144928574562073,-0.2396337985992432,0.6386586427688599,0.3954496383666992,-0.003971993923187256,0.1206059455871582,XArbitraryZVertical,-0.3110847503087396,0.3254932714905868,0.7696077129358091,0.4527520000280431,0.7735618948936462,-0.2193157821893692,-0.5945608019828796
2020-07-29 15:58:22.439 +0200,78798.340501375,1.082275390625,-0.05401611328125,-0.5988311767578125,78798.322950375,1.990302323489046,0.9044313731675323,0.221981209107217,-0.9792990684509277,-0.4307227730751038,0.6794862747192383,0.3508827090263367,-3.285706043243408e-05,0.08357936143875122,XArbitraryZVertical,-0.3100486477616837,0.3199797043831621,0.7762264257004572,0.4460441224670446,0.7667860388755798,-0.220162644982338,-0.6029656529426575
2020-07-29 15:58:22.459 +0200,78798.36053637501,1.017242431640625,-0.010162353515625,-0.740509033203125,78798.342985375,2.01587847775086,0.8875803260694394,0.2169730538380922,-1.192984700202942,-0.6759067177772522,0.4690418839454651,0.3433229923248291,0.1560255438089371,0.02698028087615967,XArbitraryZVertical,-0.3088154708689604,0.3104650391546637,0.7841248659023264,0.4397643596428756,0.7573627233505249,-0.2152746319770813,-0.6164889335632324
2020-07-29 15:58:22.479 +0200,78798.380571375,0.9733428955078125,-0.0029296875,-0.786376953125,78798.36302037501,2.037898868985799,0.8681683280150087,0.2088961563761298,-1.006043314933777,-0.8085026144981384,0.2808390557765961,0.2888340353965759,0.1921767294406891,-0.09939098358154297,XArbitraryZVertical,-0.3066067810137882,0.2998397434573939,0.7913584445365193,0.4357066814159692,0.7465561032295227,-0.2073801755905151,-0.6321768164634705
2020-07-29 15:58:22.499 +0200,78798.400606375,0.94293212890625,0.027923583984375,-0.756683349609375,78798.383055375,2.055298268592803,0.8457808448098997,0.1982698199800561,-0.9029636979103088,-1.085998296737671,0.02375593781471252,0.2573555111885071,0.1892555803060532,-0.1277176141738892,XArbitraryZVertical,-0.3029650018111705,0.2883307364627803,0.7978305252840893,0.4342164633093881,0.7338253855705261,-0.1969733387231827,-0.6501551866531372
2020-07-29 15:58:22.519 +0200,78798.42064137501,0.9501495361328125,0.012176513671875,-0.71502685546875,78798.40309037501,2.064326957813232,0.8209778758175338,0.1878008133432433,-0.4507423341274261,-1.199901223182678,-0.2033749520778656,0.2414630651473999,0.2100841253995895,-0.07912695407867432,XArbitraryZVertical,-0.2969452508178297,0.2776003483809807,0.8028248686658103,0.4361580061334555,0.7189452648162842,-0.1866988241672516,-0.6695231199264526
2020-07-29 15:58:22.539 +0200,78798.44067537501,0.8929901123046875,0.038116455078125,-0.5299072265625,78798.423125375,2.064479733383378,0.7959245108931099,0.1795004385730671,-0.1083783358335495,-1.280074119567871,-0.3512918949127197,0.2642082571983337,0.1863746494054794,-0.01906841993331909,XArbitraryZVertical,-0.2889668958821597,0.2688983538375305,0.8059947871983607,0.4410942669272622,0.7030306458473206,-0.178538054227829,-0.6883836388587952
2020-07-29 15:58:22.559 +0200,78798.460710375,0.83001708984375,0.006622314453125,-0.5498809814453125,78798.44315937501,2.058556137899008,0.7710996955289023,0.17406432262932,0.1356005072593689,-1.305439829826355,-0.445515364408493,0.2232818603515625,0.2070933282375336,0.1835397481918335,XArbitraryZVertical,-0.2795295856641473,0.2621244869085652,0.8078653273880455,0.4477806760538549,0.6863930821418762,-0.1731866747140884,-0.7063079476356506
2020-07-29 15:58:22.579 +0200,78798.48074537501,0.83465576171875,0.02227783203125,-0.65826416015625,78798.463194375,2.048974273696943,0.746941547964332,0.1697429019982803,0.1507335156202316,-1.279569149017334,-0.5239917039871216,0.1766607761383057,0.1714449822902679,0.1800714135169983,XArbitraryZVertical,-0.2696173991284916,0.2563086874017476,0.8087526932442001,0.4555561541389296,0.6696335673332214,-0.1689289510250092,-0.7232246398925781
2020-07-29 15:58:22.599 +0200,78798.500780375,0.76617431640625,-0.0134735107421875,-0.5974884033203125,78798.48322937501,2.039022306993358,0.7222709204528494,0.1640636518878823,0.1312775313854218,-1.334102630615234,-0.5740904211997986,0.1982966065406799,0.181636318564415,0.08828127384185791,XArbitraryZVertical,-0.2598282041479537,0.2497474333409555,0.8093893543037235,0.46368561152768,0.652212917804718,-0.1633286327123642,-0.7402310371398926
2020-07-29 15:58:22.621 +0200,78798.520815375,0.6711578369140625,-0.065521240234375,-0.5517120361328125,78798.503264375,2.028848987952434,0.698030680180866,0.1575387592573375,-0.00602639839053154,-1.25753390789032,-0.6050767302513123,0.1468524932861328,0.1396008431911469,0.1650497317314148,XArbitraryZVertical,-0.2504444330315937,0.2428301667471259,0.8097164532596572,0.4718796049100615,0.6347511410713196,-0.1568879187107086,-0.7566221952438354
2020-07-29 15:58:22.640 +0200,78798.54085037501,0.566131591796875,-0.0728607177734375,-0.5667724609375,78798.52329937501,2.020351523573982,0.6745659373338663,0.1488543903004176,-0.06994426250457764,-1.196166396141052,-0.5888126492500305,0.06851977109909058,0.0791790783405304,0.2261636257171631,XArbitraryZVertical,-0.2421826568525402,0.2348971467679032,0.8100785566643184,0.4795244162696639,0.6176517605781555,-0.148305281996727,-0.772341787815094
2020-07-29 15:58:22.659 +0200,78798.560885375,0.5449066162109375,-0.0810394287109375,-0.66802978515625,78798.543334375,2.011549558928274,0.653341166779034,0.1407138833504014,-0.04056906327605247,-1.044309258460999,-0.6036484241485596,-0.02107417583465576,0.0639801025390625,0.2246332764625549,XArbitraryZVertical,-0.2346972225649069,0.2276241010052352,0.8100119080001694,0.4868112295649339,0.6018350124359131,-0.1402499824762344,-0.7862089872360229
2020-07-29 15:58:22.679 +0200,78798.58092037501,0.5338897705078125,-0.059967041015625,-0.64703369140625,78798.563369375,2.002645671245942,0.6342000248527506,0.1326899835528363,-0.07832283526659012,-0.9951004385948181,-0.5925903916358948,-0.02814161777496338,0.04804562032222748,0.1353338956832886,XArbitraryZVertical,-0.2280620034296558,0.2208059879791339,0.8095823751084537,0.4937699253138282,0.5873246788978577,-0.1323009580373764,-0.7984648942947388
2020-07-29 15:58:22.699 +0200,78798.600955375,0.456268310546875,-0.1847991943359375,-0.6352691650390625,78798.58340437501,1.994254273455504,0.6163770409249909,0.1252353976679454,-0.06808857619762421,-0.8797786235809326,-0.5166987180709839,-0.02572387456893921,0.06190502643585205,0.167182445526123,XArbitraryZVertical,-0.2219132963456629,0.2143843466693686,0.8090754778590593,0.5001907235031404,0.5735553503036499,-0.1249082908034325,-0.8095876574516296
2020-07-29 15:58:22.722 +0200,78798.620990375,0.389404296875,-0.2354583740234375,-0.64990234375,78798.603439375,1.987746081562063,0.6006151482881952,0.1178871466644799,-0.188605010509491,-0.7888428568840027,-0.4112564325332642,-0.09131735563278198,-0.07004379481077194,0.1883862018585205,XArbitraryZVertical,-0.2168104533927376,0.2082358058155872,0.8087487341813012,0.5055259160561024,0.561227560043335,-0.117614284157753,-0.8192621469497681
2020-07-29 15:58:22.740 +0200,78798.64102537501,0.3636474609375,-0.1871185302734375,-0.7254791259765625,78798.62347437501,1.984564862584947,0.5856723706042504,0.1103898762408537,-0.212179034948349,-0.7290951013565063,-0.2754633128643036,-0.1466365456581116,-0.127970427274704,0.1825402975082397,XArbitraryZVertical,-0.2124473856822158,0.2018216456010995,0.8091191728686186,0.5093725038447187,0.5493953227996826,-0.1101658120751381,-0.82826828956604
2020-07-29 15:58:22.760 +0200,78798.661060375,0.3857421875,-0.163238525390625,-0.763031005859375,78798.643509375,1.982472931623066,0.5715239615052007,0.1053862768811024,-0.0833791121840477,-0.7074814438819885,-0.1701444685459137,-0.1611907482147217,-0.08448414504528046,0.1149085760116577,XArbitraryZVertical,-0.2078552903492054,0.1964446998451763,0.8097897043779011,0.5122950683262659,0.53791344165802,-0.1051913127303123,-0.8364112973213196
2020-07-29 15:58:22.779 +0200,78798.68109537501,0.355682373046875,-0.1880035400390625,-0.77569580078125,78798.663544375,1.981194229261907,0.5576577528866574,0.1036496495961353,-0.004849281627684832,-0.6832988858222961,-0.03959598392248154,-0.127823531627655,-0.06228930503129959,0.08470553159713745,XArbitraryZVertical,-0.2025800673968866,0.1923270979964242,0.8107883663613379,0.5143867054960934,0.5263601541519165,-0.103464163839817,-0.843943178653717
2020-07-29 15:58:22.799 +0200,78798.701130375,0.3357696533203125,-0.2605743408203125,-0.7392425537109375,78798.68357937501,1.981828306887935,0.5441296597686455,0.1026744240340437,-0.1183401495218277,-0.6649776697158813,0.05574369803071022,-0.146747887134552,-0.08800079673528671,0.07899665832519531,XArbitraryZVertical,-0.1974137632404741,0.1883922210000571,0.8122520983574278,0.5155411426358307,0.5149473547935486,-0.1024941205978394,-0.851072371006012
2020-07-29 15:58:22.821 +0200,78798.721165375,0.3130035400390625,-0.2551422119140625,-0.7418670654296875,78798.703614375,1.986246304097888,0.530694870542526,0.1007615784986329,-0.278933048248291,-0.6369947791099548,0.2113896757364273,-0.1555555164813995,-0.1624282896518707,0.1222882270812988,XArbitraryZVertical,-0.1928752047871151,0.1837352027420927,0.814601986257947,0.5152320149644903,0.5035655498504639,-0.1005911603569984,-0.858081042766571
2020-07-29 15:58:22.840 +0200,78798.74120037501,0.298736572265625,-0.24188232421875,-0.7784576416015625,78798.72364937501,1.993894809219074,0.5171673311673166,0.09851417496341851,-0.2662108242511749,-0.6386792063713074,0.3482586443424225,-0.1670591533184052,-0.1591780930757523,0.1264229416847229,XArbitraryZVertical,-0.1886499887623836,0.1786248551168057,0.8177466915354064,0.5136095288851986,0.4920226633548737,-0.09835490584373474,-0.8650087118148804
2020-07-29 15:58:22.860 +0200,78798.761235375,0.301422119140625,-0.234619140625,-0.836090087890625,78798.743684375,2.003815390062687,0.5035437269984944,0.09825748824749372,-0.2551685571670532,-0.6214277744293213,0.497527688741684,-0.1697958409786224,-0.1461673974990845,0.09631556272506714,XArbitraryZVertical,-0.1840099378002625,0.174108127265366,0.8215442339953779,0.5107756647067799,0.4802049994468689,-0.09809946268796921,-0.8716533780097961
2020-07-29 15:58:22.880 +0200,78798.78127037501,0.3166656494140625,-0.1404876708984375,-0.8738555908203125,78798.763719375,2.016654502583849,0.489644303094559,0.09855667380569877,-0.3205017745494843,-0.6440470814704895,0.6350622773170471,-0.1552310287952423,-0.1386137008666992,0.04508769512176514,XArbitraryZVertical,-0.1793084519296838,0.1695277924346012,0.8260861150695193,0.5066462605572218,0.4680296778678894,-0.09839719533920288,-0.8782176375389099
2020-07-29 15:58:22.902 +0200,78798.801305375,0.3219146728515625,-0.21722412109375,-0.9019622802734375,78798.78375437501,2.031425019341938,0.4750814619098465,0.09910464435165982,-0.3337323665618896,-0.6494897603988647,0.6869142055511475,-0.1274368762969971,-0.04395020753145218,0.01383441686630249,XArbitraryZVertical,-0.1743657639875295,0.1647742895416782,0.8311207510118466,0.501681535387633,0.4551664590835571,-0.09894249588251114,-0.8848920464515686
2020-07-29 15:58:22.929 +0200,78798.821340375,0.31256103515625,-0.212982177734375,-0.902801513671875,78798.803789375,2.047564812544909,0.4601156471562584,0.09971769440175252,-0.3136353492736816,-0.7098684310913086,0.7788268327713013,-0.1091909408569336,-0.12009147554636,-0.007776021957397461,XArbitraryZVertical,-0.16927761995066,0.1599063391375588,0.8364570904362206,0.4960994400126192,0.4418458342552185,-0.09955251961946487,-0.8915501236915588
2020-07-29 15:58:22.948 +0200,78798.84137537501,0.2964935302734375,-0.2545318603515625,-0.8695068359375,78798.82382437501,2.064582289737886,0.4434318983537628,0.1022366429404671,-0.2116457372903824,-0.7652819156646729,0.8456379175186157,-0.1038662195205688,-0.1134043112397194,-0.001767992973327637,XArbitraryZVertical,-0.1629723397632765,0.15542213307236,0.8421306835759614,0.4899998995062411,0.4268016815185547,-0.1020586341619492,-0.8985679745674133
2020-07-29 15:58:22.960 +0200,78798.86140937501,0.3053436279296875,-0.2525634765625,-0.8744049072265625,78798.843859375,2.082456273964566,0.4260025516761023,0.106194064700126,-0.2030145525932312,-0.7889909744262695,0.9343854784965515,-0.1044245064258575,-0.1511137187480927,0.03828543424606323,XArbitraryZVertical,-0.1559774584448608,0.1514050527361068,0.8480003360050231,0.4833662838068663,0.4109060764312744,-0.1059945821762085,-0.9054951071739197
2020-07-29 15:58:22.981 +0200,78798.881444375,0.3385772705078125,-0.1747894287109375,-0.8789520263671875,78798.863893375,2.102592781894542,0.4075437243423562,0.109218767467323,-0.309682160615921,-0.8470361232757568,1.009502530097961,-0.07907316088676453,-0.1462112665176392,0.04034560918807983,XArbitraryZVertical,-0.1488677655471168,0.1467141220394674,0.8543236427897194,0.4758616792627876,0.3939937651157379,-0.1090017557144165,-0.9126266837120056
2020-07-29 15:58:23.000 +0200,78798.90147937501,0.3547821044921875,-0.16278076171875,-0.8481903076171875,78798.883928375,2.124332431503208,0.3880191879198701,0.1113175069621589,-0.3469023406505585,-0.8502620458602905,1.061535239219666,-0.02829647064208984,-0.06640197336673737,0.04292529821395874,XArbitraryZVertical,-0.1415460923997142,0.141418458826736,0.860922244844822,0.4677375495388503,0.3760138154029846,-0.1110877469182014,-0.9199310541152954
2020-07-29 15:58:23.021 +0200,78798.921514375,0.3657073974609375,-0.168548583984375,-0.8188629150390625,78798.90396337501,2.147408650220807,0.3682298895922954,0.1116409415486307,-0.4477486610412598,-0.8707169890403748,1.072632670402527,0.005754023790359497,-0.05407971143722534,0.08073824644088745,XArbitraryZVertical,-0.134512969905327,0.1353783730901544,0.8676421011524594,0.4591035945438926,0.3577236235141754,-0.1114091798663139,-0.9271579384803772
2020-07-29 15:58:23.040 +0200,78798.941549375,0.362335205078125,-0.1924285888671875,-0.8136749267578125,78798.923998375,2.170976971534023,0.3485486413702906,0.1106629174797544,-0.4482744038105011,-0.8352633714675903,1.079703688621521,0.03451377153396606,-0.06079592555761337,0.1168587803840637,XArbitraryZVertical,-0.1277301674675844,0.128937402553893,0.8742730350425362,0.450229586573508,0.3394449353218079,-0.1104371845722198,-0.9341202974319458
2020-07-29 15:58:23.060 +0200,78798.96158437501,0.34405517578125,-0.1919708251953125,-0.79132080078125,78798.94403337501,2.194488923933038,0.3295296333607048,0.1094933865589091,-0.4436082541942596,-0.7987658381462097,1.082131266593933,0.04849401116371155,-0.08581011742353439,0.1282991766929626,XArbitraryZVertical,-0.1211350752189298,0.1227276240194483,0.8806791638272962,0.4412123703839964,0.3216601610183716,-0.1092747375369072,-0.9405284523963928
2020-07-29 15:58:23.080 +0200,78798.981619375,0.31903076171875,-0.184967041015625,-0.7599334716796875,78798.964068375,2.218215545637711,0.3115598390744369,0.1079203531884796,-0.4318711757659912,-0.7327098250389099,1.104189276695251,0.04670298099517822,-0.08687809109687805,0.1563029885292053,XArbitraryZVertical,-0.1149698854076439,0.1167153531608503,0.8869004608405968,0.4319340380019714,0.3047603666782379,-0.107710987329483,-0.9463189244270325
2020-07-29 15:58:23.100 +0200,78799.00165437501,0.267303466796875,-0.2009124755859375,-0.734161376953125,78798.984103375,2.242481252524523,0.2950395908450125,0.1063034394137482,-0.4668430089950562,-0.6511608958244324,1.151443600654602,0.03692281246185303,-0.08144287019968033,0.1926378011703491,XArbitraryZVertical,-0.1093576735078185,0.1111128816002612,0.892993500603518,0.4222054978364335,0.2891363203525543,-0.1061033383011818,-0.9513896703720093
2020-07-29 15:58:23.120 +0200,78799.021689375,0.2537384033203125,-0.1519012451171875,-0.749481201171875,78799.00413837501,2.268558167482266,0.2801930124424964,0.1026470241291556,-0.6268908977508545,-0.5620693564414978,1.229645252227783,-0.00109526515007019,-0.1009363830089569,0.2228533029556274,XArbitraryZVertical,-0.1049012493712139,0.1049945009542107,0.8991979115207172,0.4116004748456912,0.2750855386257172,-0.1024668663740158,-0.955943763256073
2020-07-29 15:58:23.140 +0200,78799.04172412501,0.2383270263671875,-0.1513214111328125,-0.7116546630859375,78799.024173375,2.296908029888485,0.2673766986451249,0.09651130528779898,-0.6849798560142517,-0.4170823395252228,1.314435243606567,-0.002841949462890625,-0.05788207799196243,0.2114706635475159,XArbitraryZVertical,-0.1018410990416771,0.09817772543505797,0.9055755337582415,0.3999030971358401,0.2629727721214294,-0.09636154770851135,-0.9599790573120117
2020-07-29 15:58:23.160 +0200,78799.061759125,0.225677490234375,-0.1601104736328125,-0.660247802734375,78799.04420812501,2.3270732508696,0.2580682766176046,0.09001678455036075,-0.7609670162200928,-0.2298477441072464,1.413048505783081,-0.009674310684204102,-0.06361132860183716,0.252215564250946,XArbitraryZVertical,-0.100358833256928,0.09188614533912681,0.9119473291561491,0.387087919076736,0.254179984331131,-0.08989526331424713,-0.9629700779914856
2020-07-29 15:58:23.180 +0200,78799.081794125,0.2269134521484375,-0.1190338134765625,-0.6432647705078125,78799.064243125,2.360136041985721,0.2525487002049183,0.08064653917534266,-0.9842450022697449,-0.02984089218080044,1.546349883079529,-0.01732878386974335,-0.08150956034660339,0.3057314157485962,XArbitraryZVertical,-0.101121405246972,0.08490369810378628,0.9184579630847406,0.3728281192227024,0.2490604966878891,-0.0805591493844986,-0.9651316404342651
2020-07-29 15:58:23.200 +0200,78799.10182912501,0.2522735595703125,-0.016448974609375,-0.573944091796875,78799.08427812501,2.396984960705754,0.2510399881692527,0.06807887573727091,-1.050199866294861,0.1368897706270218,1.667905926704407,-0.0148981511592865,-0.05266110599040985,0.3239624500274658,XArbitraryZVertical,-0.1042640337141149,0.07696520285172687,0.9251779127254198,0.3567227776782375,0.2478360384702682,-0.06802629679441452,-0.966410756111145
2020-07-29 15:58:23.220 +0200,78799.121864125,0.26788330078125,-0.073272705078125,-0.5254058837890625,78799.104313125,2.435272974563474,0.2545006040500414,0.05743986141847739,-0.9668182134628296,0.4240610897541046,1.744040966033936,0.007036373019218445,0.03956383466720581,0.3930707573890686,XArbitraryZVertical,-0.1091743917446165,0.07060047354073219,0.9315747055254842,0.3395070422067636,0.2513469159603119,-0.05740828067064285,-0.9661930799484253
2020-07-29 15:58:23.240 +0200,78799.14189912501,0.2715606689453125,-0.0890350341796875,-0.5279388427734375,78799.124348125,2.475141510946939,0.263297755098773,0.04663449050485717,-1.115443825721741,0.6647935509681702,1.822357654571533,0.01421993970870972,-0.02778830379247665,0.4399445652961731,XArbitraryZVertical,-0.1164541715596073,0.06476742398365236,0.9375614167881375,0.3212821211048256,0.259983092546463,-0.04661758989095688,-0.9644871950149536
2020-07-29 15:58:23.260 +0200,78799.161934125,0.3375701904296875,-0.005401611328125,-0.6174468994140625,78799.14438312501,2.517812548544681,0.2773714624263143,0.03337406702889057,-1.251975059509277,0.8951777219772339,1.909442186355591,0.004537194967269897,-0.05647826939821243,0.4342462420463562,XArbitraryZVertical,-0.1264826959595259,0.05814338893231805,0.9431936291009773,0.3016739783049456,0.2736760377883911,-0.03336787223815918,-0.9612429738044739
2020-07-29 15:58:23.280 +0200,78799.181969125,0.364013671875,-0.0457611083984375,-0.75616455078125,78799.164418125,2.561642996129769,0.2961283809118515,0.02147337550919985,-1.174979329109192,1.124408006668091,1.959771633148193,0.05291014909744263,0.01554818451404572,0.339869499206543,XArbitraryZVertical,-0.1383204084695379,0.05235443885643465,0.9481645878951223,0.2812655249110906,0.2917520105838776,-0.02147172577679157,-0.9562529325485229
2020-07-29 15:58:23.300 +0200,78799.20200412501,0.440673828125,0.1105804443359375,-0.84991455078125,78799.18445312501,2.606920276361401,0.3195532026483657,0.01022211310505171,-1.283087134361267,1.249312996864319,1.975992798805237,0.05752348899841309,-0.03578764200210571,0.194393515586853,XArbitraryZVertical,-0.1521112400117453,0.04689388744968721,0.9523956442010495,0.2600108092018791,0.3141260147094727,-0.01022193487733603,-0.9493262767791748
2020-07-29 15:58:23.320 +0200,78799.222039125,0.45556640625,0.1391754150390625,-0.7775115966796875,78799.204488125,2.65343205727309,0.3449627714043195,-0.003997365957482097,-1.561622381210327,1.283442974090576,1.961398959159851,0.1107349097728729,0.106680266559124,0.09259819984436035,XArbitraryZVertical,-0.1670159152275529,0.03956542503473368,0.9558769030831527,0.2384105344275728,0.3381589353084564,0.003997355233877897,-0.9410805106163025
2020-07-29 15:58:23.340 +0200,78799.24207412501,0.462799072265625,0.001983642578125,-0.6578521728515625,78799.224523125,2.700715140296651,0.3713802101381177,-0.01892537859499202,-1.516096115112305,1.376273274421692,1.961874127388,0.1015494167804718,0.1207111924886703,0.1558101177215576,XArbitraryZVertical,-0.1821826215136844,0.03129300984445234,0.9586017272750456,0.216593972537652,0.3628368973731995,0.01892424933612347,-0.9316604733467102
2020-07-29 15:58:23.360 +0200,78799.262109125,0.478729248046875,0.0043182373046875,-0.5935516357421875,78799.24455812501,2.74892354416649,0.4011697808046902,-0.03206891572340672,-1.503436923027039,1.475375890731812,1.988903164863586,0.08199182152748108,-0.02930036187171936,0.2642208337783813,XArbitraryZVertical,-0.1984546814109722,0.02345193018157669,0.9603768942172877,0.1942730766186882,0.3902947306632996,0.03206342086195946,-0.920131504535675
2020-07-29 15:58:23.380 +0200,78799.282144125,0.4782562255859375,0.0410919189453125,-0.6599578857421875,78799.264593125,2.796493190680026,0.4343129645722437,-0.04183957915707807,-1.301798462867737,1.661795854568481,1.954982399940491,0.06852999329566956,-0.03649237006902695,0.3150899410247803,XArbitraryZVertical,-0.2157150652810851,0.0168605526427922,0.9610287494741523,0.1720656939831419,0.4204190075397491,0.04182737320661545,-0.9063654541969299
2020-07-29 15:58:23.400 +0200,78799.30217912501,0.53631591796875,-0.0125579833984375,-0.799224853515625,78799.28462812501,2.842093219895198,0.47264001175687,-0.0470309584476416,-1.216435074806213,1.967445254325867,1.895487189292908,0.03457510471343994,-0.004778861999511719,0.2321160435676575,XArbitraryZVertical,-0.2348527198014548,0.01231588234238651,0.9602385965067379,0.15044746666276,0.4547350704669952,0.04701362177729607,-0.8893850445747375
2020-07-29 15:58:23.424 +0200,78799.32221312501,0.695404052734375,0.06866455078125,-1.054061889648438,78799.304663125,2.88831057851945,0.5168226820736895,-0.05299098111734226,-1.539773225784302,2.160137176513672,1.879858732223511,0.05488359928131104,-0.06423662602901459,0.07215285301208496,XArbitraryZVertical,-0.2566444819847395,0.006857061271442852,0.9578631231976322,0.1287821116789369,0.4934267103672028,0.05296618491411209,-0.8681731820106506
2020-07-29 15:58:23.440 +0200,78799.342248125,0.782073974609375,0.03375244140625,-1.006866455078125,78799.324697125,2.938931741414281,0.5622535184998582,-0.06475237648069285,-2.116905689239502,2.086544752120972,1.827982544898987,0.1763585209846497,0.005530327558517456,-0.2059938311576843,XArbitraryZVertical,-0.2790165500024668,-0.002890091235084449,0.954405820012769,0.1060698665658609,0.5319769382476807,0.06470713764429092,-0.8442828059196472
2020-07-29 15:58:23.460 +0200,78799.36228312501,0.743499755859375,-0.0719146728515625,-0.8695220947265625,78799.344732125,2.999212221123519,0.6084116438178514,-0.08751236393334018,-3.176843404769897,2.02873969078064,1.943615913391113,0.2265371084213257,-0.05152365565299988,-0.1850112676620483,XArbitraryZVertical,-0.3014593893707954,-0.0203424890295726,0.9498256830506544,0.08086838618925202,0.569377601146698,0.08740070462226868,-0.8174168467521667
2020-07-29 15:58:23.481 +0200,78799.382318125,0.7454376220703125,-0.06719970703125,-0.7085113525390625,78799.36476712501,3.077850566087765,0.6547601779934183,-0.1245462986911116,-4.314643859863281,1.778809785842896,2.220312595367432,0.1539361476898193,-0.1931195110082626,-0.07729560136795044,XArbitraryZVertical,-0.3226548424042855,-0.04867070662587988,0.9439350803337648,0.05011637855789802,0.6042520403862,0.1242245584726334,-0.7870500087738037
2020-07-29 15:58:23.501 +0200,78799.402353125,0.7747344970703125,-0.0485382080078125,-0.48388671875,78799.384802125,-3.108275930616595,0.7025986193232794,-0.1674996075255656,-5.061817169189453,1.610376834869385,2.525265693664551,0.1237667798995972,-0.2298645079135895,0.04999017715454102,XArbitraryZVertical,-0.3415560140139797,-0.08424419713660522,0.9359851864531552,0.01319671231258585,0.6371592283248901,0.1667174696922302,-0.7524847984313965
2020-07-29 15:58:23.521 +0200,78799.42238812501,0.8180084228515625,-0.0525665283203125,-0.2635498046875,78799.40483712501,-2.994637199551548,0.7564928428348368,-0.2116660029450781,-5.672792434692383,1.700515270233154,2.835094928741455,0.1199899911880493,-0.2535202503204346,0.2341551780700684,XArbitraryZVertical,-0.3590276100643132,-0.1248622683330282,0.9244843455000042,-0.02893567524187435,0.6710567474365234,0.2100890129804611,-0.7110171914100647
2020-07-29 15:58:23.541 +0200,78799.442423125,0.95220947265625,0.0249176025390625,-0.09161376953125,78799.424872125,-2.861984256682084,0.822901200676342,-0.2567325431316224,-6.58906364440918,1.80663537979126,3.037255048751831,0.126151442527771,-0.300315648317337,0.4025751352310181,XArbitraryZVertical,-0.3764288806427873,-0.1714581240459584,0.9072661621905886,-0.07597020804078475,0.7090938091278076,0.2539215385913849,-0.6578068137168884
2020-07-29 15:58:23.560 +0200,78799.46245812501,1.11474609375,0.1918487548828125,-0.0198974609375,78799.444907125,-2.709967998940771,0.9004734003572433,-0.2993210421273061,-7.229040145874023,1.74225127696991,3.229173421859741,0.2216322422027588,-0.2627860307693481,0.5118817090988159,XArbitraryZVertical,-0.3915849580837633,-0.2232773329178676,0.8835227049308036,-0.1272644401110257,0.7487789392471313,0.2948715090751648,-0.5936169028282166
2020-07-29 15:58:23.581 +0200,78799.482493125,1.270172119140625,0.41448974609375,0.022796630859375,78799.46494212501,-2.544157231062147,0.985621499707941,-0.3323254823303524,-7.314602375030518,1.583327412605286,3.346704006195068,0.3458959460258484,-0.1264629364013672,0.5138432383537292,XArbitraryZVertical,-0.4030408181158658,-0.2765790384592557,0.8534228131942638,-0.1809191037419423,0.7880052924156189,0.3262421488761902,-0.5221242904663086
2020-07-29 15:58:23.601 +0200,78799.502528125,1.41046142578125,0.553924560546875,-0.026519775390625,78799.484977125,-2.376701922229049,1.071519428464601,-0.3477356577110746,-6.928956508636475,1.407781481742859,3.471202373504639,0.4648536443710327,0.0820033848285675,0.486296534538269,XArbitraryZVertical,-0.4109596654830519,-0.3256460320176792,0.8186881797775685,-0.2341291149929173,0.8253820538520813,0.3407698571681976,-0.4501336216926575
2020-07-29 15:58:23.621 +0200,78799.52256312501,1.541748046875,0.66748046875,-0.1774139404296875,78799.50501212501,-2.217617360061559,1.152014851164166,-0.3428756487063451,-6.173521041870117,1.216947555541992,3.568777561187744,0.5709697008132935,0.2259002327919006,0.3714564442634583,XArbitraryZVertical,-0.4166612617621282,-0.3672937980359989,0.781140238481848,-0.2851467259021566,0.8604069948196411,0.3361967504024506,-0.382977306842804
2020-07-29 15:58:23.641 +0200,78799.542598125,1.611114501953125,0.8082733154296875,-0.354156494140625,78799.525047125,-2.078265378341482,1.219516574559978,-0.3189500820637065,-5.07481050491333,0.9592006802558899,3.563396453857422,0.6718425750732422,0.361532986164093,0.1656966805458069,XArbitraryZVertical,-0.4213590630615751,-0.3988533722080066,0.7437641303804889,-0.3319447941814371,0.8915781378746033,0.3135697543621063,-0.3267450630664825
2020-07-29 15:58:23.661 +0200,78799.56263312501,1.514755249023438,0.88433837890625,-0.38092041015625,78799.545082125,-1.969196935381115,1.267968091251143,-0.2801673678822909,-3.465536117553711,0.6739897131919861,3.420371532440186,0.7161316275596619,0.5384784936904907,-0.05022192001342773,XArbitraryZVertical,-0.4264002436008734,-0.4181941051919052,0.7103464151492143,-0.3724304537573174,0.9172801971435547,0.2765164971351624,-0.2865930497646332
2020-07-29 15:58:23.681 +0200,78799.582668125,1.358566284179688,0.81005859375,-0.320587158203125,78799.56511712501,-1.899661703766992,1.29747783291296,-0.2317329494874838,-1.642474889755249,0.5224020481109619,3.071048259735107,0.6003931164741516,0.6602566242218018,-0.1002851724624634,XArbitraryZVertical,-0.4344986771776042,-0.4240924400008539,0.6843822708684665,-0.4037045653636816,0.9371424913406372,0.2296644896268845,-0.2627130150794983
2020-07-29 15:58:23.701 +0200,78799.602703125,1.256622314453125,0.6813201904296875,-0.240142822265625,78799.585152125,-1.86945990342855,1.314103988653661,-0.1817790592643506,0.04844270274043083,0.527323305606842,2.49036169052124,0.4303925037384033,0.6336734890937805,-0.05264872312545776,XArbitraryZVertical,-0.4466196987753621,-0.4191432159589563,0.6672544056243624,-0.423817747504671,0.9512985944747925,0.1807796061038971,-0.2496996223926544
2020-07-29 15:58:23.721 +0200,78799.62273812501,1.166519165039062,0.5216064453125,-0.18994140625,78799.60518712501,-1.871788958624872,1.325070817004239,-0.1361765602382282,1.201690673828125,0.5903483033180237,1.865498065948486,0.3190010786056519,0.5488641858100891,0.01931530237197876,XArbitraryZVertical,-0.4622874113059598,-0.4071686623990043,0.6581429971066124,-0.432841480345954,0.9609814286231995,0.1357560753822327,-0.2410080581903458
2020-07-29 15:58:23.741 +0200,78799.642773125,1.104522705078125,0.3870391845703125,-0.1562957763671875,78799.625222125,-1.894375536024132,1.334455851159773,-0.09852608605028353,1.806094646453857,0.5979210138320923,1.262875437736511,0.2225511074066162,0.4256308674812317,0.0617140531539917,XArbitraryZVertical,-0.4791372926716168,-0.3923289811018982,0.6547040993814488,-0.4334373806855246,0.9674863815307617,0.09836675971746445,-0.2330108433961868
2020-07-29 15:58:23.761 +0200,78799.66280812501,1.08929443359375,0.2991790771484375,-0.155792236328125,78799.64525712501,-1.927408720483481,1.343518332304605,-0.07032204169030379,1.98627781867981,0.5756966471672058,0.7390574216842651,0.1562724113464355,0.3184831440448761,0.0873185396194458,XArbitraryZVertical,-0.4951407606084293,-0.3774266843045293,0.6549466402781374,-0.4282868778936956,0.9718753695487976,0.07026409357786179,-0.2247694432735443
2020-07-29 15:58:23.782 +0200,78799.682843125,1.102691650390625,0.260833740234375,-0.16851806640625,78799.66529212501,-1.96332444853064,1.352139995224812,-0.05155414219561928,1.88713014125824,0.4888105392456055,0.3134212791919708,0.1381000280380249,0.2489004731178284,0.07988053560256958,XArbitraryZVertical,-0.5089037400630896,-0.3642828631440833,0.6572865682044098,-0.419868360252877,0.9748928546905518,0.05153130739927292,-0.2166299521923065
2020-07-29 15:58:23.801 +0200,78799.70287812501,1.06903076171875,0.22906494140625,-0.1815032958984375,78799.685327125,-1.996869870860358,1.359113650695764,-0.04087998127595932,1.567824482917786,0.3531054258346558,0.04250968992710114,0.1495760679244995,0.2209585905075073,0.06061750650405884,XArbitraryZVertical,-0.5195678694069941,-0.353672631450654,0.6607010739683035,-0.4104133492485781,0.9768620133399963,0.04086859524250031,-0.2099297940731049
2020-07-29 15:58:23.821 +0200,78799.72291312501,1.027023315429688,0.191925048828125,-0.1870880126953125,78799.70536212501,-2.022533395420438,1.363444758324471,-0.03614719964267116,1.009059190750122,0.1851883232593536,-0.1075544878840446,0.1148629188537598,0.193804144859314,0.04353880882263184,XArbitraryZVertical,-0.5265035422853392,-0.3463044878193923,0.6640150230922739,-0.4024317051432464,0.9779403209686279,0.03613932803273201,-0.205734446644783
2020-07-29 15:58:23.841 +0200,78799.742948125,0.9884796142578125,0.190582275390625,-0.20709228515625,78799.725397125,-2.03641094892028,1.365445147240872,-0.03636174082365658,0.3274361193180084,0.05980909615755081,-0.1784341782331467,0.07246339321136475,0.1564550399780273,0.03604352474212646,XArbitraryZVertical,-0.529515704648919,-0.3431108019996426,0.6662963178877396,-0.3974133304476728,0.9783423542976379,0.03635372966527939,-0.2037761956453323
2020-07-29 15:58:23.861 +0200,78799.76298312501,0.9513092041015625,0.2051849365234375,-0.208099365234375,78799.74543212501,-2.036509132354526,1.364871695193349,-0.03999058564913426,-0.3905493021011353,-0.1168889775872231,-0.16940838098526,0.03416633605957031,0.1515742242336273,0.01655900478363037,XArbitraryZVertical,-0.5285840020591528,-0.3441576966032648,0.6670452333299783,-0.3964909769012317,0.9780897498130798,0.03997992724180222,-0.2043088674545288
2020-07-29 15:58:23.881 +0200,78799.783018125,0.922210693359375,0.2144775390625,-0.1807861328125,78799.76546712501,-2.022913060482594,1.361530745988709,-0.04596990706895528,-1.044050931930542,-0.2737829685211182,-0.1324423402547836,-0.00208747386932373,0.1603483259677887,0.01868730783462524,XArbitraryZVertical,-0.5238549437994751,-0.3490199747341916,0.6661685586068071,-0.3999757509373439,0.9771504402160645,0.04595371708273888,-0.2075221091508865
2020-07-29 15:58:23.901 +0200,78799.80305312501,0.88043212890625,0.2266845703125,-0.156158447265625,78799.785502125,-1.997468950101871,1.355791905723177,-0.05338771548194526,-1.572580933570862,-0.424942672252655,-0.05201651155948639,-0.02965736389160156,0.1624123454093933,0.0513916015625,XArbitraryZVertical,-0.5158615237455857,-0.3568795358579002,0.6637123541484942,-0.4074430217319861,0.9755834937095642,0.05336235836148262,-0.2130477726459503
2020-07-29 15:58:23.925 +0200,78799.82308812501,0.8438568115234375,0.2419891357421875,-0.1526031494140625,78799.80553712501,-1.96232236142552,1.347935277383715,-0.06131700495936197,-1.999852538108826,-0.5587388277053833,0.03425457701086998,-0.06934088468551636,0.1668955981731415,0.08339333534240723,XArbitraryZVertical,-0.5051471650978907,-0.3667746022151304,0.6597480572096552,-0.4183722116420714,0.9734362959861755,0.06127858906984329,-0.2206054627895355
2020-07-29 15:58:23.942 +0200,78799.843123125,0.8446197509765625,0.25311279296875,-0.1220703125,78799.825572125,-1.919828021945068,1.338533811961781,-0.06950643695960884,-2.292317152023315,-0.6506815552711487,0.1200348436832428,-0.1033422946929932,0.1742269396781921,0.09574812650680542,XArbitraryZVertical,-0.4922674434946824,-0.3779692091430138,0.6544111152382435,-0.4319237687235855,0.9707983732223511,0.06945048272609711,-0.2296240776777267
2020-07-29 15:58:23.962 +0200,78799.863157125,0.8948822021484375,0.2668304443359375,-0.0969696044921875,78799.84560712501,-1.871874330674483,1.328393345929085,-0.07796503111901656,-2.528994083404541,-0.7094007730484009,0.1821936219930649,-0.09966856241226196,0.1771200597286224,0.1357283592224121,XArbitraryZVertical,-0.477742490034616,-0.3900111120279434,0.6477550866007011,-0.4472883433643591,0.967815101146698,0.07788606733083725,-0.2393068969249725
2020-07-29 15:58:23.981 +0200,78799.88319212501,0.9678497314453125,0.2882537841796875,-0.066558837890625,78799.865641125,-1.819864395833593,1.318105361595241,-0.08687825933609626,-2.692710638046265,-0.7383437752723694,0.2222061455249786,-0.04626071453094482,0.1821706891059875,0.1703523397445679,XArbitraryZVertical,-0.4619131254446118,-0.4026196023104594,0.6398608152211755,-0.463801503093531,0.964591383934021,0.08676900714635849,-0.2490674406290054
2020-07-29 15:58:24.001 +0200,78799.903227125,1.017196655273438,0.306488037109375,-0.0446014404296875,78799.88567612501,-1.764985178417097,1.308117599562421,-0.09621998553084313,-2.810848951339722,-0.7614647746086121,0.2653100490570068,0.02998554706573486,0.1945176422595978,0.2099345326423645,XArbitraryZVertical,-0.4451039448719856,-0.4155103692696177,0.6308102215850073,-0.4809492242483846,0.961230993270874,0.09607157856225967,-0.2584672272205353
2020-07-29 15:58:24.022 +0200,78799.923262125,1.026504516601562,0.3176116943359375,-0.0538787841796875,78799.905711125,-1.707844359452797,1.298610140305811,-0.1061131163339975,-2.929852962493896,-0.76347416639328,0.2815062701702118,0.08271145820617676,0.2031486481428146,0.2405350208282471,XArbitraryZVertical,-0.4274161977662494,-0.4285470387782587,0.6206777663808657,-0.498419515072567,0.9577679038047791,0.1059140861034393,-0.2673256695270538
2020-07-29 15:58:24.042 +0200,78799.94329712501,1.01385498046875,0.323638916015625,-0.0458526611328125,78799.92574612501,-1.647931943217901,1.289904905767261,-0.117296512860215,-3.09508752822876,-0.771409273147583,0.2608174383640289,0.09549391269683838,0.2034288495779037,0.2390454411506653,XArbitraryZVertical,-0.4085809436424426,-0.4420496579039734,0.6093656019834446,-0.5160690808660502,0.954206645488739,0.1170277297496796,-0.2753074169158936
2020-07-29 15:58:24.062 +0200,78799.963332125,0.9738311767578125,0.3253631591796875,-0.01348876953125,78799.945781125,-1.584294729505066,1.282489126455937,-0.1313164473976842,-3.353748559951782,-0.7458959221839905,0.1612070947885513,0.08648782968521118,0.1958825588226318,0.2534859180450439,XArbitraryZVertical,-0.3879879113338552,-0.4566448363909531,0.5967882969324957,-0.5336522187183496,0.950472354888916,0.1309393644332886,-0.2818817496299744
2020-07-29 15:58:24.082 +0200,78799.98336712501,0.9187469482421875,0.33160400390625,-0.0189361572265625,78799.96581612501,-1.51653223927528,1.277486903801883,-0.149348176183021,-3.552114486694336,-0.6870925426483154,0.03811376169323921,0.05020707845687866,0.1801865696907043,0.2897736430168152,XArbitraryZVertical,-0.3653473933925043,-0.4728314324597462,0.5828416879888632,-0.5506788217192549,0.946635901927948,0.1487935930490494,-0.2859034240245819
2020-07-29 15:58:24.102 +0200,78800.003402125,0.8990020751953125,0.3501739501953125,-0.0672454833984375,78799.98585112501,-1.447472593009871,1.276084426651661,-0.1705695040816356,-3.521950483322144,-0.5375373959541321,-0.08726934343576431,-0.001329302787780762,0.1659867167472839,0.2846636176109314,XArbitraryZVertical,-0.3417101567653704,-0.4900098341362396,0.5679973876127579,-0.5661303704022081,0.9429998397827148,0.169743612408638,-0.2862490713596344
2020-07-29 15:58:24.125 +0200,78800.02343712501,0.9017181396484375,0.3624114990234375,-0.1356201171875,78800.005886125,-1.382465033046412,1.278756195906666,-0.1927821253407196,-3.191346406936646,-0.3636284470558167,-0.1781584173440933,-0.01806724071502686,0.1632411479949951,0.2327677011489868,XArbitraryZVertical,-0.3191172439151667,-0.5068309657032588,0.5534332184444472,-0.5787903548644111,0.9399179220199585,0.1915902197360992,-0.2825731039047241
2020-07-29 15:58:24.142 +0200,78800.04347141668,0.9468841552734375,0.346160888671875,-0.276641845703125,78800.02592112501,-1.326318784116257,1.284550790662645,-0.2137351743626276,-2.636162519454956,-0.1968466639518738,-0.2514669299125671,-0.01297456026077271,0.1554561704397202,0.1579091548919678,XArbitraryZVertical,-0.299350816130163,-0.5219436970600589,0.5404796286953273,-0.5880864507745127,0.9374820590019226,0.2121115475893021,-0.275927722454071
2020-07-29 15:58:24.163 +0200,78800.06350641667,0.9789886474609375,0.2781219482421875,-0.2617340087890625,78800.04595541667,-1.28216268263426,1.291096253447771,-0.2318093734465836,-2.02823805809021,-0.135378509759903,-0.2775558829307556,0.03419351577758789,0.122006744146347,0.009818971157073975,XArbitraryZVertical,-0.283368780971827,-0.5341914592647798,0.530271219364074,-0.5942677176477869,0.935430109500885,0.2297388762235641,-0.2686832249164581
2020-07-29 15:58:24.182 +0200,78800.08354141666,0.956939697265625,0.2220611572265625,-0.1821136474609375,78800.06599041667,-1.246120179642097,1.297131084644275,-0.2473105340570599,-1.817520499229431,-0.1319890916347504,-0.2640503346920013,0.06818771362304688,0.03927552700042725,0.01824438571929932,XArbitraryZVertical,-0.2699560648463316,-0.544154512921312,0.5219920644925418,-0.5987853333048015,0.9334933161735535,0.2447972148656845,-0.2620391845703125
2020-07-29 15:58:24.202 +0200,78800.10357641667,0.9385833740234375,0.2455291748046875,-0.157440185546875,78800.08602541668,-1.212486167019383,1.302504655903194,-0.2615319047039228,-1.673449635505676,-0.1593213826417923,-0.2166962325572968,0.04814541339874268,-0.03021413087844849,0.09204107522964478,XArbitraryZVertical,-0.2572200377232189,-0.5529942541680316,0.5142512860704798,-0.6029766353347641,0.9314367175102234,0.2585606575012207,-0.2560704052448273
2020-07-29 15:58:24.224 +0200,78800.12361141667,0.951446533203125,0.2942962646484375,-0.1943206787109375,78800.10606041667,-1.182084118722827,1.308041985960789,-0.2729099606637554,-1.433422923088074,-0.08748767524957657,-0.09838328510522842,0.03125029802322388,-0.01745352149009705,0.1109170317649841,XArbitraryZVertical,-0.2462092240278175,-0.5606396130185526,0.506848822278422,-0.6067689330828325,0.9299390912055969,0.2695348262786865,-0.2501284778118134
2020-07-29 15:58:24.242 +0200,78800.14364641668,0.951416015625,0.2919464111328125,-0.2491607666015625,78800.12609541666,-1.156432558201208,1.314033771210119,-0.2800328513925657,-1.129275321960449,-0.01452824845910072,0.03947657719254494,0.0445021390914917,0.02462771534919739,0.06811374425888062,XArbitraryZVertical,-0.2379896121299278,-0.5668613632966648,0.4998986378627996,-0.6100250000725247,0.9295405745506287,0.2763872146606445,-0.2440582811832428
2020-07-29 15:58:24.263 +0200,78800.16368141667,0.946319580078125,0.2450408935546875,-0.2941741943359375,78800.14613041667,-1.135356913892178,1.320175417571982,-0.2831396437384961,-0.9340364336967468,0.03379747271537781,0.1611090004444122,0.04384243488311768,0.019366055727005,0.007490336894989014,XArbitraryZVertical,-0.2324209383290273,-0.571764947566228,0.493430488339773,-0.612855415278327,0.9301856160163879,0.2793716490268707,-0.2381307035684586
2020-07-29 15:58:24.282 +0200,78800.18371641666,0.939971923828125,0.210479736328125,-0.2731170654296875,78800.16616541667,-1.116002014476135,1.326140508552929,-0.2834889293641231,-0.9015569090843201,0.02313630469143391,0.2601381540298462,0.03746843338012695,-0.02786672115325928,-0.04296416044235229,XArbitraryZVertical,-0.228206217197255,-0.5758861209774856,0.4868777509023609,-0.6158142136780902,0.9314947724342346,0.2797070145606995,-0.2325541973114014
2020-07-29 15:58:24.302 +0200,78800.20375141667,0.9282989501953125,0.210906982421875,-0.26470947265625,78800.18620041668,-1.095665431034071,1.33226174770287,-0.2819121103886795,-0.9468452930450439,0.01718094386160374,0.3590586483478546,0.02933186292648315,-0.06095051765441895,-0.02737325429916382,XArbitraryZVertical,-0.2243682275948191,-0.5798128569383469,0.4795418988652225,-0.6192862809794242,0.9333282113075256,0.2781927883625031,-0.2269518971443176
2020-07-29 15:58:24.324 +0200,78800.22378641667,0.9343109130859375,0.229888916015625,-0.2848968505859375,78800.20623541667,-1.074473245707689,1.338240801991159,-0.2782343430278938,-0.9383735060691833,0.0007476429454982281,0.4731954038143158,0.01538604497909546,-0.05707466602325439,-0.0241856575012207,XArbitraryZVertical,-0.2209334316651937,-0.5834274065702425,0.4714312815963858,-0.6233405544027553,0.935657799243927,0.2746583223342896,-0.2216017544269562
2020-07-29 15:58:24.342 +0200,78800.24382141668,0.964385986328125,0.2423248291015625,-0.2966156005859375,78800.22627041666,-1.05338561192185,1.343985148489551,-0.2720790831190345,-0.8856827616691589,-0.005922509822994471,0.5852603316307068,0.01858091354370117,-0.03231310844421387,-0.04925382137298584,XArbitraryZVertical,-0.2182983872031991,-0.5865544130955563,0.4627394241714416,-0.6278312168772728,0.9385448694229126,0.2687346041202545,-0.2165994644165039
2020-07-29 15:58:24.362 +0200,78800.26385641667,0.9877471923828125,0.242889404296875,-0.29608154296875,78800.24630541667,-1.032940629928075,1.349212369467653,-0.2634375457865029,-0.849378764629364,-0.02026176825165749,0.6923767924308777,0.04538750648498535,-0.01174622774124146,-0.06527203321456909,XArbitraryZVertical,-0.2165687005852039,-0.5890683176471097,0.4536376619974193,-0.6327001819373607,0.9418947100639343,0.2604010403156281,-0.21219302713871
2020-07-29 15:58:24.382 +0200,78800.28389141668,0.975311279296875,0.2454833984375,-0.2834930419921875,78800.26634041667,-1.012679032531926,1.353429335160889,-0.252690247117307,-0.8203015923500061,-0.07613515108823776,0.776627779006958,0.06527060270309448,-0.001042917370796204,-0.06803816556930542,XArbitraryZVertical,-0.2153757967665839,-0.5909381645542332,0.4441027024909301,-0.6381051195578031,0.9454593062400818,0.250009685754776,-0.2088107019662857
2020-07-29 15:58:24.403 +0200,78800.30392641667,0.9817047119140625,0.245819091796875,-0.277374267578125,78800.28637541668,-0.9933530286636735,1.355406931935881,-0.238484396384473,-0.7640877366065979,-0.1203138008713722,0.8340612649917603,0.04914158582687378,0.01499560475349426,-0.05655419826507568,XArbitraryZVertical,-0.215176504204144,-0.5914893994533749,0.4341455191020528,-0.6444819687159548,0.9492443203926086,0.236230194568634,-0.2076787203550339
2020-07-29 15:58:24.441 +0200,78800.32396141667,1.0032958984375,0.24993896484375,-0.279266357421875,78800.30641041667,-0.9750642963662172,1.355587111991648,-0.2232960554037224,-0.7172561883926392,-0.1612628251314163,0.8855077624320984,0.0521855354309082,0.0297570526599884,-0.04987800121307373,XArbitraryZVertical,-0.2152458255849044,-0.5912226791719711,0.4243550927645105,-0.6511895528505988,0.9526773691177368,0.2214450389146805,-0.2082499563694
2020-07-29 15:58:24.446 +0200,78800.34399641668,1.011215209960938,0.259246826171875,-0.2774200439453125,78800.32644541668,-0.9569699211026297,1.355617374196094,-0.2086374204251814,-0.701327383518219,-0.2313577681779861,0.9188268184661865,0.07077640295028687,0.04784685373306274,-0.05114388465881348,XArbitraryZVertical,-0.2151610727699673,-0.5909820640759067,0.4146703252113801,-0.6576430949399339,0.9557523727416992,0.2071270644664764,-0.208891823887825
2020-07-29 15:58:24.463 +0200,78800.36403141667,1.036788940429688,0.25933837890625,-0.267364501953125,78800.34648041667,-0.9390771837086236,1.35373461941737,-0.1934107295362219,-0.6879813671112061,-0.3134454190731049,0.934531033039093,0.07618427276611328,0.07171192765235901,-0.04690343141555786,XArbitraryZVertical,-0.2149628972126449,-0.5900153587639465,0.4050060337592156,-0.6645621721157182,0.9583263397216797,0.1922071427106857,-0.2113456577062607
2020-07-29 15:58:24.483 +0200,78800.38406641668,1.102935791015625,0.2549896240234375,-0.2454071044921875,78800.36651541667,-0.9211751885908115,1.350059438621428,-0.1781013837721439,-0.7015426158905029,-0.386574774980545,0.9369707107543945,0.09983044862747192,0.08648359775543213,-0.03280872106552124,XArbitraryZVertical,-0.2144667436505955,-0.5884397571108695,0.3954057583549788,-0.671860871383583,0.9603020548820496,0.177161306142807,-0.2154853343963623
2020-07-29 15:58:24.502 +0200,78800.40410141667,1.176177978515625,0.24273681640625,-0.194671630859375,78800.38655041668,-0.9021257205930285,1.344362566647977,-0.1632072478505509,-0.816351056098938,-0.5039600133895874,0.9223797917366028,0.1647850275039673,0.0964556485414505,-0.004963219165802002,XArbitraryZVertical,-0.2131409812709603,-0.5863537589936886,0.3856401731716715,-0.6797366330673674,0.961523711681366,0.1624836623668671,-0.2215203791856766
2020-07-29 15:58:24.525 +0200,78800.42413641667,1.19927978515625,0.222137451171875,-0.1287994384765625,78800.40658541667,-0.8793469640664712,1.336445619551887,-0.14978598732178,-1.093164443969727,-0.644381582736969,0.89071124792099,0.2377826571464539,0.09713771939277649,0.05366665124893188,XArbitraryZVertical,-0.2098418017548771,-0.5840896381751316,0.375112183934727,-0.6885466995993347,0.9617744088172913,0.1492265164852142,-0.2296114265918732
2020-07-29 15:58:24.543 +0200,78800.44417141668,1.102340698242188,0.2155609130859375,-0.095550537109375,78800.42662041668,-0.8496080058800412,1.326016512683598,-0.1392209365646318,-1.52939236164093,-0.830430805683136,0.828612744808197,0.2618318796157837,0.08673915266990662,0.1296730041503906,XArbitraryZVertical,-0.2031087942786408,-0.5820204935325685,0.3630458554437638,-0.6987108205465384,0.9608036279678345,0.1387716382741928,-0.239997923374176
2020-07-29 15:58:24.562 +0200,78800.46420641667,0.97552490234375,0.2455596923828125,-0.1207733154296875,78800.44665541667,-0.8115991615190633,1.312756934402379,-0.1327487267294029,-1.938694357872009,-0.9900734424591064,0.7147570848464966,0.167252242565155,0.08641916513442993,0.1755495071411133,XArbitraryZVertical,-0.1920921735795082,-0.5801986755036297,0.3492263016966883,-0.7102894619864767,0.9583852887153625,0.1323591768741608,-0.2529401779174805
2020-07-29 15:58:24.582 +0200,78800.48424141668,0.8745269775390625,0.26031494140625,-0.1533966064453125,78800.46669041667,-0.7678401747178811,1.297799939492482,-0.1315238904021487,-2.167652368545532,-1.068820953369141,0.536664605140686,0.04408037662506104,0.1176025867462158,0.1643271446228027,XArbitraryZVertical,-0.177313496243294,-0.5787185883126629,0.3346047945917888,-0.7222772405864298,0.9546504020690918,0.1311450302600861,-0.2672894299030304
2020-07-29 15:58:24.603 +0200,78800.50427641667,0.8685302734375,0.2522735595703125,-0.1811065673828125,78800.48672541667,-0.7229548410220777,1.28195804977372,-0.1355372983444492,-2.183427333831787,-1.094049096107483,0.3011526465415955,-0.05216991901397705,0.1284767985343933,0.1462775468826294,XArbitraryZVertical,-0.160226088929194,-0.5772472075746988,0.3206853103462862,-0.7336717140990705,0.9497842192649841,0.1351227015256882,-0.2822265326976776
2020-07-29 15:58:24.625 +0200,78800.52431141667,0.966583251953125,0.2457275390625,-0.189544677734375,78800.50676041667,-0.6807681666608438,1.266434523429724,-0.144574837274704,-2.053225040435791,-1.03923487663269,0.06259883195161819,-0.05260622501373291,0.1117039024829865,0.1325504779815674,XArbitraryZVertical,-0.1421546610156642,-0.5757717689104217,0.3087084462428303,-0.7436249335582853,0.9440851807594299,0.1440717130899429,-0.2965578436851501
2020-07-29 15:58:24.643 +0200,78800.54434641667,1.044906616210938,0.237396240234375,-0.1517791748046875,78800.52679541668,-0.6429568639233189,1.2514020137017,-0.1572230061290481,-1.887935519218445,-1.040738224983215,-0.1146135777235031,0.05166161060333252,0.09295746684074402,0.1373435854911804,XArbitraryZVertical,-0.1240888782281384,-0.5740579914839745,0.298955505647346,-0.7521202753175492,0.9377154111862183,0.1565760672092438,-0.3101187348365784
2020-07-29 15:58:24.663 +0200,78800.56438141667,1.090133666992188,0.204132080078125,-0.1101531982421875,78800.54683041667,-0.608950342423613,1.235683113415828,-0.1727035668479824,-1.80867612361908,-1.087488651275635,-0.2678682804107666,0.1371965408325195,0.06972716748714447,0.1886371374130249,XArbitraryZVertical,-0.1059488393385188,-0.5716493799978436,0.291121118559406,-0.7597633586157555,0.930324375629425,0.1718463152647018,-0.3239836692810059
2020-07-29 15:58:24.683 +0200,78800.58441641668,1.091995239257812,0.179290771484375,-0.134979248046875,78800.56686541667,-0.5762929393260997,1.219207969339249,-0.1911057146276961,-1.810654640197754,-1.150801539421082,-0.3741714060306549,0.1908040642738342,0.01880466938018799,0.2440556883811951,XArbitraryZVertical,-0.08696320142187164,-0.568662923540845,0.2842984228973837,-0.7669643407333113,0.9217353463172913,0.1899445950984955,-0.338119775056839
2020-07-29 15:58:24.703 +0200,78800.60445041668,1.088516235351562,0.1523590087890625,-0.2266387939453125,78800.58690041667,-0.5447684557358101,1.201922635676078,-0.2110250650802491,-1.784826278686523,-1.204047679901123,-0.3811672329902649,0.2021223306655884,-0.02507996559143066,0.2333251237869263,XArbitraryZVertical,-0.06761030690885328,-0.5649296957731851,0.2780131268019447,-0.7739456570083821,0.9120428562164307,0.2094623297452927,-0.3525665700435638
2020-07-29 15:58:24.725 +0200,78800.62448541667,1.03662109375,0.1318206787109375,-0.2632293701171875,78800.60693441668,-0.5136548257079446,1.184374920412804,-0.2308678456974279,-1.778306484222412,-1.232452750205994,-0.340409517288208,0.2087463736534119,-0.07090122997760773,0.1556280851364136,XArbitraryZVertical,-0.04840990240105866,-0.5605515436206523,0.2715386671440754,-0.7808361979834864,0.9016882181167603,0.2288224250078201,-0.3668769001960754
2020-07-29 15:58:24.745 +0200,78800.64452041667,0.940673828125,0.1223602294921875,-0.2742919921875,78800.62696941667,-0.4818881404573141,1.167030137446476,-0.2505983235927154,-1.831743597984314,-1.249478578567505,-0.2853798568248749,0.1674124598503113,-0.1101349890232086,0.132439136505127,XArbitraryZVertical,-0.02915935613319387,-0.5557369263636066,0.2644397132570155,-0.7876406564179207,0.8908637762069702,0.2479836344718933,-0.3806124031543732
2020-07-29 15:58:24.780 +0200,78800.66455541668,0.8458251953125,0.121429443359375,-0.3105010986328125,78800.64700441668,-0.4486417550071275,1.150959740661534,-0.2700092662637645,-1.866570711135864,-1.204436779022217,-0.1960718482732773,0.08199614286422729,-0.1378962099552155,0.1333096623420715,XArbitraryZVertical,-0.009874125451487997,-0.5508911674149521,0.2563336989450077,-0.7941753506959366,0.8800705075263977,0.2667403817176819,-0.3928428590297699
2020-07-29 15:58:24.783 +0200,78800.68459041667,0.730010986328125,0.1233367919921875,-0.316314697265625,78800.66703941667,-0.41495084604419,1.136563671619035,-0.2877530836970815,-1.790588140487671,-1.162876009941101,-0.06828351318836212,-0.002922415733337402,-0.1554704308509827,0.1074168682098389,XArbitraryZVertical,0.008538159402555812,-0.5460942838426677,0.2473305881831567,-0.8003346974435661,0.8698928952217102,0.2837983965873718,-0.4034162759780884
2020-07-29 15:58:24.803 +0200,78800.70462541668,0.6285400390625,0.1022186279296875,-0.3443756103515625,78800.68707441667,-0.3818377313482649,1.123480628603288,-0.3026822162870983,-1.706305146217346,-1.10481333732605,0.06642469018697739,-0.1096935868263245,-0.1674990355968475,0.1108403205871582,XArbitraryZVertical,0.02535485701052684,-0.5412165798215297,0.2376115602678511,-0.8062149135116125,0.8606245517730713,0.2980815470218658,-0.4128834903240204
2020-07-29 15:58:24.823 +0200,78800.72466041667,0.556884765625,0.072662353515625,-0.3302764892578125,78800.70710941667,-0.3491876205020049,1.111878735493044,-0.314750319406363,-1.614675402641296,-1.039488673210144,0.2134134024381638,-0.2032269239425659,-0.1998352408409119,0.09090948104858398,XArbitraryZVertical,0.04056019978977293,-0.5364203797749707,0.227178721453029,-0.8117868554984949,0.852489173412323,0.309579074382782,-0.4212161004543304
2020-07-29 15:58:24.843 +0200,78800.74469541667,0.5205230712890625,0.055755615234375,-0.2882080078125,78800.72714441667,-0.3161835611293753,1.102425006589904,-0.3236273912453333,-1.594582080841064,-0.930637001991272,0.4066699147224426,-0.2685347199440002,-0.2376152873039246,0.1116265058517456,XArbitraryZVertical,0.05416081471453554,-0.53204058952416,0.215688137670621,-0.8169932857508095,0.8459835052490234,0.3180077373981476,-0.4279988408088684
2020-07-29 15:58:24.874 +0200,78800.76473041667,0.529937744140625,0.0643768310546875,-0.28448486328125,78800.74717941668,-0.2803130794410133,1.096774393048737,-0.3294300671802977,-1.706412792205811,-0.7788693308830261,0.6280167698860168,-0.3009077310562134,-0.2598844766616821,0.1575234532356262,XArbitraryZVertical,0.06671487561266723,-0.5287605922234038,0.2022420288354033,-0.8216200984381068,0.841895580291748,0.3235037922859192,-0.4319227337837219
2020-07-29 15:58:24.883 +0200,78800.78476541667,0.560302734375,0.1067047119140625,-0.2566986083984375,78800.76721441667,-0.2390662405269147,1.095962508684579,-0.3323082016985243,-1.895856499671936,-0.6502101421356201,0.9086955189704895,-0.2903394103050232,-0.2539191246032715,0.1614962220191956,XArbitraryZVertical,0.07889762352385918,-0.5269590653267371,0.185934162707437,-0.825540927467778,0.8407130241394043,0.3262258172035217,-0.4321786165237427
2020-07-29 15:58:24.903 +0200,78800.80480041668,0.6139678955078125,0.153350830078125,-0.229278564453125,78800.78724941667,-0.1912061054359586,1.100055345574605,-0.3315269819991837,-2.071533441543579,-0.493610680103302,1.223636269569397,-0.261914849281311,-0.2108707129955292,0.1860342025756836,XArbitraryZVertical,0.09081369142157877,-0.5266195099317248,0.1661192455549598,-0.8287515128842405,0.8427016139030457,0.3254872262477875,-0.4288495182991028
2020-07-29 15:58:24.923 +0200,78800.82483541667,0.682891845703125,0.173858642578125,-0.2179412841796875,78800.80728441667,-0.1374089112257684,1.109446792222336,-0.3258081906907531,-2.229814291000366,-0.2963687181472778,1.575085401535034,-0.2137556672096252,-0.1589434742927551,0.206515908241272,XArbitraryZVertical,0.1018590741091508,-0.5279730974845358,0.142805814514758,-0.8309485876009431,0.8483448624610901,0.3200745582580566,-0.4217382669448853
2020-07-29 15:58:24.943 +0200,78800.84487041667,0.76409912109375,0.2205810546875,-0.2117156982421875,78800.82731941667,-0.07717735335584225,1.124413961926912,-0.315009787474444,-2.429542064666748,-0.1027744859457016,1.882670879364014,-0.15389084815979,-0.1284360289573669,0.2068513631820679,XArbitraryZVertical,0.1123025354045857,-0.531184455492639,0.1157867802613208,-0.8317599455002327,0.8576295971870422,0.3098257780075073,-0.4104624390602112
2020-07-29 15:58:24.963 +0200,78800.86490541667,0.840911865234375,0.2689971923828125,-0.2173309326171875,78800.84735441668,-0.01138946471247532,1.144311943814237,-0.2993915046891723,-2.565750598907471,0.1082378849387169,2.167609691619873,-0.08468145132064819,-0.06718850135803223,0.1982547640800476,XArbitraryZVertical,0.1223341071730189,-0.5360959931529299,0.0854826606077051,-0.8308599099575018,0.8699264526367188,0.2949388325214386,-0.3952709138393402
2020-07-29 15:58:24.983 +0200,78800.88494041667,0.9194488525390625,0.309478759765625,-0.259002685546875,78800.86738941667,0.05751817565808724,1.168275589059074,-0.278292652943727,-2.608016967773438,0.3221014440059662,2.403819799423218,-0.02226114273071289,0.0009603798389434814,0.1744877099990845,XArbitraryZVertical,0.1313567525647037,-0.542597358446294,0.052702124691202,-0.8279830304261747,0.8846772313117981,0.2747143805027008,-0.3766670227050781
2020-07-29 15:58:25.003 +0200,78800.90497541668,0.9900665283203125,0.3539276123046875,-0.31488037109375,78800.88742441667,0.1268665723125711,1.194910705727108,-0.2517548713097603,-2.530674695968628,0.506861686706543,2.57322096824646,0.04048585891723633,0.06642997264862061,0.1121871471405029,XArbitraryZVertical,0.1389660007646083,-0.5503873719517616,0.01848737133483441,-0.8230555004027812,0.9008604884147644,0.2491038888692856,-0.3555243909358978
2020-07-29 15:58:25.023 +0200,78800.92501041667,1.018173217773438,0.3939361572265625,-0.35772705078125,78800.90745941667,0.1929295588185713,1.221934049415144,-0.2199827144309617,-2.337680816650391,0.6434144377708435,2.652139902114868,0.09524405002593994,0.1410190165042877,0.03490942716598511,XArbitraryZVertical,0.1444119583287074,-0.5588824496877656,-0.01573675429615862,-0.8164238904341529,0.9171150922775269,0.218212753534317,-0.3335911929607391
2020-07-29 15:58:25.045 +0200,78800.94504541667,1.004486083984375,0.448394775390625,-0.4169921875,78800.92749441667,0.2527104901730515,1.24815925482091,-0.1844913751184202,-1.980573058128357,0.7575130462646484,2.608934879302979,0.1085271835327148,0.2149486541748047,-0.02930819988250732,XArbitraryZVertical,0.1474818126894171,-0.5678073320102183,-0.04843173307909404,-0.8083923904325476,0.9323078393936157,0.1834465712308884,-0.3116878867149353
2020-07-29 15:58:25.063 +0200,78800.96508041667,0.954071044921875,0.49261474609375,-0.393585205078125,78800.94752941668,0.3009181755940833,1.272285259269893,-0.1457528949400794,-1.31562077999115,0.8831383585929871,2.509283065795898,0.08183097839355469,0.3066877126693726,-0.108778715133667,XArbitraryZVertical,0.1467218253030065,-0.577046943147756,-0.07748347240175785,-0.7996785208343442,0.9456411004066467,0.1452373862266541,-0.2909790575504303
2020-07-29 15:58:25.083 +0200,78800.98511541667,0.9464111328125,0.4091339111328125,-0.37384033203125,78800.96756441667,0.3350283801688909,1.296244608703022,-0.1048081657341115,-0.831658661365509,1.076014995574951,2.35077977180481,0.02007484436035156,0.3905413448810577,-0.1062038540840149,XArbitraryZVertical,0.1416901330411361,-0.58746065059997,-0.101560544197982,-0.7902527546696749,0.9572650194168091,0.1046163886785507,-0.2696277797222137
2020-07-29 15:58:25.103 +0200,78801.00515041668,0.9576873779296875,0.320587158203125,-0.3662261962890625,78800.98759941667,0.3604443273137091,1.320425555329814,-0.06536285553404496,-0.6178581118583679,1.095444083213806,2.09510612487793,0.003158688545227051,0.3454052805900574,-0.1083083152770996,XArbitraryZVertical,0.135262693302611,-0.5984036668535447,-0.1217907517311713,-0.7802461400043349,0.9667518138885498,0.0653163269162178,-0.2472341060638428
2020-07-29 15:58:25.123 +0200,78801.02518541667,0.96795654296875,0.3161773681640625,-0.3454437255859375,78801.00763441667,0.3810607373942145,1.342820516205784,-0.03052896074734638,-0.5618168115615845,1.035647511482239,1.754150032997131,0.007683038711547852,0.290804922580719,-0.1215088963508606,XArbitraryZVertical,0.1295321626840273,-0.6084989673382876,-0.1389329436644059,-0.7704855692842973,0.9736719131469727,0.03052421845495701,-0.2259008437395096
2020-07-29 15:58:25.143 +0200,78801.045222,0.98583984375,0.34124755859375,-0.3239593505859375,78801.02766941667,0.3984371545103621,1.363205592001163,-0.002415256801877076,-0.5046411156654358,0.9632731676101685,1.362953662872314,0.01321470737457275,0.3138208091259003,-0.1200437545776367,XArbitraryZVertical,0.1256059519355023,-0.617391264021014,-0.1529387385140427,-0.7613545922162896,0.9785273671150208,0.002415254479274154,-0.2061023414134979
2020-07-29 15:58:25.163 +0200,78801.06525700001,1.013092041015625,0.3623046875,-0.334503173828125,78801.047706,0.4116332410955427,1.381592929197995,0.01899625833552791,-0.3632626831531525,0.885831356048584,1.003240942955017,0.027732253074646,0.3597809970378876,-0.1161800622940063,XArbitraryZVertical,0.1230406189199056,-0.6251717332111565,-0.1634301031151615,-0.7532010461630931,0.981977105140686,-0.01899511553347111,-0.188042625784874
2020-07-29 15:58:25.183 +0200,78801.085292,1.036392211914062,0.349853515625,-0.3347320556640625,78801.06774100001,0.4209107980250925,1.398542817039762,0.03436432594030663,-0.3083633482456207,0.8335084915161133,0.6786697506904602,0.05240654945373535,0.395827054977417,-0.1430577039718628,XArbitraryZVertical,0.1215852444817726,-0.6321124566540612,-0.1706689043430427,-0.7460046601156816,0.9846193194389343,-0.03435756266117096,-0.1713017374277115
2020-07-29 15:58:25.204 +0200,78801.10532700001,1.060028076171875,0.32830810546875,-0.33636474609375,78801.087776,0.429809413299154,1.41404082991496,0.04357026977058066,-0.4320316314697266,0.7386174201965332,0.3711504638195038,0.07357752323150635,0.3923512101173401,-0.1582494378089905,XArbitraryZVertical,0.1223100635865362,-0.6380103264934853,-0.1759233285459406,-0.739617450872133,0.9868015050888062,-0.04355648532509804,-0.1559661477804184
2020-07-29 15:58:25.224 +0200,78801.12536200001,1.0831298828125,0.3092498779296875,-0.3538970947265625,78801.10781100001,0.4412671764304039,1.42731789101139,0.04636962391510122,-0.6656275987625122,0.6368729472160339,0.08254864066839218,0.09539937973022461,0.3735344111919403,-0.172696053981781,XArbitraryZVertical,0.1261196025980595,-0.6423996908934801,-0.1802060171710633,-0.7341268399959537,0.9886607527732849,-0.04635300859808922,-0.1428329646587372
2020-07-29 15:58:25.244 +0200,78801.145397,1.054534912109375,0.2952880859375,-0.3601531982421875,78801.127846,0.4568124710362529,1.438085950935751,0.04318895062412531,-0.9248735904693604,0.5053972005844116,-0.1923931390047073,0.1169188618659973,0.3513758778572083,-0.2006049752235413,XArbitraryZVertical,0.1332784661633679,-0.6450875597178251,-0.1841840669115255,-0.7295033506437416,0.9902825951576233,-0.04317552596330643,-0.1321977823972702
2020-07-29 15:58:25.264 +0200,78801.16543200001,0.996368408203125,0.3022918701171875,-0.3723907470703125,78801.14788100001,0.476736872898335,1.446119406034337,0.03395118314676748,-1.132622122764587,0.3654824793338776,-0.4713736176490784,0.08697402477264404,0.3284076750278473,-0.2145840525627136,XArbitraryZVertical,0.143844625687139,-0.6458850320523203,-0.1879261026103211,-0.7258270915118472,0.9916660189628601,-0.03394466266036034,-0.1242825016379356
2020-07-29 15:58:25.284 +0200,78801.185467,1.001312255859375,0.2928009033203125,-0.4111480712890625,78801.16791600001,0.4982286224234054,1.451974460987072,0.01912812264642165,-1.147391557693481,0.2920575439929962,-0.7295924425125122,0.0277329683303833,0.3209538757801056,-0.2324433326721191,XArbitraryZVertical,0.1567362887571754,-0.6451149904819113,-0.19052263391117,-0.7231607303683485,0.9927672743797302,-0.01912695541977882,-0.1185207664966583
2020-07-29 15:58:25.304 +0200,78801.20550200001,1.05841064453125,0.289886474609375,-0.4269256591796875,78801.187951,0.5173791785107074,1.457495809523866,-5.643575569689719e-05,-0.9525938630104065,0.2765493988990784,-0.9445825219154358,0.03187572956085205,0.2927458882331848,-0.2765303254127502,XArbitraryZVertical,0.1703761041774093,-0.6437723600427873,-0.1908213025171122,-0.7211909131210528,0.9935883283615112,5.643575423164293e-05,-0.1130582615733147
2020-07-29 15:58:25.324 +0200,78801.22553700001,1.05255126953125,0.273284912109375,-0.4363861083984375,78801.20798600001,0.5323109444029661,1.462562661780073,-0.02236986423496576,-0.7862659096717834,0.1962790638208389,-1.09272575378418,0.08867013454437256,0.2680622041225433,-0.2972478866577148,XArbitraryZVertical,0.1836747445088019,-0.6420793312216927,-0.1885553621718173,-0.7200309465110486,0.9938997030258179,0.02236799895763397,-0.107995443046093
2020-07-29 15:58:25.344 +0200,78801.245572,1.106857299804688,0.254302978515625,-0.444793701171875,78801.228021,0.5441889551861393,1.466003362675426,-0.04691530764793869,-0.6587294936180115,0.1190151572227478,-1.212450861930847,0.08327865600585938,0.227526843547821,-0.3101323843002319,XArbitraryZVertical,0.1965617952513199,-0.6396251787869983,-0.1845546256036045,-0.7198491179741249,0.9934200048446655,0.04689810052514076,-0.1044861823320389
2020-07-29 15:58:25.364 +0200,78801.26560700001,1.167510986328125,0.2402191162109375,-0.449005126953125,78801.24805600001,0.5540161681540886,1.468283387325871,-0.07283945855785047,-0.5853856801986694,0.03442224860191345,-1.242683410644531,0.1388603448867798,0.1832968890666962,-0.320905327796936,XArbitraryZVertical,0.2090975728738172,-0.6365902476658325,-0.1794337768608566,-0.7203016444931126,0.9921123385429382,0.07277506589889526,-0.1020621210336685
2020-07-29 15:58:25.384 +0200,78801.285642,1.191619873046875,0.223907470703125,-0.441192626953125,78801.26809100001,0.5630070034128711,1.468143995158153,-0.09842566986881468,-0.5737851858139038,-0.1320410221815109,-1.205254673957825,0.2016519904136658,0.1443409621715546,-0.3252003192901611,XArbitraryZVertical,0.2209585239736409,-0.6326051194449422,-0.1743466919531884,-0.7215201354946361,0.9899214506149292,0.09826682507991791,-0.1019761860370636
2020-07-29 15:58:25.404 +0200,78801.30567700001,1.224380493164062,0.1917724609375,-0.4818267822265625,78801.288126,0.5729846131538745,1.464694941040175,-0.1232706805248258,-0.6721229553222656,-0.325759083032608,-1.163258194923401,0.2287763357162476,0.103937566280365,-0.3143410682678223,XArbitraryZVertical,0.2325217801215873,-0.6272034903113706,-0.1702305713612937,-0.7235819756833455,0.9868308901786804,0.1229587197303772,-0.1050988063216209
2020-07-29 15:58:25.424 +0200,78801.32571200001,1.17950439453125,0.138214111328125,-0.4285888671875,78801.30816100001,0.5847285764033967,1.457119884042607,-0.1469110277927718,-0.7509278655052185,-0.5908387303352356,-1.028595447540283,0.265427827835083,0.0489475429058075,-0.3480367064476013,XArbitraryZVertical,0.2438109077312509,-0.6200413667407965,-0.1676796401583621,-0.7266282050618286,0.9828433394432068,0.146383136510849,-0.1122098863124847
2020-07-29 15:58:25.444 +0200,78801.345747,1.117279052734375,0.142181396484375,-0.3952789306640625,78801.328196,0.5982573917466779,1.444887876071801,-0.168067876295475,-0.6825234889984131,-0.8375046849250793,-0.8900494575500488,0.2251744270324707,-0.0249975323677063,-0.2834841012954712,XArbitraryZVertical,0.2543371060637392,-0.6110722653545806,-0.1672572204447721,-0.7307039576610153,0.9781053066253662,0.1672777682542801,-0.1238066479563713
2020-07-29 15:58:25.464 +0200,78801.36578200001,1.052825927734375,0.14013671875,-0.251617431640625,78801.34823100001,0.6004847065986234,1.426381041391713,-0.1846626178590417,0.4152650535106659,-1.048850655555725,-0.7649108171463013,0.1681592464447021,-0.03697022795677185,-0.2329429388046265,XArbitraryZVertical,0.2592810200839092,-0.6016974552940915,-0.1650944458566089,-0.7372092136076087,0.9727655053138733,0.1836148947477341,-0.1414670497179031
2020-07-29 15:58:25.484 +0200,78801.385817,1.02191162109375,-0.18096923828125,-0.2095489501953125,78801.368266,0.5835218903245105,1.402268933306838,-0.1964182602220416,0.7344200015068054,-1.026381611824036,-0.62350994348526,0.1094511747360229,-0.05027720332145691,-0.06680309772491455,XArbitraryZVertical,0.2564134241012648,-0.5932953255529555,-0.1581507822356255,-0.746485800250711,0.9668770432472229,0.1951577216386795,-0.1645056307315826
2020-07-29 15:58:25.504 +0200,78801.40585200001,1.041763305664062,-0.1063385009765625,-0.1875152587890625,78801.388301,0.5776909538571515,1.380110710019563,-0.2082792912772717,-0.4442600607872009,-1.075568318367004,-0.6852089166641235,0.08460831642150879,-0.3827196955680847,-0.004312992095947266,XArbitraryZVertical,0.2571921109011724,-0.5840669690396448,-0.155053863649891,-0.7541062685459679,0.9606543779373169,0.2067766785621643,-0.1854359805583954
2020-07-29 15:58:25.526 +0200,78801.425887,1.091079711914062,0.092529296875,-0.15948486328125,78801.40833600001,0.5950550831023997,1.363060006469797,-0.2259598667330563,-1.410621881484985,-0.968877375125885,-0.6698490977287292,0.1113172769546509,-0.3249346017837524,0.0329088568687439,XArbitraryZVertical,0.2672143591337284,-0.5727959603580479,-0.158313800478488,-0.7585762676160827,0.953626275062561,0.2240419387817383,-0.2010025531053543
2020-07-29 15:58:25.544 +0200,78801.445922,1.045684814453125,0.1388397216796875,-0.1607666015625,78801.428371,0.6231921168400887,1.351859983775767,-0.2442042629749059,-1.618993639945984,-0.8159826397895813,-0.5249678492546082,0.1669355630874634,-0.1433779299259186,0.07044708728790283,XArbitraryZVertical,0.2808173224339186,-0.561932318385041,-0.1648579572017804,-0.7603916638330808,0.9471672177314758,0.2417842745780945,-0.2107474058866501
2020-07-29 15:58:25.564 +0200,78801.46595700001,0.9807586669921875,0.22418212890625,-0.2080078125,78801.44840600001,0.6525030866312321,1.344870631959378,-0.259675636699006,-1.479978442192078,-0.6282260417938232,-0.3977861106395721,0.1266674995422363,-0.1116861402988434,0.074776291847229,XArbitraryZVertical,0.2938984857700329,-0.5526070059969238,-0.1722208985912884,-0.760650443707096,0.9419124722480774,0.256767064332962,-0.2164983600378036
2020-07-29 15:58:25.584 +0200,78801.485992,0.8970794677734375,0.3655853271484375,-0.2468719482421875,78801.468441,0.6793466140591355,1.340202152812188,-0.2728323753768621,-1.286977648735046,-0.5531920194625854,-0.2815704047679901,0.06602567434310913,-0.03872829675674438,0.0310511589050293,XArbitraryZVertical,0.3054997012331158,-0.5446273034122302,-0.179071050305117,-0.7602529375769886,0.9375213384628296,0.2694601118564606,-0.220102071762085
2020-07-29 15:58:25.604 +0200,78801.50602700001,0.8462677001953125,0.42742919921875,-0.26959228515625,78801.488476,0.701239855875454,1.336095821581469,-0.2824087723369563,-0.9806264638900757,-0.4461147785186768,-0.153524711728096,-0.01427334547042847,0.09368914365768433,-0.004654049873352051,XArbitraryZVertical,0.3144130101557886,-0.5380284858510993,-0.1850839384557383,-0.7598773829928316,0.9340569376945496,0.2786698043346405,-0.2233396172523499
2020-07-29 15:58:25.625 +0200,78801.526062,0.8158111572265625,0.4334564208984375,-0.2667388916015625,78801.50851100001,0.7153830845798267,1.33239014384629,-0.2866837399490189,-0.3423211872577667,-0.3218311965465546,0.05927520245313644,-0.06313347816467285,0.1515297293663025,-0.02427518367767334,XArbitraryZVertical,0.3193490058681003,-0.533627408998574,-0.1897338206387198,-0.7597756654207997,0.9320568442344666,0.2827728688716888,-0.2265160083770752
2020-07-29 15:58:25.644 +0200,78801.546097,0.7799224853515625,0.3613739013671875,-0.220703125,78801.528546,0.7127399036395198,1.326328728376096,-0.2832747565989747,0.7006133794784546,-0.2142152637243271,0.2005033195018768,-0.09314095973968506,0.1607489585876465,-0.01568710803985596,XArbitraryZVertical,0.3168759600689507,-0.532346640875508,-0.1907343510215255,-0.7614572051827294,0.9315966367721558,0.2795013785362244,-0.232393354177475
2020-07-29 15:58:25.664 +0200,78801.56613200001,0.748199462890625,0.269805908203125,-0.1686859130859375,78801.54858100001,0.6897829130169322,1.316841935715868,-0.2721584812534311,1.641093969345093,-0.1040488108992577,0.3267220556735992,-0.1297159194946289,0.09909689426422119,0.03970837593078613,XArbitraryZVertical,0.3059395700445274,-0.5342357394828996,-0.1868290308556897,-0.7655639085419452,0.9322999715805054,0.2688111066818237,-0.2419863045215607
2020-07-29 15:58:25.684 +0200,78801.586167,0.7525787353515625,0.2490234375,-0.1310577392578125,78801.568616,0.6538814825682652,1.306335170302606,-0.2555104889317482,2.108762741088867,-0.0163786131888628,0.3858126699924469,-0.1629968881607056,0.02320989966392517,0.1023767590522766,XArbitraryZVertical,0.2893953308722808,-0.5383296636675561,-0.1796396197154271,-0.7708314227606431,0.9338966012001038,0.2527393698692322,-0.2529030442237854
2020-07-29 15:58:25.704 +0200,78801.60620200001,0.7906646728515625,0.2484893798828125,-0.1152191162109375,78801.588651,0.6113292813036366,1.29659723593789,-0.2354441616071193,2.346123218536377,0.08003820478916168,0.4528449475765228,-0.1607517004013062,0.02141872048377991,0.1501547694206238,XArbitraryZVertical,0.2697329769972448,-0.5436831248552583,-0.1705796316438968,-0.7762444456417588,0.9360839128494263,0.2332749217748642,-0.2633055746555328
2020-07-29 15:58:25.724 +0200,78801.626237,0.8350982666015625,0.2416839599609375,-0.1061248779296875,78801.60868600001,0.5669590958835862,1.289086634516636,-0.2130211084480095,2.388856649398804,0.1559958159923553,0.5071786642074585,-0.1253835558891296,0.04221448302268982,0.174197793006897,XArbitraryZVertical,0.2486887536007699,-0.5498150445147229,-0.160991525422474,-0.7809858735130405,0.9388691186904907,0.2114136815071106,-0.2717146277427673
2020-07-29 15:58:25.745 +0200,78801.646272,0.884765625,0.236358642578125,-0.107666015625,78801.628721,0.524030458147172,1.284154534146777,-0.1893665354123221,2.27838659286499,0.2107301652431488,0.5735934376716614,-0.08405506610870361,0.05802267789840698,0.1891109943389893,XArbitraryZVertical,0.2275565565098025,-0.5562183108775759,-0.1518289221864826,-0.7847210622654137,0.9420517683029175,0.1882367879152298,-0.2776784002780914
2020-07-29 15:58:25.764 +0200,78801.66630700001,0.9421234130859375,0.2370758056640625,-0.112274169921875,78801.64875600001,0.4853140161879227,1.281783522418064,-0.1653540464966766,2.030885696411133,0.2357875853776932,0.6396187543869019,-0.03770482540130615,0.07575806975364685,0.1909265518188477,XArbitraryZVertical,0.2074327934353719,-0.5625053754766994,-0.1440131997774884,-0.7872862127327094,0.945451557636261,0.1646015644073486,-0.2811186909675598
2020-07-29 15:58:25.784 +0200,78801.686342,0.9851837158203125,0.2467041015625,-0.1129913330078125,78801.668791,0.4527905596667383,1.281511572800383,-0.1417191795028954,1.716102838516235,0.2292367368936539,0.7009321451187134,0.01634758710861206,0.09926372766494751,0.1875752806663513,XArbitraryZVertical,0.1891578561553351,-0.5683448561829213,-0.1382460173520621,-0.7887277282555815,0.9488393068313599,0.1412452608346939,-0.2824068665504456
2020-07-29 15:58:25.805 +0200,78801.70637700001,0.9994354248046875,0.2527923583984375,-0.1095428466796875,78801.688826,0.4270875125851982,1.282278253296255,-0.1191890201146016,1.3601154088974,0.1811839938163757,0.7214058041572571,0.05645561218261719,0.1306873559951782,0.1869618892669678,XArbitraryZVertical,0.1731763706365539,-0.573370158347755,-0.1347241827676062,-0.7893706028868182,0.9518651962280273,0.1189070194959641,-0.2825132012367249
2020-07-29 15:58:25.825 +0200,78801.726412,0.997039794921875,0.2529296875,-0.10540771484375,78801.70886100001,0.408501445939506,1.283282694898777,-0.09904351139145838,0.9757171869277954,0.1251777112483978,0.6770891547203064,0.0683782696723938,0.1563142240047455,0.1900843381881714,XArbitraryZVertical,0.1600813505755049,-0.5773079097895367,-0.1332822992614571,-0.7895095564333465,0.9542522430419922,0.09888166189193726,-0.2821790874004364
2020-07-29 15:58:25.845 +0200,78801.746447,0.9797515869140625,0.2550201416015625,-0.102996826171875,78801.728896,0.3973205011530561,1.28415011545858,-0.08277988487614245,0.5442358255386353,0.06403340399265289,0.5519113540649414,0.06436216831207275,0.1722541153430939,0.1938189268112183,XArbitraryZVertical,0.1505732823321049,-0.5800373574749483,-0.1336259521865983,-0.7893215194579604,0.9559129476547241,0.08268537372350693,-0.2817687094211578
2020-07-29 15:58:25.865 +0200,78801.76648200001,0.953826904296875,0.252777099609375,-0.11370849609375,78801.74893100001,0.3937547806008367,1.284561485309516,-0.07197050095577671,0.103079579770565,0.01014194265007973,0.3722559809684753,0.04617875814437866,0.1848596036434174,0.1960762143135071,XArbitraryZVertical,0.1453496818762474,-0.581435977465828,-0.1353930863001611,-0.7889704520326181,0.9568303227424622,0.0719083845615387,-0.2816113531589508
2020-07-29 15:58:25.885 +0200,78801.786517,0.9116973876953125,0.2381591796875,-0.131927490234375,78801.768966,0.3967864790318466,1.28451035915392,-0.06732971249138429,-0.2486972361803055,-0.03967275097966194,0.1543228924274445,0.01996564865112305,0.1871335804462433,0.1855011582374573,XArbitraryZVertical,0.1444164339837643,-0.5816082520088859,-0.1379672114324035,-0.7885688083937895,0.957125723361969,0.06727885454893112,-0.2817514836788177
2020-07-29 15:58:25.905 +0200,78801.80655200001,0.88446044921875,0.22784423828125,-0.147857666015625,78801.78900100001,0.4040234229888471,1.283901888775268,-0.06853842329097386,-0.4454827308654785,-0.05957455188035965,-0.06488315761089325,-0.02191948890686035,0.1713390946388245,0.1678277254104614,XArbitraryZVertical,0.1469486316835432,-0.5807329925953606,-0.1405066876464062,-0.7882976233983177,0.9568753838539124,0.06848477572202682,-0.2823105752468109
2020-07-29 15:58:25.925 +0200,78801.826587,0.8814849853515625,0.229522705078125,-0.1789093017578125,78801.80903600001,0.4123842999912053,1.283365940160156,-0.07462857124511552,-0.509037971496582,-0.05176004022359848,-0.2815540730953217,-0.04860126972198486,0.1550972163677216,0.1522773504257202,XArbitraryZVertical,0.1517093385611869,-0.5793395613388248,-0.1420401705526191,-0.7881462670011603,0.9563062787055969,0.07455931603908539,-0.2826999127864838
2020-07-29 15:58:25.945 +0200,78801.84662200001,0.9110107421875,0.2356414794921875,-0.1894073486328125,78801.829071,0.4200229267657481,1.28307871586703,-0.08470821212948466,-0.5005195140838623,-0.03603940084576607,-0.4573609828948975,-0.0507468581199646,0.146972268819809,0.1212716102600098,XArbitraryZVertical,0.1578209741502455,-0.5776842411041808,-0.1420905169759333,-0.7881520534430577,0.9554557800292969,0.08460694551467896,-0.2827469110488892
2020-07-29 15:58:25.965 +0200,78801.86665700001,0.964263916015625,0.21405029296875,-0.2339019775390625,78801.84910600001,0.4262936140953695,1.283263605650139,-0.09724932094660968,-0.4458270967006683,-0.005571771413087845,-0.5460419058799744,-0.02020591497421265,0.1409054696559906,0.1102861166000366,XArbitraryZVertical,0.1645133873007652,-0.5760310487340248,-0.1408336432839253,-0.7882191596451469,0.9544154405593872,0.09709610790014267,-0.2822471559047699
2020-07-29 15:58:25.985 +0200,78801.886692,0.9572906494140625,0.1909637451171875,-0.2335662841796875,78801.869141,0.432696018618948,1.288946670664725,-0.112150324810048,-0.4848726093769073,-0.06139242649078369,-0.5750066041946411,0.03295695781707764,0.1048552095890045,0.06007236242294312,XArbitraryZVertical,0.1725221712923402,-0.5762320411196561,-0.1384502296104169,-0.7867808775420699,0.9545081853866577,0.1119153723120689,-0.2763854563236237
