loggingTime(txt),accelerometerTimestamp_sinceReboot(s),accelerometerAccelerationX(G),accelerometerAccelerationY(G),accelerometerAccelerationZ(G),motionTimestamp_sinceReboot(s),motionYaw(rad),motionRoll(rad),motionPitch(rad),motionRotationRateX(rad/s),motionRotationRateY(rad/s),motionRotationRateZ(rad/s),motionUserAccelerationX(G),motionUserAccelerationY(G),motionUserAccelerationZ(G),motionAttitudeReferenceFrame(txt),motionQuaternionX(R),motionQuaternionY(R),motionQuaternionZ(R),motionQuaternionW(R),motionGravityX(G),motionGravityY(G),motionGravityZ(G)
2020-07-29 16:06:07.044 +0200,79000.35100725001,0.1475067138671875,-0.2800750732421875,-0.9373321533203125,79000.34724087501,-0.441745947505008,0.1443518645912233,0.2941806585787728,-0.02825194224715233,-0.0296291708946228,0.007892933674156666,0.01395800709724426,0.00143006443977356,0.02312088012695312,XArbitraryZVertical,0.1582558190514184,0.03757652774621899,-0.205839326876034,0.9649732350456381,0.1376712322235107,-0.2899557948112488,-0.9470862150192261
2020-07-29 16:06:07.057 +0200,79000.37104125001,0.13873291015625,-0.246673583984375,-0.9590301513671875,79000.36727525,-0.4419192664030986,0.1440618378234123,0.2922442888745823,-0.01362279895693064,-0.03040281869471073,-0.01905133202672005,0.007357388734817505,0.02214378118515015,0.0003235936164855957,XArbitraryZVertical,0.1572993663844928,0.03764218306718763,-0.2060440826678875,0.9650832815157599,0.1374768912792206,-0.2881020903587341,-0.9476799368858337
2020-07-29 16:06:07.072 +0200,79000.39107625,0.1374969482421875,-0.2582244873046875,-0.9502410888671875,79000.38730925,-0.4425467787293884,0.1438026138767528,0.290863396342417,0.002116615884006023,-0.02043647132813931,-0.03980332985520363,0.003116488456726074,0.03238925337791443,-0.009283483028411865,XArbitraryZVertical,0.1566212566326866,0.03762431816102679,-0.2064370929383442,0.9651102886889764,0.1372881084680557,-0.2867794632911682,-0.9481083750724792
2020-07-29 16:06:07.092 +0200,79000.41111025,0.1418304443359375,-0.2748870849609375,-0.92291259765625,79000.40734425001,-0.4436136432213353,0.1437312356938333,0.2906758672296254,0.01213422976434231,-0.02996819093823433,-0.0388760156929493,0.00563165545463562,0.01364403963088989,0.007028579711914062,XArbitraryZVertical,0.1565438635080586,0.03752763476092352,-0.2069669533583012,0.9650131249918311,0.1372281312942505,-0.2865998148918152,-0.9481713771820068
2020-07-29 16:06:07.112 +0200,79000.43114525001,0.1373138427734375,-0.3011322021484375,-0.9206695556640625,79000.42737825001,-0.4447635037056387,0.1443728093628362,0.2911973605430441,-0.0186132974922657,-0.01219744980335236,-0.04946558177471161,-0.01506702601909637,0.003251791000366211,0.02657347917556763,XArbitraryZVertical,0.1568823553981251,0.03768773881096946,-0.2074450328160652,0.9648492684773753,0.1378149092197418,-0.2870993912220001,-0.9479351043701172
2020-07-29 16:06:07.132 +0200,79000.45118025001,0.1265869140625,-0.2973785400390625,-0.9227294921875,79000.44741325,-0.4457918131067832,0.145112577494864,0.2900402090541362,-0.04936148971319199,0.01156726665794849,-0.05191192403435707,-0.01099130511283875,-0.02123668789863586,0.03024232387542725,XArbitraryZVertical,0.1564231136151757,0.03809605093567191,-0.2079419844611524,0.9648008048205818,0.1385640650987625,-0.2859907448291779,-0.9481610059738159
2020-07-29 16:06:07.152 +0200,79000.47121425001,0.1238555908203125,-0.297515869140625,-0.9222869873046875,79000.46744825,-0.4468077579515848,0.1458513320922705,0.2877839321659514,-0.04207880795001984,0.04108920693397522,-0.05745259299874306,-0.01519891619682312,-0.0149235725402832,0.02699375152587891,XArbitraryZVertical,0.1554362877321798,0.03863113968204694,-0.2084894463473785,0.9648209098668931,0.1393579095602036,-0.2838279902935028,-0.9486944079399109
2020-07-29 16:06:07.172 +0200,79000.49124925,0.125152587890625,-0.2986297607421875,-0.930816650390625,79000.48748225,-0.4478155085877649,0.1470714900277355,0.2857460937978852,-0.04951075837016106,0.04565120115876198,-0.04757580533623695,-0.01546433568000793,-0.02250653505325317,0.02457571029663086,XArbitraryZVertical,0.1546049513393619,0.03937510315026423,-0.2089851845217117,0.9648170850686272,0.1405998319387436,-0.2818733751773834,-0.9490938186645508
2020-07-29 16:06:07.192 +0200,79000.51128425001,0.12548828125,-0.29376220703125,-0.9485626220703125,79000.50751725001,-0.4485041795069715,0.1481857410735479,0.2856815588845559,-0.04472599178552628,0.04837401583790779,-0.03265494853258133,-0.01500307023525238,-0.0224754810333252,0.01223289966583252,XArbitraryZVertical,0.1547041052905694,0.03986675888623316,-0.2092345333755876,0.9647270080295789,0.1416599601507187,-0.2818114459514618,-0.9489545822143555
2020-07-29 16:06:07.212 +0200,79000.53131825001,0.1247100830078125,-0.2868194580078125,-0.9575042724609375,79000.52755225,-0.4490846596335086,0.1493834177071431,0.2862198801864243,-0.01814431324601173,0.05506175011396408,-0.03228427469730377,-0.01612015068531036,-0.008528649806976318,-0.00622248649597168,XArbitraryZVertical,0.1550994814134202,0.04033758175710676,-0.2093939516721269,0.9646093030346722,0.1427738070487976,-0.2823279201984406,-0.9486340880393982
2020-07-29 16:06:07.232 +0200,79000.55135325,0.1294708251953125,-0.2970733642578125,-0.959381103515625,79000.54758625,-0.4496466146319066,0.1504783298526328,0.287002936544096,-0.01118613965809345,0.0516614243388176,-0.03171911463141441,-0.01205022633075714,-0.01684442162513733,-0.006878912448883057,XArbitraryZVertical,0.1556013163645523,0.04073180183396021,-0.2095391947326888,0.9644804181681188,0.1437792032957077,-0.2830790281295776,-0.9482582807540894
2020-07-29 16:06:07.252 +0200,79000.57138825,0.142333984375,-0.2909698486328125,-0.958465576171875,79000.56762125001,-0.4501152503235548,0.1515391085469901,0.2878625609405879,-0.01193568669259548,0.05283374711871147,-0.02367541566491127,-0.007059872150421143,-0.01808488368988037,-0.008346617221832275,XArbitraryZVertical,0.1561345216833249,0.04110765886054277,-0.2096375398118032,0.9643568868201937,0.1447482258081436,-0.2839033901691437,-0.9478643536567688
2020-07-29 16:06:07.273 +0200,79000.59142225,0.1541290283203125,-0.28424072265625,-0.970794677734375,79000.58765625001,-0.4505513538917383,0.1524047709097627,0.2886492230467959,-0.01479858346283436,0.03959038108587265,-0.02647318132221699,0.01019352674484253,-0.006454408168792725,-0.01642102003097534,XArbitraryZVertical,0.1566116484698707,0.04140010381828702,-0.2097387412262162,0.9642450135597284,0.1455347537994385,-0.2846575975418091,-0.9475176334381104
2020-07-29 16:06:07.293 +0200,79000.61145725001,0.152313232421875,-0.28509521484375,-0.9790191650390625,79000.60769025001,-0.4507799371725519,0.1525055850707142,0.2891269757303515,-0.009562144055962563,0.02596777677536011,-0.01488386653363705,0.01193633675575256,-0.006343424320220947,-0.02894145250320435,XArbitraryZVertical,0.156856113780609,0.04137557803415317,-0.2098158377419386,0.9641895426432032,0.145609587430954,-0.2851155400276184,-0.9473684430122375
2020-07-29 16:06:07.313 +0200,79000.63149125001,0.157470703125,-0.2938079833984375,-0.9792022705078125,79000.62772525,-0.4507645788508808,0.1522940211547148,0.2897098011639923,-0.02854315936565399,0.006901941727846861,-0.008791504427790642,0.01429270207881927,-0.01255816221237183,-0.03152847290039062,XArbitraryZVertical,0.1571131419919221,0.04120741574840288,-0.2097942747977243,0.9641596106349071,0.1453839242458344,-0.285674124956131,-0.9472348093986511
2020-07-29 16:06:07.333 +0200,79000.65152625,0.1585235595703125,-0.2848358154296875,-0.9635467529296875,79000.64775925,-0.4506956312887166,0.1519852899317758,0.2900899844739707,-0.03410902991890907,-0.008266357704997063,0.001715084770694375,0.01747795939445496,-0.009196817874908447,-0.02286148071289062,XArbitraryZVertical,0.1572616812529427,0.04102005802140381,-0.2097652442930231,0.9641497330614319,0.1450750231742859,-0.2860384583473206,-0.947172224521637
2020-07-29 16:06:07.353 +0200,79000.67156125001,0.1591339111328125,-0.28240966796875,-0.9515380859375,79000.66779425001,-0.4506128914963075,0.1521964971305022,0.2898624488277236,-0.03948235884308815,-0.01770886220037937,0.006398976314812899,0.01896694302558899,-0.005991637706756592,-0.009217798709869385,XArbitraryZVertical,0.1571730068374582,0.04115467586883564,-0.2097207602181181,0.9641680869686906,0.1452849358320236,-0.2858204245567322,-0.9472059011459351
2020-07-29 16:06:07.373 +0200,79000.69159525,0.1511077880859375,-0.270477294921875,-0.9457550048828125,79000.68782925,-0.450642144989476,0.1528000648559019,0.2887183030207194,-0.00873483344912529,-0.007315609604120255,0.006470995955169201,0.01338648796081543,0.003909707069396973,0.003630220890045166,XArbitraryZVertical,0.1566881217733942,0.04157558782800203,-0.2097479048666259,0.9642230494182359,0.1459062844514847,-0.2847238183021545,-0.9474406242370605
2020-07-29 16:06:07.393 +0200,79000.71163025001,0.15411376953125,-0.284454345703125,-0.9531707763671875,79000.70786325001,-0.4506764674525863,0.1532734961570325,0.2890582920322307,0.02139097824692726,-0.007267139852046967,0.0176337119191885,0.009408101439476013,4.664063453674316e-05,6.663799285888672e-05,XArbitraryZVertical,0.1569015502476429,0.04176184146628412,-0.2097093440905902,0.9641887184627878,0.1463400423526764,-0.285049706697464,-0.947275698184967
2020-07-29 16:06:07.413 +0200,79000.73166525,0.1641998291015625,-0.2905731201171875,-0.94720458984375,79000.72789825,-0.4504313583715125,0.1536400279127106,0.2899738656050719,-0.01480044797062874,-0.01369627751410007,0.03271998837590218,0.01455581188201904,-0.00617748498916626,-0.006860017776489258,XArbitraryZVertical,0.157373964078069,0.04185197323451605,-0.2095138288320773,0.9641503217325273,0.1466472297906876,-0.2859271764755249,-0.9469636678695679
2020-07-29 16:06:07.433 +0200,79000.75169925,0.193084716796875,-0.2750396728515625,-0.9376068115234375,79000.74793325001,-0.4496440505251108,0.1539762661507358,0.2900008275727077,-0.03005383536219597,-0.01748009584844112,0.06645771116018295,0.03536452353000641,-0.004366934299468994,0.004620015621185303,XArbitraryZVertical,0.1574055801506286,0.04207291296255794,-0.2091063937309234,0.9642239113678432,0.1469644457101822,-0.285953015089035,-0.9469066858291626
2020-07-29 16:06:07.453 +0200,79000.77173425001,0.1971435546875,-0.287689208984375,-0.9417724609375,79000.76796725001,-0.4477332398502911,0.153654314897602,0.289436060449916,-0.03381595388054848,-0.03547108173370361,0.1311239004135132,0.05440618097782135,-0.00625300407409668,0.006103396415710449,XArbitraryZVertical,0.1570608264299553,0.04213293355621605,-0.2082403223786572,0.9644649982508305,0.1466842740774155,-0.2854117751121521,-0.9471134543418884
2020-07-29 16:06:07.473 +0200,79000.79176925001,0.2403411865234375,-0.30975341796875,-0.9237518310546875,79000.78800225,-0.4443264019670501,0.1525921725164386,0.2886346165758787,-0.06201563403010368,-0.04035771638154984,0.2165742516517639,0.07656341791152954,-0.008268892765045166,0.01234972476959229,XArbitraryZVertical,0.1564943860947243,0.04197943046049368,-0.2067226393615514,0.9648901584423069,0.1457129418849945,-0.2846435904502869,-0.9474944472312927
2020-07-29 16:06:07.493 +0200,79000.81180325001,0.262481689453125,-0.3087310791015625,-0.906402587890625,79000.80803725001,-0.4387736534378616,0.1505498154097597,0.2880192733503625,-0.1644000560045242,-0.0690213143825531,0.3117134273052216,0.1064562350511551,-0.04642683267593384,0.03375720977783203,XArbitraryZVertical,0.1558731708884545,0.04149714671311245,-0.2042344752228034,0.9655412168710078,0.1438037604093552,-0.2840536534786224,-0.9479630589485168
2020-07-29 16:06:07.513 +0200,79000.83183825,0.275146484375,-0.2913970947265625,-0.8763427734375,79000.82807125,-0.4308629373408373,0.1477019284346954,0.2857697360363596,-0.2449153959751129,-0.07258542627096176,0.4199555814266205,0.1351830065250397,-0.02532291412353516,0.05715179443359375,XArbitraryZVertical,0.1543402999677224,0.04098620845312424,-0.2007498622903034,0.9665395413740091,0.1411971747875214,-0.2818960547447205,-0.9489983916282654
2020-07-29 16:06:07.533 +0200,79000.85187225,0.23828125,-0.2541046142578125,-0.8603973388671875,79000.84810625001,-0.4206425145198856,0.1450122605325579,0.2820065310831621,-0.3095199763774872,-0.03072133287787437,0.5271022915840149,0.1308109760284424,-0.001838862895965576,0.08626151084899902,XArbitraryZVertical,0.1520525476781033,0.04087986188184149,-0.1962025316208991,0.9678395654476819,0.138796478509903,-0.2782834768295288,-0.950417697429657
2020-07-29 16:06:07.553 +0200,79000.87190725001,0.1985626220703125,-0.2370758056640625,-0.879180908203125,79000.86814025001,-0.4083626734807432,0.1431863539992161,0.2785469520357635,-0.2989413440227509,0.04350096359848976,0.6214309334754944,0.07656940817832947,0.02874681353569031,0.08357071876525879,XArbitraryZVertical,0.1499554766744996,0.04129132105725454,-0.1905637631971611,0.9692748913498801,0.1371974349021912,-0.2749589085578918,-0.9516167640686035
2020-07-29 16:06:07.573 +0200,79000.89194225,0.201141357421875,-0.2388763427734375,-0.896026611328125,79000.88817525,-0.3945455669528898,0.1425296774485239,0.276508593943625,-0.3148370981216431,0.1076977923512459,0.6767487525939941,0.06722918152809143,0.03180891275405884,0.06184351444244385,XArbitraryZVertical,0.148620931854222,0.04221480174557286,-0.1840101489424776,0.9707059313338779,0.1366518437862396,-0.2729985415935516,-0.9522594809532166
2020-07-29 16:06:07.593 +0200,79000.91197625,0.197021484375,-0.2375946044921875,-0.9051971435546875,79000.90821025001,-0.3797340713318955,0.1436486366707982,0.2736356837878671,-0.3771380186080933,0.1676426231861115,0.7300493717193604,0.06443297863006592,0.02145180106163025,0.05384117364883423,XArbitraryZVertical,0.1470120714165843,0.04413984097953751,-0.1768707058954553,0.9721913284066459,0.1378290057182312,-0.2702336311340332,-0.9528782367706299
2020-07-29 16:06:07.613 +0200,79000.93201125,0.1792449951171875,-0.227325439453125,-0.8906097412109375,79000.92824425001,-0.3642576267769083,0.1464616273742174,0.2691609818410671,-0.3923103213310242,0.2481382638216019,0.7590704560279846,0.04187262058258057,0.0495341420173645,0.05875205993652344,XArbitraryZVertical,0.1447338898781511,0.04706755554494257,-0.1693501931888205,0.9737336608027067,0.1406839489936829,-0.2659227252006531,-0.9536734819412231
2020-07-29 16:06:07.633 +0200,79000.95204625001,0.1542510986328125,-0.211517333984375,-0.9068756103515625,79000.94827925001,-0.3482837457875744,0.149941734131853,0.2631914688033185,-0.4062700867652893,0.301676332950592,0.7488057613372803,0.03003007173538208,0.0306408703327179,0.05535835027694702,XArbitraryZVertical,0.1417339712497381,0.05045894874936382,-0.1616029523694101,0.9753204141041074,0.1442365348339081,-0.260163426399231,-0.954730749130249
2020-07-29 16:06:07.654 +0200,79000.97208025001,0.14910888671875,-0.214935302734375,-0.9564666748046875,79000.96831425,-0.3321709407320195,0.1541337638552503,0.2572170110083428,-0.3805447518825531,0.3674633502960205,0.7431074976921082,-0.0004091560840606689,0.03456108272075653,0.02796745300292969,XArbitraryZVertical,0.1387371743007981,0.05416365577362514,-0.1537324580734735,0.9768237402566764,0.1484735012054443,-0.2543901205062866,-0.9556365609169006
2020-07-29 16:06:07.673 +0200,79000.99211525,0.160064697265625,-0.1902008056640625,-0.981781005859375,79000.98834825,-0.3163724770745847,0.1592805691066408,0.2516273508029617,-0.3861401975154877,0.3911542892456055,0.726833701133728,0.007333546876907349,0.03973627090454102,-0.0168912410736084,XArbitraryZVertical,0.1359557768583807,0.05823767027564062,-0.1459286625551023,0.9781764636384421,0.1536131203174591,-0.248980388045311,-0.9562488198280334
2020-07-29 16:06:07.693 +0200,79001.01215025001,0.1557159423828125,-0.18756103515625,-0.98260498046875,79001.00838325001,-0.300691713562045,0.1645323727136926,0.2460936648256282,-0.3551516532897949,0.4157248735427856,0.7252844572067261,0.003851652145385742,0.05217422544956207,-0.02657240629196167,XArbitraryZVertical,0.1331564856205637,0.06231084829794142,-0.138173012356103,0.979436107044501,0.1588562577962875,-0.2436171919107437,-0.9567734003067017
2020-07-29 16:06:07.713 +0200,79001.03218425,0.147857666015625,-0.181365966796875,-0.9858245849609375,79001.02841825,-0.2851578471868698,0.1702416247148771,0.2411432134928942,-0.3635913133621216,0.4280872642993927,0.7103190422058105,-0.008629724383354187,0.0466485321521759,-0.02585130929946899,XArbitraryZVertical,0.1306211708044736,0.06651497968338438,-0.1304318081891023,0.9805617806782436,0.1645184010267258,-0.2388129234313965,-0.9570277333259583
2020-07-29 16:06:07.733 +0200,79001.05221925001,0.1443939208984375,-0.1845855712890625,-0.9892425537109375,79001.04845225,-0.2694481594865105,0.1752640824462468,0.2357038210381732,-0.3447408080101013,0.4482212960720062,0.7104511857032776,-0.0233616977930069,0.04768773913383484,-0.02978390455245972,XArbitraryZVertical,0.1277406056853775,0.07039298972815675,-0.1226760912637374,0.981670926629195,0.1695469319820404,-0.2335274070501328,-0.9574543237686157
2020-07-29 16:06:07.754 +0200,79001.07225425,0.146240234375,-0.1746063232421875,-1.006973266601562,79001.06848725,-0.2536818575179614,0.1805702136795522,0.2302712074698677,-0.3589861989021301,0.4604838192462921,0.7120015025138855,-0.0269174724817276,0.03949496150016785,-0.03893142938613892,XArbitraryZVertical,0.1248244877027056,0.07437259374331438,-0.1148769490736923,0.982695697735698,0.1748501658439636,-0.2282415777444839,-0.9577751159667969
2020-07-29 16:06:07.774 +0200,79001.09228825,0.1440582275390625,-0.1646575927734375,-1.017074584960938,79001.08852225001,-0.2378494181106112,0.1863232093938717,0.2244864908762689,-0.3765530586242676,0.4646833539009094,0.7169825434684753,-0.03109085559844971,0.04818792641162872,-0.05364692211151123,XArbitraryZVertical,0.1217019807407136,0.07855710176369571,-0.1070406027402188,0.9836461356577277,0.1805988848209381,-0.2226057648658752,-0.9580348134040833
2020-07-29 16:06:07.794 +0200,79001.11232325001,0.1397705078125,-0.1628265380859375,-1.014785766601562,79001.10855625001,-0.2217847263697323,0.1919857794037956,0.2183830697855708,-0.3884051740169525,0.4662650227546692,0.7207528948783875,-0.04123762249946594,0.04637730121612549,-0.05941838026046753,XArbitraryZVertical,0.1183503265938003,0.08268534078900719,-0.09911913904066505,0.9845464170127025,0.1862766742706299,-0.2166513800621033,-0.9583126902580261
2020-07-29 16:06:07.814 +0200,79001.13235725001,0.1341400146484375,-0.1625213623046875,-1.005722045898438,79001.12859125,-0.2056997357586781,0.1974549710101283,0.2122925845311826,-0.3767591714859009,0.4698240756988525,0.715465247631073,-0.05035029351711273,0.0457003116607666,-0.0527268648147583,XArbitraryZVertical,0.1149368222609204,0.08667001150308264,-0.09120593371428987,0.985372671673731,0.1917703598737717,-0.2107015699148178,-0.9585556983947754
2020-07-29 16:06:07.834 +0200,79001.15239225001,0.1443023681640625,-0.166015625,-1.001556396484375,79001.14862525,-0.1896969882502491,0.2028294648139499,0.2065241440132426,-0.383395791053772,0.4831193685531616,0.7048697471618652,-0.05289258062839508,0.03722074627876282,-0.04390251636505127,XArbitraryZVertical,0.1116251845735201,0.0905370175702457,-0.08332896921540212,0.9861030302502515,0.1971608847379684,-0.2050591558218002,-0.9586857557296753
2020-07-29 16:06:07.854 +0200,79001.17242725,0.1492919921875,-0.1648101806640625,-1.0048828125,79001.16866025,-0.1737557069405053,0.2085382104745632,0.2004587570763135,-0.3915153741836548,0.4846722483634949,0.7079764604568481,-0.05066318809986115,0.02446813881397247,-0.04343390464782715,XArbitraryZVertical,0.1081284439833478,0.09453229224648994,-0.07548908576238506,0.986748847591096,0.2028843015432358,-0.1991189271211624,-0.9587437510490417
2020-07-29 16:06:07.874 +0200,79001.19246125,0.15911865234375,-0.16339111328125,-1.010635375976562,79001.18869525001,-0.1576965378349773,0.2141456096261179,0.1944634849824859,-0.3862312734127045,0.4828216135501862,0.7146568894386292,-0.04722169041633606,0.0272325873374939,-0.04973912239074707,XArbitraryZVertical,0.1046006658085136,0.09843033807131174,-0.06760320935225594,0.987319593992768,0.2085070908069611,-0.1932401657104492,-0.9587403535842896
2020-07-29 16:06:07.894 +0200,79001.21249625001,0.1611785888671875,-0.1603240966796875,-1.0054931640625,79001.20872925001,-0.1412641441944064,0.2193488423949157,0.1886658129303866,-0.3957812190055847,0.4817752540111542,0.7353699803352356,-0.04925245046615601,0.01801839470863342,-0.05094927549362183,XArbitraryZVertical,0.1010839217668487,0.1020887615648264,-0.059553285658486,0.9878326285332126,0.213732972741127,-0.1875485479831696,-0.9587198495864868
2020-07-29 16:06:07.914 +0200,79001.23253125,0.176422119140625,-0.1642608642578125,-0.995574951171875,79001.22876425,-0.1243488633728525,0.2242624678929058,0.1836016487444211,-0.3945560157299042,0.4896406531333923,0.7541137337684631,-0.04634281992912292,0.01595607399940491,-0.0386120080947876,XArbitraryZVertical,0.09784354465694034,0.1055497285832774,-0.05124624072400158,0.9882609949857166,0.2186495810747147,-0.1825718581676483,-0.9585717916488647
2020-07-29 16:06:07.934 +0200,79001.25256525,0.19232177734375,-0.161895751953125,-0.995513916015625,79001.24879925001,-0.1070571291760179,0.2291796916329491,0.1792497404150916,-0.4096601605415344,0.4862762689590454,0.7670129537582397,-0.03136724233627319,0.007858961820602417,-0.03923135995864868,XArbitraryZVertical,0.09488351617046506,0.1089598286175312,-0.04271952036559407,0.9885848235527998,0.2235388159751892,-0.178291380405426,-0.9582497477531433
2020-07-29 16:06:07.954 +0200,79001.27260025,0.2027130126953125,-0.15234375,-0.9932098388671875,79001.26883325001,-0.08954818501862388,0.2340346479370559,0.1747489692910277,-0.3946953117847443,0.4801600575447083,0.7719119787216187,-0.02395138144493103,0.01469129323959351,-0.03661936521530151,XArbitraryZVertical,0.0917854447646977,0.1123094036623041,-0.03410563772713932,0.9888370843755135,0.2283722162246704,-0.1738609373569489,-0.9579240679740906
2020-07-29 16:06:07.974 +0200,79001.29263525001,0.2059173583984375,-0.16839599609375,-0.9745025634765625,79001.28886825001,-0.07199591554675999,0.2389593540304571,0.1712668845008691,-0.3725273013114929,0.4864659011363983,0.7863627672195435,-0.02009813487529755,0.008232444524765015,-0.02698200941085815,XArbitraryZVertical,0.08913820655183921,0.115625650975076,-0.02541460802966089,0.9889586241722947,0.233228787779808,-0.1704308390617371,-0.9573701620101929
2020-07-29 16:06:07.994 +0200,79001.31266925001,0.2020111083984375,-0.1791839599609375,-0.9546661376953125,79001.30890325,-0.05422408664497835,0.2441269106338742,0.1682660614684382,-0.3650166690349579,0.4957065284252167,0.8019000887870789,-0.02964872121810913,-0.01302433013916016,-0.005351424217224121,XArbitraryZVertical,0.08666700612167227,0.1190242027807222,-0.01658360243477264,0.9889625820831083,0.2382954657077789,-0.1674731522798538,-0.9566441178321838
2020-07-29 16:06:08.014 +0200,79001.33270425,0.2008514404296875,-0.16766357421875,-0.9561767578125,79001.32893725,-0.03623773489459038,0.2497541318246851,0.1656005815688607,-0.3686842322349548,0.5012320280075073,0.8074113130569458,-0.03648316860198975,-0.01627495884895325,0.004669725894927979,XArbitraryZVertical,0.08429711094706546,0.1226188829708031,-0.007615670213058645,0.988838016461789,0.2437843829393387,-0.1648447215557098,-0.9557172060012817
2020-07-29 16:06:08.034 +0200,79001.35273879167,0.1988677978515625,-0.1511993408203125,-0.97332763671875,79001.34897225001,-0.01834997942305163,0.255677781294578,0.1631638145201157,-0.3079959750175476,0.5151731371879578,0.8041431307792664,-0.04359519481658936,-0.005390584468841553,-0.00341331958770752,XArbitraryZVertical,0.08198886874905986,0.126320018680694,0.001319259981607146,0.9885946265314792,0.2495422512292862,-0.1624408066272736,-0.9546421766281128
2020-07-29 16:06:08.054 +0200,79001.37277279167,0.212982177734375,-0.1410064697265625,-0.999298095703125,79001.36900679168,-0.001256982345825913,0.2619633069504766,0.1627851655357642,-0.1716202795505524,0.511952817440033,0.7808188199996948,-0.04483582079410553,0.01994076371192932,-0.03304105997085571,XArbitraryZVertical,0.08068811787343017,0.1301243839643651,0.009997697871819755,0.9881584314244263,0.2555536329746246,-0.162067174911499,-0.9531141519546509
2020-07-29 16:06:08.074 +0200,79001.39280779166,0.2380828857421875,-0.1600189208984375,-0.9937896728515625,79001.38904079168,0.01454979809432999,0.2685609917136847,0.1654287231958042,-0.08527275174856186,0.4955256879329681,0.751064658164978,-0.03081798553466797,0.008309468626976013,-0.04699879884719849,XArbitraryZVertical,0.08090355262828139,0.1340117164103628,0.01824536064031407,0.9875031870010978,0.2617217600345612,-0.1646752208471298,-0.9509909749031067
2020-07-29 16:06:08.094 +0200,79001.41284279167,0.2562713623046875,-0.175323486328125,-0.9806060791015625,79001.40907579167,0.02958460726983647,0.2746069183782334,0.1692208308336314,-0.05812728404998779,0.4602135121822357,0.7334526777267456,-0.01205441355705261,-0.001257196068763733,-0.03999698162078857,XArbitraryZVertical,0.08168765173013513,0.1376061753745964,0.02616589434861905,0.9867659298570688,0.2672953009605408,-0.1684143543243408,-0.9487833380699158
2020-07-29 16:06:08.114 +0200,79001.43287679167,0.26043701171875,-0.193511962890625,-0.9653167724609375,79001.42911079167,0.04460938216833706,0.2793638390377915,0.172443298721965,-0.1066396906971931,0.4135666489601135,0.7341650724411011,-0.005289793014526367,-0.01799595355987549,-0.02543455362319946,XArbitraryZVertical,0.08216126992196621,0.1405783370350092,0.03399020656863094,0.9860689009075926,0.271654486656189,-0.1715899258852005,-0.946974515914917
2020-07-29 16:06:08.134 +0200,79001.45291179167,0.2599029541015625,-0.1670379638671875,-0.9847259521484375,79001.44914479167,0.0598942646045791,0.2827736276885431,0.1731246246558252,-0.159187451004982,0.3445993065834045,0.7123087644577026,-0.007826298475265503,-0.0176311731338501,-0.02684998512268066,XArbitraryZVertical,0.08134958481503443,0.14288850442704,0.04171022783752149,0.9855076510034265,0.2748492062091827,-0.1722611039876938,-0.9459302425384521
2020-07-29 16:06:08.165 +0200,79001.47294579167,0.2579498291015625,-0.1520233154296875,-0.9980621337890625,79001.46917979167,0.07464636165664908,0.2853248823315812,0.1728739867804484,-0.1752979904413223,0.2938431799411774,0.6628254652023315,-0.009931951761245728,0.009822651743888855,-0.0446016788482666,XArbitraryZVertical,0.0801073283390303,0.1447381656916468,0.04906322146717568,0.9850007856269769,0.2772737741470337,-0.1720142066478729,-0.945267379283905
2020-07-29 16:06:08.174 +0200,79001.49298079168,0.2520599365234375,-0.1423187255859375,-0.9839019775390625,79001.48921379168,0.08817879974398356,0.2871467421758583,0.1727375637380036,-0.169722393155098,0.2463704496622086,0.5886064767837524,-0.01878947019577026,0.0197317898273468,-0.04995685815811157,XArbitraryZVertical,0.07900814723440371,0.146171634320243,0.05578937730772793,0.9845197577473275,0.2790021002292633,-0.1718798130750656,-0.9447831511497498
2020-07-29 16:06:08.194 +0200,79001.51301579167,0.237152099609375,-0.12786865234375,-0.9595489501953125,79001.50924879167,0.09980802729994344,0.2889573379906061,0.1735285010447697,-0.1467451751232147,0.2169632911682129,0.4963441491127014,-0.02580609917640686,0.03047096729278564,-0.0225176215171814,XArbitraryZVertical,0.07849080996656728,0.1475340133867391,0.06163870277356909,0.9840089254393155,0.2806734144687653,-0.1726589202880859,-0.9441457986831665
2020-07-29 16:06:08.214 +0200,79001.53304979167,0.22711181640625,-0.1353302001953125,-0.95513916015625,79001.52928379168,0.1093323512052924,0.2908921070185236,0.1748074214621626,-0.0891704186797142,0.2021108418703079,0.4014686048030853,-0.044920414686203,0.04463908076286316,-0.01127797365188599,XArbitraryZVertical,0.07835295429491847,0.1488840671195255,0.06648839900833647,0.9835006990792401,0.2824360430240631,-0.1739185005426407,-0.9433887004852295
2020-07-29 16:06:08.234 +0200,79001.55308479167,0.227691650390625,-0.1499786376953125,-0.962493896484375,79001.54931779167,0.1171599302684153,0.2925238716296464,0.1748510919519163,-0.0605560876429081,0.1792537420988083,0.3381379842758179,-0.05003583431243896,0.02241842448711395,-0.01268190145492554,XArbitraryZVertical,0.07773374099929858,0.1499927179932571,0.07040357638482425,0.9831088304472471,0.2839728593826294,-0.1739615052938461,-0.9429193139076233
2020-07-29 16:06:08.254 +0200,79001.57311979168,0.234588623046875,-0.152618408203125,-0.96875,79001.56935279167,0.1237826843067142,0.2939807149501191,0.1744108689769642,-0.05442256107926369,0.1420917212963104,0.292102575302124,-0.04733830690383911,0.01612086594104767,-0.0237267017364502,XArbitraryZVertical,0.07696629407117267,0.1509546025519928,0.07368399545641025,0.9827814875855412,0.285368412733078,-0.1735279709100723,-0.9425777792930603
2020-07-29 16:06:08.274 +0200,79001.59315379168,0.2364349365234375,-0.1579742431640625,-0.955322265625,79001.58938779167,0.1295659139492433,0.2948440516299972,0.1735848231853404,-0.06307064741849899,0.09730693697929382,0.2519266903400421,-0.04223683476448059,0.01232123374938965,-0.02285730838775635,XArbitraryZVertical,0.07608994193476734,0.151579561439329,0.0765005191556915,0.9825383451332508,0.2862236201763153,-0.1727143973112106,-0.9424679279327393
2020-07-29 16:06:08.295 +0200,79001.61318879167,0.2461395263671875,-0.14874267578125,-0.94940185546875,79001.60942179167,0.1347594368980684,0.2949509438407945,0.1722397696999467,-0.05491923913359642,0.06395004689693451,0.2213430851697922,-0.03849455714225769,0.01308868825435638,-0.006969869136810303,XArbitraryZVertical,0.07503003278789704,0.1517930336315362,0.07896136088207611,0.9823921919544119,0.2863916456699371,-0.1713894009590149,-0.9426587224006653
2020-07-29 16:06:08.315 +0200,79001.63322379166,0.2534027099609375,-0.164337158203125,-0.9511566162109375,79001.62945679168,0.139338253554634,0.2940691128014993,0.1716172619806723,-0.03531837463378906,0.03521906584501266,0.1979836225509644,-0.02747499942779541,0.0129023939371109,-0.005174875259399414,XArbitraryZVertical,0.07441182947529107,0.1515138646811032,0.08113382385110779,0.9823053572795077,0.2855911254882812,-0.1707760691642761,-0.9430128335952759
2020-07-29 16:06:08.335 +0200,79001.65325779167,0.257659912109375,-0.16864013671875,-0.9543914794921875,79001.64949179167,0.1435409090647005,0.2924066115509816,0.1713448612762901,-0.05382388457655907,0.006801541429013014,0.1798093765974045,-0.02135023474693298,-0.001473814249038696,-0.008530020713806152,XArbitraryZVertical,0.07402839177798526,0.150845518689415,0.08311728418901881,0.9822713102025791,0.2840363681316376,-0.1705076694488525,-0.9435308575630188
2020-07-29 16:06:08.355 +0200,79001.67329279167,0.2574310302734375,-0.167877197265625,-0.9567108154296875,79001.66952579167,0.1475071504137083,0.2901209609540136,0.1705256461604563,-0.08116441965103149,-0.03245824575424194,0.1569281071424484,-0.01579028367996216,-0.005877718329429626,-0.008058786392211914,XArbitraryZVertical,0.07342316680666637,0.1498448396930099,0.08492448244564393,0.9823153227813615,0.2819189131259918,-0.1697003990411758,-0.9443111419677734
2020-07-29 16:06:08.375 +0200,79001.69332779167,0.25054931640625,-0.1600341796875,-0.9500274658203125,79001.68956079167,0.1510707082698191,0.2874072651206334,0.1695123356889429,-0.07829993218183517,-0.04958237335085869,0.1283305436372757,-0.01843321323394775,0.0001212507486343384,-0.005736410617828369,XArbitraryZVertical,0.07277493492253601,0.1486110839219806,0.08650639803597571,0.9824129382465687,0.2794038951396942,-0.1687016934156418,-0.9452371001243591
2020-07-29 16:06:08.395 +0200,79001.71336179167,0.2517547607421875,-0.1588134765625,-0.941253662109375,79001.70959579168,0.1538483882839726,0.2852071887824018,0.1679905466306889,-0.04769008979201317,-0.055223748087883,0.09830161929130554,-0.02086856961250305,0.004837602376937866,0.006300210952758789,XArbitraryZVertical,0.07191611104571023,0.1475827726798684,0.087688286294971,0.982526441555321,0.2773955464363098,-0.1672015190124512,-0.946094810962677
2020-07-29 16:06:08.415 +0200,79001.73339679168,0.2574005126953125,-0.1627197265625,-0.9468841552734375,79001.72962979168,0.1556760552476756,0.283007244398517,0.1685341196085689,-0.008731238543987274,-0.04890912771224976,0.0604376345872879,-0.01464703679084778,0.003269851207733154,0.004778623580932617,XArbitraryZVertical,0.07214617040255644,0.1465853146100706,0.08854342456929221,0.9825822087658683,0.2752881050109863,-0.1677374243736267,-0.9466153383255005
2020-07-29 16:06:08.435 +0200,79001.75343179167,0.2611541748046875,-0.16357421875,-0.9553375244140625,79001.74966479167,0.1565576996865276,0.2813461852086595,0.1696226324714078,0.002493586391210556,-0.04750404134392738,0.01957344450056553,-0.007737904787063599,2.881884574890137e-05,-0.002699732780456543,XArbitraryZVertical,0.07269123428454857,0.1458365909702422,0.08898891191182057,0.9826131833713276,0.2736644744873047,-0.1688104122877121,-0.9468953609466553
2020-07-29 16:06:08.455 +0200,79001.77346579167,0.2573089599609375,-0.1597137451171875,-0.96044921875,79001.76969979166,0.1566630356880316,0.2794846303542257,0.1701405423632168,0.006649182643741369,-0.04610907658934593,-0.02347294054925442,-0.00457531213760376,0.001121833920478821,-0.00924450159072876,XArbitraryZVertical,0.07302136097982795,0.1449427096952899,0.08900710012990448,0.982719312077216,0.2718771696090698,-0.1693208664655685,-0.947318971157074
2020-07-29 16:06:08.475 +0200,79001.79350079167,0.2658538818359375,-0.1468505859375,-0.9695892333984375,79001.78973379167,0.1558462846639991,0.2779429824183702,0.1697573775526797,0.04503292217850685,-0.04467496648430824,-0.06807046383619308,-0.002893060445785522,0.01094631850719452,-0.01663422584533691,XArbitraryZVertical,0.07296017047630066,0.1441428295911782,0.08852430460698485,0.9828851184012881,0.2704342007637024,-0.1689432263374329,-0.9477993249893188
2020-07-29 16:06:08.495 +0200,79001.81353579168,0.2733154296875,-0.1407012939453125,-0.9689788818359375,79001.80976879167,0.1538495755012619,0.27676052277765,0.1698533106517121,0.09265690296888351,-0.04132524132728577,-0.1108850389719009,0.007207542657852173,0.02261987328529358,-0.02074790000915527,XArbitraryZVertical,0.07320302522584946,0.1434918086089661,0.08750602025659049,0.9830534857988102,0.2693088352680206,-0.1690377742052078,-0.9481028318405151
2020-07-29 16:06:08.515 +0200,79001.83356979168,0.2843170166015625,-0.1525115966796875,-0.96990966796875,79001.82980379167,0.1509174392108236,0.2754436771752309,0.1708181686165886,0.1192684099078178,-0.05408737808465958,-0.1406952738761902,0.0184483528137207,0.01709295809268951,-0.01901513338088989,XArbitraryZVertical,0.07394516785663603,0.1427672386198441,0.08607909253451568,0.9832293468505948,0.2680156230926514,-0.1699886620044708,-0.94829922914505
2020-07-29 16:06:08.535 +0200,79001.85360479167,0.283050537109375,-0.1496734619140625,-0.9731292724609375,79001.84983779167,0.1472135490128785,0.2747113011866192,0.1715403186894046,0.1437722891569138,-0.07233482599258423,-0.1653838157653809,0.02257648110389709,0.01661212742328644,-0.02170121669769287,XArbitraryZVertical,0.07459599455995572,0.1422919191382071,0.08427774845091252,0.9834051957732428,0.2672876715660095,-0.170700266957283,-0.9483768939971924
2020-07-29 16:06:08.555 +0200,79001.87363879167,0.29541015625,-0.1378936767578125,-0.9839324951171875,79001.86987279168,0.1430124902718876,0.273511813463629,0.1726624675589054,0.1757945269346237,-0.1118798330426216,-0.1783419847488403,0.02997782826423645,0.02481642365455627,-0.02860397100448608,XArbitraryZVertical,0.07549684485923366,0.1415780014074364,0.08223956144687344,0.983612020976756,0.2660979926586151,-0.1718058288097382,-0.9485117793083191
2020-07-29 16:06:08.575 +0200,79001.89367379167,0.29534912109375,-0.1262664794921875,-0.9889068603515625,79001.88990679166,0.1380887805998517,0.2718074264957476,0.174367158964212,0.2256369292736053,-0.1528507024049759,-0.2054944932460785,0.03888025879859924,0.03551803529262543,-0.03693854808807373,XArbitraryZVertical,0.07675314940439892,0.1406013218707067,0.07986286600159953,0.9838506922764916,0.2644019722938538,-0.1734849214553833,-0.9486804604530334
2020-07-29 16:06:08.595 +0200,79001.91370879168,0.294097900390625,-0.143829345703125,-0.9803466796875,79001.90994179167,0.1323807760899838,0.2696577775414374,0.1769852284918504,0.2714948058128357,-0.1860912144184113,-0.2289107441902161,0.03819674253463745,0.04344944655895233,-0.03576362133026123,XArbitraryZVertical,0.07852723184292419,0.1393939673563646,0.07713903132490207,0.9840998182648846,0.2622401118278503,-0.1760627031326294,-0.948805570602417
2020-07-29 16:06:08.615 +0200,79001.93374279168,0.2929229736328125,-0.1746826171875,-0.9564361572265625,79001.92997679167,0.1263263114192998,0.2671427976167253,0.1794982972829593,0.2243869751691818,-0.2151393741369247,-0.2438117265701294,0.0410672128200531,0.01465786993503571,-0.01979535818099976,XArbitraryZVertical,0.08028091189724081,0.1379811568927811,0.07421959996059951,0.9843818262196901,0.2597354650497437,-0.1785359531641006,-0.9490323662757874
2020-07-29 16:06:08.651 +0200,79001.95377779167,0.2922821044921875,-0.187408447265625,-0.9388427734375,79001.95001079167,0.1204489268904033,0.2642497116696372,0.1806896606556735,0.1523308902978897,-0.2216851562261581,-0.2437799721956253,0.04218348860740662,-0.01007767021656036,0.00410926342010498,XArbitraryZVertical,0.08137659385825864,0.1363485814346987,0.0712845127310911,0.9847362558763866,0.2569330036640167,-0.1797080487012863,-0.949573814868927
2020-07-29 16:06:08.665 +0200,79001.97381279166,0.2853546142578125,-0.186187744140625,-0.941497802734375,79001.97004579168,0.1150025557463056,0.2611307402900028,0.180439462506208,0.1003752797842026,-0.2309790551662445,-0.2333251982927322,0.04268214106559753,-0.01280498504638672,0.01342803239822388,XArbitraryZVertical,0.08173106962967668,0.1345846943807444,0.06845951263227745,0.985149919722188,0.2539816498756409,-0.1794619113206863,-0.9504140019416809
2020-07-29 16:06:08.675 +0200,79001.99384679167,0.2871856689453125,-0.1850128173828125,-0.94329833984375,79001.99008079167,0.1100399744553764,0.2578250815823508,0.1795082527869909,0.09123823791742325,-0.2294442802667618,-0.2112996429204941,0.03987790644168854,-0.01054012775421143,0.01069128513336182,XArbitraryZVertical,0.08171428855015293,0.1327328222624295,0.06582189164239705,0.9855822119638048,0.2508810460567474,-0.178545743227005,-0.9514095187187195
2020-07-29 16:06:08.695 +0200,79002.01388179167,0.2982940673828125,-0.1802978515625,-0.9416656494140625,79002.01011479167,0.1053908275920681,0.2547221917643075,0.1791195174367467,0.1013622432947159,-0.2138219177722931,-0.1970297396183014,0.0525837242603302,-0.007556349039077759,0.009390652179718018,XArbitraryZVertical,0.08192921103138112,0.1310051373959949,0.06337968193160737,0.9859555402283922,0.2479451894760132,-0.1781632453203201,-0.9522505402565002
2020-07-29 16:06:08.715 +0200,79002.03391679167,0.30499267578125,-0.1894683837890625,-0.92608642578125,79002.03014979167,0.1008448128828921,0.2525489773497803,0.1798634128152317,0.09486079961061478,-0.2084915935993195,-0.1900343745946884,0.06473670899868011,-0.009711027145385742,0.0189744234085083,XArbitraryZVertical,0.08266040756956296,0.1297613300603065,0.06109398255755949,0.9862032092455648,0.2458419799804688,-0.1788951903581619,-0.9526585340499878
2020-07-29 16:06:08.735 +0200,79002.05395079167,0.293701171875,-0.1965179443359375,-0.9141693115234375,79002.05018479167,0.09649718344158699,0.2508294801691158,0.1811939528670385,0.09578145295381546,-0.1783906817436218,-0.1789338290691376,0.06128115952014923,-0.01803199946880341,0.03721082210540771,XArbitraryZVertical,0.08364989660706144,0.1287575027349411,0.05895859839000278,0.9863812834540933,0.2441442161798477,-0.1802041083574295,-0.9528483748435974
2020-07-29 16:06:08.755 +0200,79002.07398579168,0.287567138671875,-0.199737548828125,-0.9110870361328125,79002.07021879168,0.09221324673856858,0.2497736007292429,0.1825212167141665,0.1025546714663506,-0.137112483382225,-0.1774391084909439,0.05199040472507477,-0.02040550112724304,0.04147684574127197,XArbitraryZVertical,0.08461088512663534,0.128079913608253,0.05688082434718394,0.9865096114424925,0.2430786639451981,-0.1815094798803329,-0.9528730511665344
2020-07-29 16:06:08.775 +0200,79002.09402079167,0.281036376953125,-0.1998138427734375,-0.917083740234375,79002.09025379167,0.08803630017202374,0.2494776288617401,0.1834524997662441,0.08583907037973404,-0.106865368783474,-0.1680003702640533,0.048201784491539,-0.02187737822532654,0.04051703214645386,XArbitraryZVertical,0.08534618252008122,0.1277718776105911,0.05486361962452513,0.9866004515225513,0.2427547872066498,-0.1824252158403397,-0.9527807235717773
2020-07-29 16:06:08.795 +0200,79002.11405479167,0.2800750732421875,-0.198974609375,-0.9251708984375,79002.11028879168,0.08422828466469824,0.2498794287372184,0.1839610132320941,0.07988797873258591,-0.07571224123239517,-0.1492702066898346,0.0406029224395752,-0.02062679827213287,0.03189593553543091,XArbitraryZVertical,0.08582977594440058,0.127815054336975,0.0530327740145114,0.9866529477733377,0.2431146204471588,-0.1829251796007156,-0.9525931477546692
2020-07-29 16:06:08.815 +0200,79002.13408979167,0.28387451171875,-0.1869964599609375,-0.9280242919921875,79002.13032279167,0.08062460613860285,0.2507256514841431,0.1853150546347883,0.08702178299427032,-0.05730580538511276,-0.1458251029253006,0.04752154648303986,-0.01557479798793793,0.0262567400932312,XArbitraryZVertical,0.08670686048178539,0.1280968416353194,0.05137303131833343,0.9866275629763324,0.2438589632511139,-0.1842561960220337,-0.9521462321281433
2020-07-29 16:06:08.835 +0200,79002.15412479168,0.292236328125,-0.191497802734375,-0.92108154296875,79002.15035779167,0.07702791804469361,0.2519663575159095,0.1876642502720393,0.119345635175705,-0.02586932107806206,-0.1348806470632553,0.04693306982517242,-0.001955151557922363,0.02930307388305664,XArbitraryZVertical,0.08806619525260793,0.1285837425139238,0.04979523914953227,0.9865246752129515,0.2449315190315247,-0.1865646690130234,-0.9514211416244507
2020-07-29 16:06:08.855 +0200,79002.17415879168,0.28509521484375,-0.205596923828125,-0.9192962646484375,79002.17039279167,0.07374685770487441,0.253258882914137,0.1902310542602266,0.09322056174278259,-0.01456819660961628,-0.1163841634988785,0.05180251598358154,-0.01589910686016083,0.03352785110473633,XArbitraryZVertical,0.08951301998119983,0.1291081191323482,0.04839061219546636,0.9863958583008301,0.2460402548313141,-0.1890857815742493,-0.9506370425224304
2020-07-29 16:06:08.875 +0200,79002.19419379167,0.2834930419921875,-0.1909942626953125,-0.93603515625,79002.19042679167,0.07095200215197907,0.2545483040885097,0.1922071146288644,0.07530906796455383,-0.006163792219012976,-0.1061170324683189,0.04244436323642731,-0.01162633299827576,0.0222734808921814,XArbitraryZVertical,0.09063839130860432,0.1296414880322056,0.04719140120329207,0.9862813075156481,0.2471712529659271,-0.1910258233547211,-0.9499555230140686
2020-07-29 16:06:08.895 +0200,79002.21422879166,0.286163330078125,-0.1891326904296875,-0.95428466796875,79002.21046179168,0.06836750561019442,0.256015210350679,0.1936369875747178,0.05090199783444405,-0.01438949815928936,-0.09923819452524185,0.04405225813388824,-0.002216115593910217,0.003792107105255127,XArbitraryZVertical,0.09147782356996471,0.1302629940031497,0.04607188981495541,0.9861748102901119,0.2484950572252274,-0.1924291700124741,-0.9493266940116882
2020-07-29 16:06:08.916 +0200,79002.23426279167,0.286376953125,-0.182525634765625,-0.962066650390625,79002.23049679167,0.06597522291560069,0.2572955705531306,0.193652866705241,0.03922257199883461,-0.03776965662837029,-0.09795737266540527,0.04442401230335236,0.00332273542881012,-0.009339272975921631,XArbitraryZVertical,0.09161265031033686,0.1307849799340185,0.04495189458494042,0.9861448811243434,0.2497095465660095,-0.1924447566270828,-0.9490048289299011
2020-07-29 16:06:08.936 +0200,79002.25429779167,0.2829437255859375,-0.1846160888671875,-0.9572601318359375,79002.25053079167,0.06346073051501905,0.257959608945086,0.1944056582940508,0.0413026325404644,-0.07678789645433426,-0.1087368577718735,0.04071752727031708,0.00790366530418396,-0.009836494922637939,XArbitraryZVertical,0.09213395875354961,0.1310042173221482,0.04378951112761825,0.9861195829522578,0.250302642583847,-0.193183422088623,-0.9486984610557556
2020-07-29 16:06:08.956 +0200,79002.27433279167,0.2870635986328125,-0.1955108642578125,-0.950592041015625,79002.27056579167,0.06074097889425978,0.2575404683015755,0.195396125161415,0.03104600310325623,-0.1217617616057396,-0.1225364431738853,0.04103106260299683,-0.005033969879150391,-0.002896130084991455,XArbitraryZVertical,0.09280968662276783,0.1306807941376658,0.04249094102028445,0.9861558865504394,0.2498561292886734,-0.194155141711235,-0.9486177563667297
2020-07-29 16:06:08.976 +0200,79002.29436679167,0.2862701416015625,-0.2078857421875,-0.9456634521484375,79002.29060079168,0.0579911746642601,0.2563452605049381,0.1949948975248847,0.009759888052940369,-0.1808517128229141,-0.1156714260578156,0.04590219259262085,-0.01118578016757965,0.002015054225921631,XArbitraryZVertical,0.09281583037553851,0.1299604395991191,0.04105450969938879,0.9863113015940559,0.2487418800592422,-0.1937615275382996,-0.9489910006523132
2020-07-29 16:06:08.996 +0200,79002.31440179168,0.27532958984375,-0.2114410400390625,-0.9371337890625,79002.31063479168,0.05568048085815451,0.2537411545103221,0.19353861974721,-0.04272768646478653,-0.2359027117490768,-0.09789090603590012,0.04331624507904053,-0.01813381910324097,0.007639467716217041,XArbitraryZVertical,0.09229895909269667,0.128557639740167,0.03970415900738716,0.9865988778474853,0.2463403344154358,-0.1923326402902603,-0.949907660484314
2020-07-29 16:06:09.016 +0200,79002.33443679167,0.263275146484375,-0.212005615234375,-0.9276885986328125,79002.33066979167,0.05430913448216559,0.2497085085011927,0.1908004454594324,-0.1144546046853065,-0.2868047654628754,-0.06252629309892654,0.03298234939575195,-0.02948373556137085,0.01960861682891846,XArbitraryZVertical,0.09111347704440367,0.126484337808285,0.03867519582554596,0.9870178813760254,0.2426369488239288,-0.1896448731422424,-0.951400101184845
2020-07-29 16:06:09.036 +0200,79002.35447200001,0.2526397705078125,-0.2003021240234375,-0.9215850830078125,79002.35070479166,0.05380174637162134,0.2450275427884712,0.1877063323199968,-0.1717868745326996,-0.3102240562438965,-0.04007908329367638,0.02461817860603333,-0.01982906460762024,0.02955800294876099,XArbitraryZVertical,0.08970672706677367,0.1241274956773136,0.03802711897377881,0.9874710208022159,0.2383220344781876,-0.1866060048341751,-0.9530901312828064
2020-07-29 16:06:09.056 +0200,79002.374507,0.2416839599609375,-0.2004241943359375,-0.9174652099609375,79002.37074,0.05402313893781158,0.2401168965195169,0.1843759132211323,-0.2423750162124634,-0.2961577773094177,-0.01973622106015682,0.01831665635108948,-0.02360159158706665,0.03717720508575439,XArbitraryZVertical,0.08814037935364633,0.1216865668162611,0.03772172889724201,0.9879274751060396,0.2337853908538818,-0.1833330541849136,-0.9548472762107849
2020-07-29 16:06:09.076 +0200,79002.39454200001,0.2286834716796875,-0.1846923828125,-0.9188232421875,79002.39077500001,0.05469916024225816,0.2351882342278717,0.1803375351716842,-0.2917819917201996,-0.2729635238647461,-0.02690765634179115,0.01235249638557434,-0.01542122662067413,0.03892362117767334,XArbitraryZVertical,0.08619599571310718,0.1192483837817124,0.03760759996899898,0.9884006364376882,0.2292471081018448,-0.1793616414070129,-0.9567001461982727
2020-07-29 16:06:09.096 +0200,79002.41457600001,0.2027435302734375,-0.17449951171875,-0.9188690185546875,79002.41081,0.0553059413349072,0.2307465641088624,0.1755913646498002,-0.3234962224960327,-0.2074268609285355,-0.05002138391137123,-0.002410173416137695,-0.008808448910713196,0.04090386629104614,XArbitraryZVertical,0.08389603591998278,0.1170385419823373,0.03744982645831441,0.9888684941355634,0.225187674164772,-0.1746904402971268,-0.9585268497467041
2020-07-29 16:06:09.116 +0200,79002.434611,0.1800994873046875,-0.1668701171875,-0.922637939453125,79002.430844,0.055396344093052,0.2278999325742549,0.170440596241778,-0.3226743936538696,-0.1190424039959908,-0.0813969224691391,-0.02516578137874603,-0.0007116496562957764,0.04122364521026611,XArbitraryZVertical,0.08139519014726153,0.1155894392398077,0.03708958234900778,0.9892614614810381,0.2226585298776627,-0.1696165800094604,-0.960027813911438
2020-07-29 16:06:09.151 +0200,79002.454646,0.167388916015625,-0.161895751953125,-0.9313812255859375,79002.45087900001,0.05482203152660294,0.2271894429362097,0.1650911578432064,-0.3212373554706573,0.0008714799769222736,-0.1214171946048737,-0.04866819083690643,-0.005810827016830444,0.03642833232879639,XArbitraryZVertical,0.07879360860435317,0.1151674289496577,0.03648067775511027,0.9895439561215349,0.22217757999897,-0.1643422544002533,-0.9610560536384583
2020-07-29 16:06:09.168 +0200,79002.47468,0.1730804443359375,-0.151611328125,-0.942626953125,79002.470914,0.05341391468583328,0.2288176331361496,0.1596954504805071,-0.3021023869514465,0.1091593354940414,-0.1629715710878372,-0.05082979798316956,-0.0001101940870285034,0.0275341272354126,XArbitraryZVertical,0.07617441757038454,0.1158711272567493,0.03554711650367626,0.9897008439635375,0.2239399403333664,-0.1590175330638885,-0.9615426659584045
2020-07-29 16:06:09.176 +0200,79002.49471500001,0.1752166748046875,-0.1263885498046875,-0.96099853515625,79002.49094800001,0.05102583850440434,0.2324416472551851,0.1545612334586547,-0.2359895557165146,0.2082430422306061,-0.2092432230710983,-0.04822824895381927,0.007470667362213135,0.01388806104660034,XArbitraryZVertical,0.07370862904750244,0.1175318302974234,0.03421201363182241,0.9897387779924214,0.2276081740856171,-0.153946578502655,-0.9615066051483154
2020-07-29 16:06:09.196 +0200,79002.51475,0.191558837890625,-0.1199951171875,-0.981719970703125,79002.510983,0.04717722191986122,0.2378829687981497,0.1511330770848787,-0.1081851273775101,0.309260219335556,-0.265563040971756,-0.04119554162025452,0.02963241934776306,-0.01343512535095215,XArbitraryZVertical,0.07214959161409988,0.1200577468480947,0.0323087381205534,0.98961448260616,0.2329596430063248,-0.1505583971738815,-0.9607611298561096
2020-07-29 16:06:09.216 +0200,79002.53478500001,0.207275390625,-0.1277313232421875,-0.98895263671875,79002.53101800001,0.04193615600503034,0.2450565820898102,0.1499737658557291,-0.001603820361196995,0.3890077769756317,-0.2974520325660706,-0.03547215461730957,0.0205797404050827,-0.02670466899871826,XArbitraryZVertical,0.07178324915885183,0.1234106419880907,0.02990531626839932,0.9893040922798242,0.2398879081010818,-0.1494121998548508,-0.9592339396476746
2020-07-29 16:06:09.236 +0200,79002.55481900001,0.233734130859375,-0.1231231689453125,-0.9998321533203125,79002.55105200001,0.03591588470471047,0.2530521414469609,0.1503125234967609,0.07979542762041092,0.4260725975036621,-0.3145799934864044,-0.0215560644865036,0.02070806920528412,-0.03860211372375488,XArbitraryZVertical,0.07221373255459609,0.1271497759390772,0.02723656979911243,0.9888762623014298,0.2475370764732361,-0.1497471332550049,-0.9572362303733826
2020-07-29 16:06:09.256 +0200,79002.57485400001,0.262054443359375,-0.1232452392578125,-1.01080322265625,79002.571087,0.02939124143844201,0.2611804936937741,0.1513450365550667,0.1357469856739044,0.4278654158115387,-0.3157445788383484,0.001021966338157654,0.02532018721103668,-0.05146878957748413,XArbitraryZVertical,0.07304039537169202,0.130934201550759,0.02437183497208761,0.9883963244001863,0.2552694976329803,-0.1507679373025894,-0.9550426602363586
2020-07-29 16:06:09.276 +0200,79002.594889,0.2718658447265625,-0.123992919921875,-1.013519287109375,79002.591122,0.02297273120223517,0.2690739713803886,0.1516386378089279,0.1627285331487656,0.3904605209827423,-0.2833252251148224,0.01112842559814453,0.01847741007804871,-0.05643469095230103,XArbitraryZVertical,0.07352103963620574,0.1345994955864833,0.02150896576281575,0.9879347301454302,0.2627882957458496,-0.151058167219162,-0.9529552459716797
2020-07-29 16:06:09.296 +0200,79002.614923,0.2714385986328125,-0.1290130615234375,-1.0081787109375,79002.61115700001,0.01707538777118694,0.2760750602701564,0.1521559844567026,0.1664196699857712,0.3414115011692047,-0.2465661317110062,0.01198703050613403,0.02178385853767395,-0.06264382600784302,XArbitraryZVertical,0.07410755282584036,0.1378392952238104,0.01888974442012387,0.9874975956329444,0.2694321870803833,-0.1515695601701736,-0.9510167837142944
2020-07-29 16:06:09.316 +0200,79002.63495800001,0.2779693603515625,-0.129180908203125,-1.000747680664062,79002.63119100001,0.01192055351795267,0.2821371034995854,0.1529766704594412,0.1677792221307755,0.289535254240036,-0.2049849331378937,0.006737738847732544,0.02057620882987976,-0.05138576030731201,XArbitraryZVertical,0.07481779671795864,0.1406384751155942,0.01662745428261697,0.9870899610907028,0.2751576006412506,-0.1523807048797607,-0.9492462277412415
2020-07-29 16:06:09.336 +0200,79002.654993,0.281402587890625,-0.1344757080078125,-0.9961395263671875,79002.651226,0.007522252439205371,0.2873241023254728,0.1535291568952304,0.1384226530790329,0.2198562920093536,-0.1705570369958878,0.007393836975097656,0.01541730761528015,-0.05170965194702148,XArbitraryZVertical,0.07536176084728119,0.143031230670708,0.01469080398587086,0.9867354057080271,0.2800537049770355,-0.1529267281293869,-0.9477253556251526
2020-07-29 16:06:09.356 +0200,79002.675027,0.2849273681640625,-0.1303253173828125,-0.9886016845703125,79002.67126100001,0.003838084570274181,0.2913144545588977,0.1540429090867309,0.1342183202505112,0.1606278568506241,-0.1342514157295227,0.006796151399612427,0.0192999392747879,-0.04560220241546631,XArbitraryZVertical,0.07585267903395131,0.1448582545849144,0.01306112390719683,0.9864542067006949,0.2838106155395508,-0.1534344106912613,-0.9465249180793762
2020-07-29 16:06:09.376 +0200,79002.695062,0.287384033203125,-0.1336669921875,-0.974822998046875,79002.69129500001,0.0008268455544670547,0.2942131493887655,0.1546991483521525,0.1317290663719177,0.1086389571428299,-0.1017160043120384,0.006957173347473145,0.01376788318157196,-0.03623360395431519,XArbitraryZVertical,0.07637744821137682,0.1461699002573288,0.01173406695345419,0.9862368810919443,0.286523848772049,-0.1540828496217728,-0.9456017017364502
2020-07-29 16:06:09.396 +0200,79002.71509700001,0.291351318359375,-0.144683837890625,-0.9575653076171875,79002.71133000001,-0.001455109069740258,0.2959694034281246,0.1553493864112492,0.1102749109268188,0.06041629612445831,-0.07017630338668823,0.009165704250335693,0.01154114305973053,-0.01928722858428955,XArbitraryZVertical,0.07685543131569249,0.146944719414089,0.01072381048887228,0.986096040468459,0.2881548404693604,-0.1547252833843231,-0.9450010061264038
2020-07-29 16:06:09.416 +0200,79002.73513100001,0.2920074462890625,-0.1451263427734375,-0.9485931396484375,79002.731365,-0.00286182981279695,0.2967084523615925,0.1557391389279876,0.08182156085968018,0.01628958433866501,-0.02613655850291252,0.008776456117630005,0.005508005619049072,-0.008260011672973633,XArbitraryZVertical,0.07714720551493183,0.1472524925701288,0.0100874035721123,0.9860340577652708,0.2888355255126953,-0.1551103293895721,-0.9447300434112549
2020-07-29 16:06:09.437 +0200,79002.755166,0.29327392578125,-0.137359619140625,-0.9453277587890625,79002.751399,-0.003452447404439925,0.2966734883934711,0.1558106972132578,0.05772288516163826,-0.01122486405074596,0.00373014691285789,0.01155844330787659,0.007530078291893005,-0.002736806869506836,XArbitraryZVertical,0.07722613430969107,0.1472119894318893,0.009800144793210452,0.986036854002479,0.2887992262840271,-0.1551810204982758,-0.9447295069694519
2020-07-29 16:06:09.456 +0200,79002.77520100001,0.2998046875,-0.128173828125,-0.939788818359375,79002.77143400001,-0.003607193264031805,0.296263185795927,0.1559693390857937,0.07541226595640182,-0.02052515558898449,0.01830151863396168,0.01584985852241516,0.01799789071083069,0.00284886360168457,XArbitraryZVertical,0.07731773209981002,0.1470026754100765,0.009719690068594466,0.9860616690144477,0.2884044051170349,-0.1553377509117126,-0.9448243379592896
2020-07-29 16:06:09.476 +0200,79002.795235,0.2998809814453125,-0.14166259765625,-0.93438720703125,79002.791469,-0.003592773243592359,0.2956198822053359,0.1565018912750306,0.07122404873371124,-0.04270822182297707,0.03202124685049057,0.01892298460006714,0.01738190650939941,0.008094549179077148,XArbitraryZVertical,0.07758235877570015,0.1466825218280781,0.009741061712203014,0.986088370702062,0.2877723872661591,-0.1558638066053391,-0.9449304342269897
2020-07-29 16:06:09.497 +0200,79002.81527000001,0.297393798828125,-0.144805908203125,-0.9243011474609375,79002.811503,-0.003212022807553712,0.2949302710476171,0.1568731341509291,0.04859676584601402,-0.03620744496583939,0.04584556818008423,0.01798823475837708,0.006982147693634033,0.01809102296829224,XArbitraryZVertical,0.07774089096097696,0.1463548424944403,0.009929259268979695,0.9861227036973816,0.2871038615703583,-0.1562305092811584,-0.9450732469558716
2020-07-29 16:06:09.517 +0200,79002.835305,0.2956695556640625,-0.129669189453125,-0.9336395263671875,79002.831538,-0.002583654315445854,0.2944027299392886,0.1568381234562328,0.03904760256409645,-0.03542127832770348,0.0479457750916481,0.01767963171005249,0.009969666600227356,0.01719087362289429,XArbitraryZVertical,0.07768033866129208,0.1461193662921184,0.01021602693994705,0.9861594871483687,0.2866068184375763,-0.1561959236860275,-0.9452297687530518
2020-07-29 16:06:09.537 +0200,79002.855339,0.2877197265625,-0.110198974609375,-0.941497802734375,79002.85157300001,-0.002309027184952705,0.2942204230552929,0.1572679939428625,0.1050737574696541,0.004737590905278921,0.02891512773931026,0.01449459791183472,0.03714773058891296,0.00680309534072876,XArbitraryZVertical,0.07787316810347564,0.1460374148145626,0.01037578633140973,0.9861548091798351,0.2864150106906891,-0.1566205024719238,-0.9452176690101624
2020-07-29 16:06:09.557 +0200,79002.87537400001,0.2889404296875,-0.103607177734375,-0.9454803466796875,79002.87160700001,-0.002930416802460489,0.2950986680372911,0.1593945790941981,0.2253208160400391,0.02499812096357346,0.0129342982545495,0.008378416299819946,0.05160161852836609,-0.0003473758697509766,XArbitraryZVertical,0.07896253778370581,0.1464323515161211,0.0102595606871399,0.9860107754481897,0.2871475219726562,-0.1587204933166504,-0.9446449875831604
2020-07-29 16:06:09.577 +0200,79002.895409,0.285797119140625,-0.1216583251953125,-0.9403839111328125,79002.891642,-0.004529094926495418,0.2965108002071317,0.1634403279631527,0.2861942648887634,0.03270211443305016,-0.01009557768702507,0.00822409987449646,0.05027830600738525,0.00016021728515625,XArbitraryZVertical,0.08106696723344108,0.1470367411884256,0.009825430581716199,0.9857544298119927,0.2882912158966064,-0.1627136468887329,-0.9436166882514954
2020-07-29 16:06:09.597 +0200,79002.91544300001,0.26617431640625,-0.16522216796875,-0.9308624267578125,79002.91167700001,-0.006496675216634869,0.2978392928789367,0.1675975991020263,0.2516838312149048,0.01743847131729126,-0.01484547834843397,-0.006230175495147705,0.01899988949298859,0.01080477237701416,XArbitraryZVertical,0.08325418064504106,0.1475795259117982,0.009217494607533128,0.985496855265154,0.289343535900116,-0.1668140888214111,-0.9425780773162842
2020-07-29 16:06:09.617 +0200,79002.935478,0.26446533203125,-0.1790771484375,-0.9420013427734375,79002.93171100001,-0.008168254001584213,0.2982913614116462,0.1701905786026483,0.1766573935747147,-0.01215617172420025,-0.02452473714947701,-0.01959756016731262,-0.01059600710868835,0.00805819034576416,XArbitraryZVertical,0.08465304714805534,0.147711176658492,0.008605072452242013,0.9853635056696676,0.2896415293216705,-0.169370174407959,-0.9420305490493774
2020-07-29 16:06:09.651 +0200,79002.95551300001,0.2711944580078125,-0.1807403564453125,-0.94256591796875,79002.95174600001,-0.009554065691583253,0.2982388539346384,0.1708785668183179,0.08968774229288101,-0.0251886174082756,-0.03548387438058853,-0.01567068696022034,-0.01254385709762573,-0.003418922424316406,XArbitraryZVertical,0.08509450389808634,0.1476206488122249,0.007971140879094174,0.9853443411480116,0.2895577549934387,-0.1700481921434402,-0.9419341683387756
2020-07-29 16:06:09.665 +0200,79002.975548,0.2754974365234375,-0.192596435546875,-0.926361083984375,79002.971781,-0.01052942930565844,0.297882498804397,0.1699540366600422,0.004173242021352053,-0.03101241774857044,-0.03269501030445099,-0.009727120399475098,-0.02151979506015778,0.01086592674255371,XArbitraryZVertical,0.08471236371862458,0.147411792583801,0.00740687803776513,0.9854129813751413,0.2892680764198303,-0.1691370457410812,-0.9421871304512024
2020-07-29 16:06:09.677 +0200,79002.995582,0.2790374755859375,-0.1745452880859375,-0.9327850341796875,79002.991815,-0.01099138889755997,0.2971875158867607,0.1683561164471892,-0.01174620352685452,-0.03637708723545074,-0.02691560983657837,-0.002191931009292603,-0.02116416394710541,0.01781296730041504,XArbitraryZVertical,0.08396163687018153,0.1470641106794396,0.007031592400370434,0.9855319108604117,0.2886919677257538,-0.1675619333982468,-0.9426451921463013
2020-07-29 16:06:09.697 +0200,79003.01561700001,0.285675048828125,-0.1819000244140625,-0.9424591064453125,79003.01185000001,-0.01147487375527618,0.2960513329368819,0.16929072484779,0.02389661222696304,-0.03467639163136482,-0.01959004998207092,0.001918941736221313,-0.01114067435264587,0.009257793426513672,XArbitraryZVertical,0.0844615400709057,0.1464754611103274,0.006814526275164157,0.9855783702741187,0.2875749468803406,-0.1684832572937012,-0.9428223967552185
2020-07-29 16:06:09.717 +0200,79003.03565200001,0.2991790771484375,-0.183624267578125,-0.9490203857421875,79003.031885,-0.01196168211830872,0.2951086427164036,0.1709026845823165,0.03999515622854233,-0.02587438002228737,-0.01180483307689428,0.01276648044586182,-0.0127190500497818,-0.005304932594299316,XArbitraryZVertical,0.08529454343502436,0.1459755139045694,0.006653272612612726,0.985581935508788,0.2866066694259644,-0.1700719594955444,-0.9428319931030273
2020-07-29 16:06:09.737 +0200,79003.05568600001,0.304901123046875,-0.1956634521484375,-0.947540283203125,79003.05192,-0.01240995387570131,0.2945314237625647,0.1728374866942667,0.03601599484682083,-0.03247502446174622,-0.006149457767605782,0.02608644962310791,-0.02131178975105286,-0.005422115325927734,XArbitraryZVertical,0.08628242066052295,0.145653844474794,0.006549676642666702,0.9855441898669139,0.2859663665294647,-0.1719782501459122,-0.9426805973052979
2020-07-29 16:06:09.757 +0200,79003.075721,0.3095245361328125,-0.199554443359375,-0.9427490234375,79003.071954,-0.01248847627489262,0.2940407939879269,0.1742709827019261,-0.008546813391149044,-0.0285005234181881,0.003477488877251744,0.02669918537139893,-0.03278239071369171,0.001487314701080322,XArbitraryZVertical,0.08699601077124776,0.1453951729472809,0.006594798885391606,0.98551935508886,0.2854320704936981,-0.1733902096748352,-0.9425838589668274
2020-07-29 16:06:09.777 +0200,79003.09575600001,0.3094940185546875,-0.1866912841796875,-0.946380615234375,79003.09198900001,-0.01229927920201717,0.293652526681183,0.1750964385931089,-0.01637144759297371,-0.02238830178976059,0.009497602470219135,0.03414630889892578,-0.0252755731344223,-0.001346230506896973,XArbitraryZVertical,0.08739024189033689,0.1452043057237876,0.006731510091610549,0.9855117127568915,0.2850245535373688,-0.174203097820282,-0.9425573348999023
2020-07-29 16:06:09.797 +0200,79003.11579000001,0.30816650390625,-0.182647705078125,-0.9497528076171875,79003.112024,-0.01194237727267428,0.2937134399823614,0.1760330908560963,-0.002832735422998667,-0.003020463511347771,0.02098305523395538,0.02917739748954773,-0.01581576466560364,-0.002538204193115234,XArbitraryZVertical,0.08782557944202909,0.1452411566015671,0.006978545204985975,0.9854658154876299,0.2850345969200134,-0.1751253604888916,-0.942383348941803
2020-07-29 16:06:09.817 +0200,79003.135825,0.3068084716796875,-0.1887054443359375,-0.94476318359375,79003.132058,-0.01150677693315033,0.294154153056277,0.1773535839293489,0.01558768376708031,0.003763939719647169,0.03394218534231186,0.02929580211639404,-0.008947804570198059,-0.007317841053009033,XArbitraryZVertical,0.08844286282508974,0.1454651436191298,0.00730923357297586,0.9853752286892884,0.2853825986385345,-0.1764252930879593,-0.9420354962348938
2020-07-29 16:06:09.837 +0200,79003.15586,0.301422119140625,-0.190521240234375,-0.943634033203125,79003.15209300001,-0.010817635106641,0.2946014200727387,0.1788813722625953,-0.003146057017147541,0.0184912197291851,0.04799553751945496,0.0274507999420166,-0.02298396825790405,-0.002079904079437256,XArbitraryZVertical,0.0891435859481146,0.145701929195489,0.007780566112770115,0.9852734660881441,0.285725325345993,-0.1779289096593857,-0.9416487216949463
2020-07-29 16:06:09.857 +0200,79003.175894,0.3011474609375,-0.1868438720703125,-0.93316650390625,79003.17212800001,-0.009805800077973855,0.2954983927842362,0.1801906150777217,-0.005532647948712111,0.03433569520711899,0.06102638319134712,0.02142909169197083,-0.01019167900085449,0.006927251815795898,XArbitraryZVertical,0.0897109733542453,0.1461770772330275,0.008415242439681059,0.9851463422884105,0.2865017354488373,-0.1792171001434326,-0.9411684274673462
2020-07-29 16:06:09.877 +0200,79003.19592900001,0.2997894287109375,-0.1824493408203125,-0.9385528564453125,79003.19216200001,-0.008666425171087854,0.2968662668878554,0.181457906831223,0.005770606454461813,0.04571644961833954,0.06895320117473602,0.01846852898597717,-0.01228678226470947,0.008833944797515869,XArbitraryZVertical,0.09024560007281639,0.1468907369628045,0.009131335061296542,0.9849849625835335,0.2877222001552582,-0.1804637312889099,-0.9405576586723328
2020-07-29 16:06:09.897 +0200,79003.215964,0.3029327392578125,-0.17913818359375,-0.94268798828125,79003.212197,-0.00753787681941726,0.2987075383885019,0.1824842944952166,0.01172396913170815,0.05135622620582581,0.06893273442983627,0.02037295699119568,-0.001505926251411438,-0.001302719116210938,XArbitraryZVertical,0.09065909729967089,0.1478395436784394,0.009846359506586466,0.9847980988554244,0.2893988788127899,-0.1814731806516647,-0.939848780632019
2020-07-29 16:06:09.917 +0200,79003.235998,0.298187255859375,-0.17572021484375,-0.935211181640625,79003.23223200001,-0.006309359043562716,0.3000398489837405,0.1841986757438405,0.007680758368223906,0.04668211191892624,0.06901754438877106,0.01771596074104309,-0.001082301139831543,0.001141846179962158,XArbitraryZVertical,0.09140524099876615,0.1485367923633537,0.01063942558074205,0.9846160331235825,0.2905584275722504,-0.1831588298082352,-0.9391638040542603
2020-07-29 16:06:09.937 +0200,79003.256033,0.2882843017578125,-0.1707763671875,-0.935333251953125,79003.25226600001,-0.005165767680069515,0.3013064382985214,0.1857510255120644,0.01579074934124947,0.03726251050829887,0.06351886689662933,0.008383423089981079,0.001947313547134399,0.007489442825317383,XArbitraryZVertical,0.09207725841883352,0.1491998265557136,0.01137643158334206,0.9844448654211245,0.2916629910469055,-0.184684693813324,-0.9385223984718323
2020-07-29 16:06:09.957 +0200,79003.27606800001,0.2824249267578125,-0.1568450927734375,-0.941802978515625,79003.272301,-0.004371899524729246,0.3025351790351012,0.1875780277844449,0.0418255478143692,0.0338270328938961,0.0504479669034481,0.001375824213027954,0.01900310814380646,0.000811457633972168,XArbitraryZVertical,0.09290988935252174,0.1498263489264903,0.01196096188937279,0.9842645556149044,0.2927149534225464,-0.1864799559116364,-0.9378396272659302
2020-07-29 16:06:09.977 +0200,79003.29610200001,0.2816314697265625,-0.15692138671875,-0.949432373046875,79003.292336,-0.00401613452336501,0.3041621051295224,0.1883302668055923,0.05082636326551437,0.03539669886231422,0.03506029769778252,-0.005533784627914429,0.02448472380638123,-0.006560027599334717,XArbitraryZVertical,0.09324346182731247,0.1506373981263075,0.01226839805029334,0.9841053982789717,0.2941982448101044,-0.1872189491987228,-0.9372280836105347
2020-07-29 16:06:09.997 +0200,79003.316137,0.2914581298828125,-0.16339111328125,-0.9553375244140625,79003.31237100001,-0.003885999842857907,0.3056401753302333,0.1887146533672601,0.05299684032797813,0.03528830781579018,0.02592108957469463,-0.003323584794998169,0.02602797746658325,-0.01547503471374512,XArbitraryZVertical,0.0934136271487401,0.1513675940167385,0.01243049334090834,0.9839751509012299,0.2955615520477295,-0.1875965297222137,-0.9367234706878662
2020-07-29 16:06:10.018 +0200,79003.33617200001,0.296844482421875,-0.1718597412109375,-0.9542083740234375,79003.33240500001,-0.003730142086149597,0.3065951056346237,0.1885480844252041,0.02590037509799004,0.01548211462795734,0.02310171350836754,0.004766970872879028,0.01489730179309845,-0.01773589849472046,XArbitraryZVertical,0.09331390719930389,0.1518460169924578,0.01253909201356296,0.9839095389128096,0.2964653372764587,-0.1874329149723053,-0.936470627784729
2020-07-29 16:06:10.038 +0200,79003.35620712501,0.2957763671875,-0.17327880859375,-0.9535369873046875,79003.35244,-0.003380454455978161,0.3066581591514802,0.187832523778841,0.01392094418406487,0.001427548471838236,0.02375544421374798,0.00874406099319458,0.009008347988128662,-0.01616477966308594,XArbitraryZVertical,0.09293494114370135,0.1518990704639324,0.01265960334074862,0.9839357295489339,0.2965648174285889,-0.1867299824953079,-0.9365795254707336
2020-07-29 16:06:10.058 +0200,79003.37624112501,0.29156494140625,-0.1670989990234375,-0.9561920166015625,79003.37247512501,-0.002991743267076468,0.3063254202167531,0.1870710312432807,0.02191748470067978,-0.00518294982612133,0.02229085750877857,0.003650486469268799,0.01084202527999878,-0.01509737968444824,XArbitraryZVertical,0.09253292782860079,0.1517594333817434,0.01277749508980525,0.9839936048317643,0.2962959408760071,-0.1859818249940872,-0.9368134737014771
2020-07-29 16:06:10.077 +0200,79003.396276125,0.2908782958984375,-0.17254638671875,-0.95245361328125,79003.392509125,-0.002647905257634606,0.3058563912187526,0.1866917361004981,0.04337670281529427,-0.02534973807632923,0.03346646949648857,0.005126595497131348,0.01351495087146759,-0.01619333028793335,XArbitraryZVertical,0.09232325727286603,0.1515475180631171,0.01289618107495977,0.9840444062970388,0.2958777546882629,-0.1856091320514679,-0.9370195269584656
2020-07-29 16:06:10.098 +0200,79003.41631112501,0.29461669921875,-0.1816558837890625,-0.9526824951171875,79003.41254412501,-0.002094361839346133,0.3050132154068383,0.1867086873434796,0.04802658036351204,-0.04549708217382431,0.04973279312252998,0.003640055656433105,0.00391814112663269,-0.01430529356002808,XArbitraryZVertical,0.09229519238593537,0.1511580604699275,0.01313091252820964,0.9841038502629651,0.2950866222381592,-0.1856257915496826,-0.9372656941413879
2020-07-29 16:06:10.117 +0200,79003.43634512501,0.2943267822265625,-0.19342041015625,-0.941925048828125,79003.432579125,-0.001168979149391149,0.3038065597819256,0.186644419845241,0.01735841855406761,-0.06824234127998352,0.07209615409374237,0.009836405515670776,-0.005237728357315063,-0.009049415588378906,XArbitraryZVertical,0.09220179565901764,0.1506074554079527,0.01352575881846002,0.9841916984203528,0.2939590215682983,-0.1855626404285431,-0.9376324415206909
2020-07-29 16:06:10.153 +0200,79003.456380125,0.2920684814453125,-0.20245361328125,-0.9245758056640625,79003.452613125,0.0004294880086890032,0.3020222066555157,0.1860656088516305,-0.01652324758470058,-0.08800752460956573,0.09246785193681717,0.01065966486930847,-0.02013584971427917,0.007658660411834717,XArbitraryZVertical,0.09180925692213056,0.1498069656944344,0.01418685213783849,0.9843412417096642,0.2923173904418945,-0.1849938482046127,-0.9382578730583191
2020-07-29 16:06:10.167 +0200,79003.476415125,0.2844085693359375,-0.1922454833984375,-0.9215545654296875,79003.47264812501,0.002546993439754495,0.2998541275559104,0.1851311472712098,-0.02277528494596481,-0.09157083928585052,0.1106227338314056,0.003012508153915405,-0.01970426738262177,0.01835370063781738,XArbitraryZVertical,0.09120704131484099,0.1488428283607227,0.01506022199859824,0.9845305071175724,0.2903334200382233,-0.1840754449367523,-0.9390541911125183
2020-07-29 16:06:10.178 +0200,79003.496449125,0.285369873046875,-0.196319580078125,-0.9204864501953125,79003.492683125,0.004898085975624566,0.2979416676243296,0.1846174912437389,-0.006423875223845243,-0.07965531945228577,0.1318357288837433,0.005409300327301025,-0.01403228938579559,0.0232999324798584,XArbitraryZVertical,0.09079456657746571,0.1480113561165241,0.01609261963191005,0.9846776309829468,0.2885647118091583,-0.18357053399086,-0.9396979808807373
2020-07-29 16:06:10.198 +0200,79003.51648412501,0.2754669189453125,-0.196502685546875,-0.9113616943359375,79003.51271712501,0.007618371964162146,0.2968726379863142,0.1855753079435332,-0.02954716980457306,-0.06626414507627487,0.1550619900226593,0.001007527112960815,-0.01589098572731018,0.02499228715896606,XArbitraryZVertical,0.09107410617459033,0.1476036281474128,0.0174538364973934,0.9846898445565437,0.2875083982944489,-0.1845119893550873,-0.9398373365402222
2020-07-29 16:06:10.217 +0200,79003.536519125,0.2655181884765625,-0.1966400146484375,-0.907806396484375,79003.532752125,0.0110049700115286,0.2954159776669968,0.1867531407079397,-0.06329980492591858,-0.04491811245679855,0.1744616627693176,-0.01094621419906616,-0.01613524556159973,0.02974355220794678,XArbitraryZVertical,0.09141796224591876,0.1470355777753144,0.01914102917745591,0.984711573786061,0.2860755920410156,-0.185669481754303,-0.9400466084480286
2020-07-29 16:06:10.238 +0200,79003.556553125,0.27130126953125,-0.180572509765625,-0.9124908447265625,79003.55278712501,0.01482151052419867,0.294224238205934,0.1874754886678608,-0.08139146119356155,-0.02629409544169903,0.1794147342443466,-0.009647279977798462,-0.008103460073471069,0.03271186351776123,XArbitraryZVertical,0.09150545348145996,0.1466206789042876,0.02101823788188911,0.9847270927839614,0.2849161326885223,-0.1863792091608047,-0.940258264541626
2020-07-29 16:06:10.258 +0200,79003.57658812501,0.2761993408203125,-0.1571502685546875,-0.9239959716796875,79003.57282112501,0.01863330709152201,0.2934146365451529,0.1880442924665792,-0.07391171157360077,-0.007373133674263954,0.1699018180370331,-0.005700767040252686,0.01618427038192749,0.02056938409805298,XArbitraryZVertical,0.09151523931418731,0.1463949175317419,0.02289920368124659,0.9847177870547104,0.2841241061687469,-0.1869380176067352,-0.940386950969696
2020-07-29 16:06:10.278 +0200,79003.59662312501,0.2789306640625,-0.1661376953125,-0.9250335693359375,79003.592856125,0.02226343621621745,0.2927757698152874,0.1887378751757462,-0.08126775175333023,-0.0165887363255024,0.1649768650531769,0.001849561929702759,0.02167053520679474,0.01699334383010864,XArbitraryZVertical,0.09159884475777756,0.1462452783997107,0.02470733921528667,0.9846885625773065,0.2834857702255249,-0.1876193284988403,-0.9404439330101013
2020-07-29 16:06:10.298 +0200,79003.61665712501,0.2834930419921875,-0.1740570068359375,-0.918853759765625,79003.612891125,0.02615156759865216,0.2917183242284666,0.1889142012523763,-0.1306881606578827,-0.02243038080632687,0.173646554350853,0.007299989461898804,0.01012066006660461,0.01874971389770508,XArbitraryZVertical,0.09141527257622054,0.1459023852136024,0.02658595601217695,0.9847075386013981,0.2824816405773163,-0.1877925246953964,-0.940711498260498
2020-07-29 16:06:10.318 +0200,79003.636692125,0.29315185546875,-0.1776580810546875,-0.9108428955078125,79003.63292612501,0.03057876586857076,0.2904454537897331,0.1877943611180729,-0.2145528495311737,-0.03155064210295677,0.1858171224594116,0.01016449928283691,0.004424139857292175,0.02884769439697266,XArbitraryZVertical,0.09055874317222525,0.145476873319772,0.02862779275189609,0.9847924166021049,0.2813440561294556,-0.1866924911737442,-0.941271185874939
2020-07-29 16:06:10.338 +0200,79003.65672712501,0.3010711669921875,-0.1746063232421875,-0.8950653076171875,79003.65296012501,0.03614530292508066,0.2890616028333005,0.1838089480657661,-0.3170974552631378,-0.02999056316912174,0.2322738021612167,0.02565032243728638,-0.0007088929414749146,0.03760546445846558,XArbitraryZVertical,0.08821159151447026,0.1450381225078503,0.03102381955099115,0.9849975447881076,0.2802510559558868,-0.1827756762504578,-0.942365288734436
2020-07-29 16:06:10.358 +0200,79003.676762125,0.309173583984375,-0.1644134521484375,-0.8849029541015625,79003.672995125,0.04354129700053871,0.287335837045651,0.1770851132957481,-0.4349177181720734,-0.0305535551160574,0.3117047548294067,0.03145071864128113,0.003733456134796143,0.05449408292770386,XArbitraryZVertical,0.08439061137536628,0.1444846668703949,0.03411770726293056,0.9853113407595708,0.2789663374423981,-0.1761610209941864,-0.9440048336982727
2020-07-29 16:06:10.378 +0200,79003.696796125,0.318267822265625,-0.160797119140625,-0.859588623046875,79003.69303012501,0.0534979197315403,0.2856403210620816,0.1692568734414573,-0.626107394695282,-0.0376463495194912,0.4136806428432465,0.04208683967590332,0.00237603485584259,0.07129228115081787,XArbitraryZVertical,0.07984367315544816,0.1440127283165198,0.03840563681615283,0.9856014941620062,0.2777454257011414,-0.1684498935937881,-0.9457706212997437
2020-07-29 16:06:10.398 +0200,79003.716831125,0.3119659423828125,-0.1450347900390625,-0.8284149169921875,79003.71306412501,0.06689871809016837,0.2828519862045336,0.1583613613110531,-0.8909640908241272,-0.05542534962296486,0.5195156335830688,0.04983767867088318,-0.004981860518455505,0.1049126982688904,XArbitraryZVertical,0.0735652459116444,0.1430536559113118,0.04414850971346085,0.9859891813621346,0.2756031155586243,-0.1577002853155136,-0.9482476115226746
2020-07-29 16:06:10.418 +0200,79003.73686612501,0.3024749755859375,-0.127227783203125,-0.8186187744140625,79003.73309912501,0.08367085955545481,0.2794980654645261,0.1424412081425307,-1.1490238904953,-0.04379718750715256,0.6062139272689819,0.04097762703895569,0.009159237146377563,0.132368266582489,XArbitraryZVertical,0.06459402790450196,0.1417670416193408,0.05121408581141212,0.9864617911103262,0.2730793058872223,-0.1419600248336792,-0.9514594078063965
2020-07-29 16:06:10.438 +0200,79003.75690012501,0.28753662109375,-0.02581787109375,-0.8371734619140625,79003.753134125,0.1023469762222559,0.2761617047976306,0.1229697295695827,-1.176692962646484,-0.02572098188102245,0.6217100620269775,0.03635603189468384,0.01631847769021988,0.1201210021972656,XArbitraryZVertical,0.05375434712202889,0.1403156834090216,0.05901509169275593,0.9868835551507528,0.2706058323383331,-0.1226600483059883,-0.9548439383506775
2020-07-29 16:06:10.458 +0200,79003.776935125,0.246734619140625,0.011322021484375,-0.8502960205078125,79003.773168125,0.1202163224287017,0.2750371847235644,0.1058494862590761,-0.9468606114387512,0.1263995766639709,0.6143136620521545,0.004323601722717285,0.1132835000753403,0.1156603097915649,XArbitraryZVertical,0.04408251865473817,0.1397941970449109,0.06666026235933636,0.9869502200760134,0.2700627148151398,-0.1056519374251366,-0.9570286273956299
2020-07-29 16:06:10.478 +0200,79003.79697012501,0.23992919921875,-0.003021240234375,-0.8638153076171875,79003.79320312501,0.1364464483067931,0.2772689694444485,0.09313580519443866,-0.7267459630966187,0.2435957044363022,0.6004881262779236,-0.02452459931373596,0.1040253937244415,0.107542097568512,XArbitraryZVertical,0.03658689222426403,0.140862845872938,0.07386103309222775,0.986591930927982,0.2725436091423035,-0.09300121665000916,-0.957638144493103
2020-07-29 16:06:10.498 +0200,79003.817004125,0.2451019287109375,-0.0565032958984375,-0.8929901123046875,79003.813238125,0.1518454729291298,0.281877058861959,0.08315306630543366,-0.6828080415725708,0.3360790610313416,0.5996900796890259,-0.03208610415458679,0.04954084008932114,0.08785861730575562,XArbitraryZVertical,0.03038827885244225,0.1430681008336914,0.08085469501783471,0.9859363598308187,0.2771980166435242,-0.08305727690458298,-0.9572161436080933
2020-07-29 16:06:10.518 +0200,79003.83703912501,0.25091552734375,-0.0263519287109375,-0.9188995361328125,79003.83327312501,0.1673030304590994,0.287909377737008,0.07283265561302586,-0.7384649515151978,0.3920914530754089,0.5823729634284973,-0.02838444709777832,0.0312797799706459,0.05354583263397217,XArbitraryZVertical,0.02392715120395249,0.1458721832197789,0.08783971284538439,0.9851055735031482,0.2831954956054688,-0.07276827841997147,-0.9562975764274597
2020-07-29 16:06:10.538 +0200,79003.857074125,0.2696075439453125,0.008056640625,-0.9464111328125,79003.853307125,0.1825430976781803,0.2950257197047592,0.06183335212431026,-0.7321343421936035,0.431910514831543,0.5487027168273926,-0.01911246776580811,0.04630099982023239,0.02029514312744141,XArbitraryZVertical,0.01705883991866023,0.149083580935822,0.09463638020309428,0.9841377556999139,0.2902087867259979,-0.06179395690560341,-0.9549661874771118
2020-07-29 16:06:10.558 +0200,79003.87710912501,0.284637451171875,0.01904296875,-0.9390106201171875,79003.87334212501,0.1968759462720005,0.3032313033555357,0.05192882620795871,-0.6396740674972534,0.4628002345561981,0.5309531092643738,-0.009683579206466675,0.07957808673381805,0.01613050699234009,XArbitraryZVertical,0.0107008133334958,0.1527758111770557,0.1010210285275757,0.9830258209820071,0.2982031106948853,-0.05190549045801163,-0.9530900716781616
2020-07-29 16:06:10.578 +0200,79003.89714312501,0.29034423828125,-0.0182647705078125,-0.93572998046875,79003.893377125,0.2108992054201402,0.3119109376602892,0.04298440869932468,-0.651146411895752,0.4713684320449829,0.5354866981506348,-0.009369969367980957,0.04034537822008133,0.01379680633544922,XArbitraryZVertical,0.004767061801763214,0.156660119565559,0.1072723191740883,0.9817981030946247,0.3065944612026215,-0.042971171438694,-0.9508697390556335
2020-07-29 16:06:10.598 +0200,79003.917178125,0.2951507568359375,-0.0247802734375,-0.944549560546875,79003.913411125,0.2258737709317981,0.3209240357281629,0.03270849369409329,-0.7911421060562134,0.4797986745834351,0.5648640990257263,-0.01744073629379272,0.00681498646736145,0.01366651058197021,XArbitraryZVertical,-0.001963080122347957,0.1605545343814912,0.1138305539799463,0.9804391853858926,0.3152748346328735,-0.03270266205072403,-0.9484367966651917
2020-07-29 16:06:10.618 +0200,79003.937213125,0.290740966796875,0.031463623046875,-0.94598388671875,79003.93344612501,0.2421013656932629,0.3287479575131584,0.02044483037618488,-0.8378192186355591,0.4941994249820709,0.589863657951355,-0.01961487531661987,0.02947865426540375,0.000348210334777832,XArbitraryZVertical,-0.00974807250331039,0.1636466140041756,0.1207818546478979,0.9790487797937242,0.322790801525116,-0.02044340595602989,-0.9462495446205139
2020-07-29 16:06:10.651 +0200,79003.957247125,0.2988739013671875,0.056243896484375,-0.957061767578125,79003.95348112501,0.2590383063758945,0.3389285315842405,0.00768685695420896,-0.7700058221817017,0.5899576544761658,0.6290156245231628,-0.03050315380096436,0.04457704722881317,-0.004067540168762207,XArbitraryZVertical,-0.01802614850442114,0.1677297418613366,0.127949031558076,0.9773284294780493,0.3324669599533081,-0.007686781231313944,-0.9430835843086243
2020-07-29 16:06:10.663 +0200,79003.97728212501,0.331817626953125,0.0592041015625,-0.9698944091796875,79003.97351512501,0.2759992873884002,0.350415157227115,-0.001654122152369157,-0.6399603486061096,0.6329700946807861,0.6568588614463806,-0.01726949214935303,0.0668068528175354,-0.01898175477981567,XArbitraryZVertical,-0.02478544200046651,0.1725432953027377,0.135313190428401,0.9753485321349682,0.3432872891426086,0.001654121442697942,-0.9392290115356445
2020-07-29 16:06:10.678 +0200,79003.997317125,0.365203857421875,0.056976318359375,-0.9846038818359375,79003.993550125,0.2924503171142958,0.3630350105985288,-0.008226640769500256,-0.537946343421936,0.6317471861839294,0.6523157954216003,0.009567171335220337,0.04155105352401733,-0.04828882217407227,XArbitraryZVertical,-0.03030527615306598,0.1780048560199365,0.1425749947957862,0.9731742835799673,0.3551010489463806,0.008226548321545124,-0.9347917437553406
2020-07-29 16:06:10.698 +0200,79004.017351125,0.3797149658203125,0.048828125,-0.954864501953125,79004.01358512501,0.3079454416708636,0.3758591731924956,-0.01228848121780565,-0.4080320298671722,0.6394575238227844,0.6484131813049316,0.01612085103988647,0.04970455169677734,-0.03419733047485352,XArbitraryZVertical,-0.03461654869213725,0.1836859158305873,0.1495276191631737,0.9709287872673067,0.3670441508293152,0.0122881717979908,-0.9301223754882812
2020-07-29 16:06:10.719 +0200,79004.03738612501,0.3988494873046875,0.0065765380859375,-0.9689483642578125,79004.03361912501,0.3228107688263274,0.3888694114162381,-0.01455038208168538,-0.3783661425113678,0.6332707405090332,0.6437934637069702,0.01984614133834839,0.007627129554748535,-0.03773891925811768,XArbitraryZVertical,-0.03809465916649699,0.1895484653615815,0.1562857740697765,0.9686046226469611,0.379102349281311,0.01454986911267042,-0.9252403378486633
2020-07-29 16:06:10.739 +0200,79004.05742112501,0.4200592041015625,-0.007537841796875,-0.9438018798828125,79004.053654125,0.3375064540548204,0.4018529473191089,-0.0169291695158208,-0.3921968638896942,0.6259358525276184,0.6269485950469971,0.02675902843475342,-0.002703875303268433,-0.04060506820678711,XArbitraryZVertical,-0.04169486106677094,0.1953421628818852,0.1629033347885624,0.9662118824908019,0.391068309545517,0.01692836172878742,-0.9202059507369995
2020-07-29 16:06:10.759 +0200,79004.077456125,0.4492340087890625,-0.007171630859375,-0.933807373046875,79004.073689125,0.3520111826505554,0.4141296269932054,-0.01865466926265783,-0.3405138254165649,0.5675926804542542,0.6304428577423096,0.03636425733566284,-0.0434950590133667,-0.0169714093208313,XArbitraryZVertical,-0.0449835337353376,0.200805069704552,0.1694625422921506,0.9638133707515538,0.4023232758045197,0.01865358650684357,-0.9153076410293579
2020-07-29 16:06:10.779 +0200,79004.097490125,0.4746246337890625,-0.0321502685546875,-0.94342041015625,79004.09372412501,0.3660962799840466,0.4251757152452493,-0.01940604471031239,-0.2212212681770325,0.5203269124031067,0.6517906785011292,0.0658993124961853,-0.02408626675605774,-0.02712613344192505,XArbitraryZVertical,-0.04773022724008796,0.205729081895652,0.1759084720669559,0.9614850894003465,0.4124031960964203,0.01940482668578625,-0.910794734954834
2020-07-29 16:06:10.799 +0200,79004.11752512501,0.4790496826171875,-0.0310211181640625,-0.935882568359375,79004.11375812501,0.3795968500189165,0.4343645087455401,-0.01814187503822155,-0.1880135089159012,0.4389646947383881,0.6385945081710815,0.05473685264587402,-0.06899590790271759,-0.01657217741012573,XArbitraryZVertical,-0.04934945133650649,0.2099296133417518,0.1823019693557866,0.9593018888922094,0.4207647442817688,0.0181408803910017,-0.9069883823394775
2020-07-29 16:06:10.819 +0200,79004.137560125,0.4747161865234375,-0.0973663330078125,-0.9195556640625,79004.133793125,0.392403409965685,0.4414834157625641,-0.01400181975720946,-0.113131545484066,0.3497847318649292,0.6322867274284363,0.06886798143386841,-0.06549198925495148,-0.02713292837142944,XArbitraryZVertical,-0.04938281339357445,0.2134156455292783,0.1887069235273634,0.957290356235319,0.4272392392158508,0.01400136202573776,-0.9040302038192749
2020-07-29 16:06:10.839 +0200,79004.157594125,0.4606170654296875,-0.138336181640625,-0.8826751708984375,79004.15382812501,0.4055471845618345,0.4472023522959077,-0.009942128999561289,-0.2076858878135681,0.2574521601200104,0.6733903288841248,0.04386788606643677,-0.1397945135831833,0.0120617151260376,XArbitraryZVertical,-0.0494034703745716,0.2162206039435292,0.1952912558254408,0.9553372572188848,0.432423323392868,0.009941965341567993,-0.9016159176826477
2020-07-29 16:06:10.859 +0200,79004.177629125,0.4521636962890625,-0.163787841796875,-0.9215850830078125,79004.17386212501,0.4197316038169392,0.4522542835846199,-0.006429245363611874,-0.2136862576007843,0.1814835965633392,0.6923868060112,0.02945405244827271,-0.1729584932327271,0.01635342836380005,XArbitraryZVertical,-0.04977211729552716,0.2186318649567764,0.2023190539261093,0.9533046852337781,0.4369852542877197,0.006429200991988182,-0.8994457125663757
2020-07-29 16:06:10.879 +0200,79004.19766412501,0.452850341796875,-0.1756134033203125,-0.9514007568359375,79004.19389712501,0.4342169390364393,0.4551835513119722,-0.002429032849877966,-0.2275466769933701,0.1288571357727051,0.7161335945129395,0.02544382214546204,-0.1514936089515686,-0.04434692859649658,XArbitraryZVertical,-0.04975808562517459,0.2200801802963352,0.2095843417587915,0.9514006489075355,0.4396258890628815,0.002429030369967222,-0.8981776833534241
2020-07-29 16:06:10.899 +0200,79004.21769812501,0.4620361328125,-0.1656036376953125,-0.9640960693359375,79004.213932125,0.4495245273803737,0.4569505151490394,0.0006173182312763648,-0.3457189798355103,0.02981897443532944,0.7170738577842712,0.02960205078125,-0.1861501485109329,-0.07089102268218994,XArbitraryZVertical,-0.05018639074326842,0.2208627242404098,0.2171508850362374,0.9494979861781938,0.441213458776474,-0.0006173182046040893,-0.8974019885063171
2020-07-29 16:06:10.919 +0200,79004.237733125,0.46551513671875,-0.188720703125,-0.9224700927734375,79004.233966125,0.465753652941872,0.4565571533596769,0.002460399537732954,-0.456770658493042,-0.03085928596556187,0.7004657983779907,0.03939291834831238,-0.1655534654855728,-0.04405182600021362,XArbitraryZVertical,-0.05105925536425118,0.220468810215555,0.2250613835810513,0.9476992288801742,0.4408591687679291,-0.002460397081449628,-0.897572934627533
2020-07-29 16:06:10.939 +0200,79004.25776812501,0.4500732421875,-0.1556854248046875,-0.852020263671875,79004.25400112501,0.4824156615374079,0.4549430966323151,0.002595098309500625,-0.5280046463012695,-0.06007070094347,0.6576861143112183,0.02846235036849976,-0.177583321928978,0.01398330926895142,XArbitraryZVertical,-0.05264246197250158,0.219288099433744,0.2330061158615041,0.9459648872685349,0.4394097030162811,-0.002595095429569483,-0.8982830047607422
2020-07-29 16:06:10.959 +0200,79004.27780312501,0.432342529296875,-0.1099700927734375,-0.829132080078125,79004.274036125,0.4978026541107954,0.4532961971212472,0.002752683956625675,-0.4034235775470734,-0.02569355256855488,0.5897610187530518,0.01116836071014404,-0.1490177512168884,0.05024063587188721,XArbitraryZVertical,-0.05405567797771127,0.218117958891164,0.2403387037849304,0.9443198047206716,0.4379295706748962,-0.002752680564299226,-0.8990050554275513
2020-07-29 16:06:10.979 +0200,79004.29783712501,0.4449920654296875,-0.1099853515625,-0.814788818359375,79004.294071125,0.5105447996717819,0.4526436904861372,0.005192028320704426,-0.2570941746234894,0.04243037477135658,0.5147417783737183,0.009089827537536621,-0.09492623805999756,0.0903666615486145,XArbitraryZVertical,-0.05421366247032627,0.217761155442162,0.2466324238111113,0.9427689765424621,0.4373386204242706,-0.005192005075514317,-0.899281919002533
2020-07-29 16:06:10.999 +0200,79004.317872125,0.45806884765625,-0.1141815185546875,-0.870361328125,79004.314105125,0.5208800973839912,0.4529291981850888,0.008644281012127202,-0.1977934390306473,0.05032877624034882,0.4310726225376129,0.02387949824333191,-0.1076567620038986,0.05091726779937744,XArbitraryZVertical,-0.05374847463408518,0.218044317688449,0.2518660948817656,0.9413454888381826,0.4375849068164825,-0.008644172921776772,-0.8991355299949646
2020-07-29 16:06:11.019 +0200,79004.33790712501,0.448394775390625,-0.1369476318359375,-0.8580780029296875,79004.33414012501,0.5300170911827635,0.4537482572754541,0.01191461339246126,-0.2853971719741821,0.07957294583320618,0.383577972650528,0.03106439113616943,-0.112172544002533,0.0304877758026123,XArbitraryZVertical,-0.05331083565504888,0.2185969893844297,0.2564943657606716,0.9399914629790174,0.438306450843811,-0.01191433146595955,-0.8987466096878052
2020-07-29 16:06:11.039 +0200,79004.35794075001,0.456146240234375,-0.12933349609375,-0.8579559326171875,79004.354175125,0.5400316711765082,0.4552456854201498,0.01194955912404051,-0.4224229454994202,0.07685386389493942,0.3853418529033661,0.01543956995010376,-0.1384751200675964,0.04374700784683228,XArbitraryZVertical,-0.05458387554367597,0.2190345765325707,0.2611609045070315,0.9385304770689051,0.4396516084671021,-0.01194927468895912,-0.8980889320373535
2020-07-29 16:06:11.059 +0200,79004.37797575,0.474945068359375,-0.1047821044921875,-0.8777923583984375,79004.37420875,0.5506077200451289,0.4569960348467409,0.009974993610128218,-0.4520539343357086,0.0571933388710022,0.3703667521476746,0.03834211826324463,-0.1161548942327499,0.03440797328948975,XArbitraryZVertical,-0.05689997029843898,0.2193027204399735,0.2658575334655996,0.9370104406572946,0.441232442855835,-0.009974827989935875,-0.8973374366760254
2020-07-29 16:06:11.079 +0200,79004.39801075001,0.50054931640625,-0.02801513671875,-0.8331756591796875,79004.39424375001,0.5607688789602885,0.4587273240630256,0.007888432368164869,-0.3893136084079742,0.07123832404613495,0.3350175619125366,0.05021649599075317,-0.04471911489963531,0.05616927146911621,XArbitraryZVertical,-0.05922422303988986,0.2195405471750881,0.2703376456758533,0.9355276697937877,0.4427935779094696,-0.007888350635766983,-0.8965888619422913
2020-07-29 16:06:11.099 +0200,79004.41804475001,0.512725830078125,-0.133392333984375,-0.81640625,79004.41427875,0.5699982386858004,0.4611340160276672,0.007668127906416239,-0.3235922455787659,0.125653088092804,0.3852869272232056,0.07301455736160278,-0.06176447868347168,0.07003659009933472,XArbitraryZVertical,-0.06067010050194722,0.2203589508507837,0.2745551955703692,0.9340130970332956,0.4449508786201477,-0.007668052799999714,-0.8955221176147461
2020-07-29 16:06:11.119 +0200,79004.43807975001,0.5707855224609375,-0.1194305419921875,-0.905242919921875,79004.43431275,0.5806664283398999,0.46285371392824,0.008025332681558993,-0.392771303653717,0.01562272943556309,0.4337632358074188,0.1018180847167969,-0.1547235250473022,0.05492788553237915,XArbitraryZVertical,-0.06191836197432624,0.2208835585602758,0.2795191452907275,0.9323334531012848,0.446489006280899,-0.008025246672332287,-0.8947531580924988
2020-07-29 16:06:11.151 +0200,79004.45811475,0.59515380859375,-0.1146240234375,-0.92498779296875,79004.45434775001,0.5920382382573917,0.463088082172667,0.007770614057825751,-0.4125441908836365,-0.04684970155358315,0.4559885859489441,0.1517224907875061,-0.08960331976413727,-0.02322113513946533,XArbitraryZVertical,-0.06332525036385482,0.2206009392386329,0.2847805359163221,0.9307122424793968,0.4466995894908905,-0.007770536001771688,-0.8946502804756165
2020-07-29 16:06:11.168 +0200,79004.47814975001,0.5816192626953125,-0.1654052734375,-0.8818206787109375,79004.47438275001,0.6049280971067326,0.4628840555881724,0.004781082716958424,-0.6271095275878906,-0.1039875596761703,0.5040020942687988,0.1588350534439087,-0.1348626017570496,-0.01246529817581177,XArbitraryZVertical,-0.06610520106983295,0.2196611296143599,0.2904536154919848,0.9289864645241175,0.4465254247188568,-0.004781064577400684,-0.8947581648826599
2020-07-29 16:06:11.180 +0200,79004.49818375001,0.5598602294921875,-0.1774139404296875,-0.7651824951171875,79004.49441775,0.6221973848086486,0.4629437031926952,-0.004536971760417533,-1.083783030509949,-0.1213527023792267,0.6102706789970398,0.1334375441074371,-0.1862799227237701,0.06371206045150757,XArbitraryZVertical,-0.07232542480122167,0.2177217380339205,0.2974446979007566,0.9267647563481743,0.4465793073177338,0.004536956083029509,-0.8947325348854065
2020-07-29 16:06:11.199 +0200,79004.51821875,0.552398681640625,-0.08953857421875,-0.664276123046875,79004.51445175,0.6454978538787413,0.4637516608362576,-0.01958884041030944,-1.511765480041504,-0.04601347073912621,0.7132622599601746,0.1226646900177002,-0.1664306968450546,0.1549983024597168,XArbitraryZVertical,-0.08192436016567475,0.2149043283627807,0.306536865121343,0.9236555865838229,0.4472208321094513,0.01958758756518364,-0.894209086894989
2020-07-29 16:06:11.220 +0200,79004.53825375001,0.5258941650390625,-0.08074951171875,-0.5619354248046875,79004.53448675001,0.6739697190261563,0.4654464025065845,-0.04184877611601404,-1.748940706253052,0.134147509932518,0.8411211371421814,0.1005055904388428,-0.1135335713624954,0.2846737504005432,XArbitraryZVertical,-0.09545266509382164,0.2108775402132358,0.3171051256795969,0.919708526197067,0.4484288096427917,0.04183656349778175,-0.8928388953208923
2020-07-29 16:06:11.240 +0200,79004.55828775,0.504608154296875,-0.09088134765625,-0.4573974609375,79004.55452175,0.7079486354428961,0.4720751170748717,-0.06735230287980101,-2.095628976821899,0.3696079850196838,1.033766508102417,0.07648429274559021,-0.151236891746521,0.3796212077140808,XArbitraryZVertical,-0.111720394683733,0.2078819992370612,0.3294405408897816,0.9142059937709172,0.4537043869495392,0.06730139255523682,-0.8886072635650635
2020-07-29 16:06:11.259 +0200,79004.57832275001,0.4976654052734375,-0.1114654541015625,-0.349884033203125,79004.57455575,0.750773969917463,0.4860053495052449,-0.09953821398924607,-2.812115907669067,0.7052866220474243,1.264566659927368,0.05378854274749756,-0.202435314655304,0.464533805847168,XArbitraryZVertical,-0.1330337429908786,0.2058821496887709,0.3442833765445814,0.9063021340427315,0.4647854864597321,0.09937392920255661,-0.8798291087150574
2020-07-29 16:06:11.279 +0200,79004.59835775,0.5489501953125,-0.1403656005859375,-0.321624755859375,79004.59459075,0.8083616582739995,0.5095438139964127,-0.1471112741960118,-4.005899906158447,0.8755568861961365,1.507853388786316,0.04075559973716736,-0.2784985601902008,0.5284609198570251,XArbitraryZVertical,-0.1642315506212539,0.2031232587645859,0.3625135819323029,0.8946243992520405,0.4825103878974915,0.1465812176465988,-0.8635379076004028
2020-07-29 16:06:11.300 +0200,79004.61839275001,0.566375732421875,-0.0171966552734375,-0.2457275390625,79004.61462575001,0.8824667645487821,0.5411074458767348,-0.2065529566913756,-4.788844108581543,1.002231478691101,1.80284857749939,0.07416421175003052,-0.2832774817943573,0.5552579164505005,XArbitraryZVertical,-0.2033570249827225,0.1979554075478304,0.3844131280286381,0.878456665103285,0.5041367411613464,0.205087348818779,-0.8389191627502441
2020-07-29 16:06:11.320 +0200,79004.63842675001,0.5863494873046875,0.0613250732421875,-0.1973419189453125,79004.63466075,0.9722197000770445,0.5832347382150714,-0.2727912239956472,-5.372095108032227,1.071222066879272,2.041467428207397,0.05660808086395264,-0.2413266003131866,0.5854892730712891,XArbitraryZVertical,-0.2482162555443452,0.19099254488707,0.40874551492842,0.8572266668977389,0.5303623676300049,0.2694205045700073,-0.8038210868835449
2020-07-29 16:06:11.340 +0200,79004.65846175,0.645111083984375,0.15118408203125,-0.1327972412109375,79004.65469475,1.076151636507739,0.6368332619834915,-0.3387487420094935,-5.646698474884033,1.138545393943787,2.316559314727783,0.0619242787361145,-0.2145662605762482,0.6072407960891724,XArbitraryZVertical,-0.2956149071053101,0.1829345862909889,0.4344435428444014,0.8309065101678581,0.5608590245246887,0.3323071897029877,-0.7582935094833374
2020-07-29 16:06:11.360 +0200,79004.67849675,0.7581329345703125,0.2420196533203125,-0.0798492431640625,79004.67472975001,1.192660653074736,0.7018989560608477,-0.3961790175490628,-5.52076244354248,1.186010479927063,2.676626920700073,0.1192734241485596,-0.1835733652114868,0.6052893400192261,XArbitraryZVertical,-0.3422047870832117,0.1751033917284918,0.4610855564171084,0.7997717456300956,0.5956568717956543,0.3858961462974548,-0.7044693827629089
2020-07-29 16:06:11.380 +0200,79004.69853075,0.913970947265625,0.3234100341796875,-0.0343170166015625,79004.69476475001,1.318455811097959,0.7784080026598752,-0.4363660789394064,-5.171452045440674,1.35926365852356,3.101148843765259,0.2111539840698242,-0.1234467029571533,0.5956466197967529,XArbitraryZVertical,-0.3852115396492876,0.1701674752413426,0.4883384648526071,0.7643170705963155,0.6363510489463806,0.4226488769054413,-0.6453102231025696
2020-07-29 16:06:11.400 +0200,79004.71856575001,1.1514892578125,0.3599395751953125,-0.0183258056640625,79004.71479875001,1.45095549226485,0.8651345479185629,-0.4566757553398367,-4.943535804748535,1.546817898750305,3.54731273651123,0.3552024960517883,-0.08450698852539062,0.5769341588020325,XArbitraryZVertical,-0.4246774963337085,0.1691453806434985,0.5157496369722253,0.7245972584074621,0.6831790804862976,0.4409669637680054,-0.5820777416229248
2020-07-29 16:06:11.420 +0200,79004.73860075,1.4609375,0.4270477294921875,-0.0374298095703125,79004.73483375,1.586528769785986,0.9569788649823521,-0.4553269954259383,-4.539298534393311,1.659574270248413,4.02552604675293,0.5841637849807739,-0.04475146532058716,0.5043545961380005,XArbitraryZVertical,-0.460216061009636,0.1718920316539732,0.5433835438523906,0.6807265904832078,0.7341706156730652,0.4397560060024261,-0.5173085927963257
2020-07-29 16:06:11.440 +0200,79004.75863475,1.761810302734375,0.5337371826171875,-0.1252899169921875,79004.75486875001,1.716893374727629,1.046609277908538,-0.4299043431843149,-3.999281167984009,1.657895684242249,4.426637172698975,0.8528805375099182,0.07813626527786255,0.3925005793571472,XArbitraryZVertical,-0.4902756833560523,0.1792953768132639,0.5707848212594443,0.6337883277352092,0.7869544625282288,0.4167838394641876,-0.4549658298492432
2020-07-29 16:06:11.460 +0200,79004.77866975,1.910491943359375,0.62689208984375,-0.2911834716796875,79004.77490375,1.834636520288326,1.124259933263321,-0.3836730745795546,-3.35809063911438,1.391641855239868,4.635493755340576,1.047808170318604,0.2076844573020935,0.2170968055725098,XArbitraryZVertical,-0.5134937932548669,0.190001210913681,0.5976945530523152,0.5856491350554186,0.836372971534729,0.374329000711441,-0.4004473388195038
2020-07-29 16:06:11.480 +0200,79004.79870475001,1.859237670898438,0.7466888427734375,-0.4572906494140625,79004.79493775,1.930902131685148,1.182142928713782,-0.3234374746858882,-2.411832571029663,1.037429213523865,4.445959568023682,1.054551362991333,0.3821538686752319,-0.008380413055419922,XArbitraryZVertical,-0.5283318092347292,0.2030235969631974,0.6228294935155807,0.540120646322681,0.8774357438087463,0.3178276717662811,-0.3592938482761383
2020-07-29 16:06:11.500 +0200,79004.81873975,1.64703369140625,0.7751922607421875,-0.48779296875,79004.81497275,1.999183674955089,1.21979835380449,-0.2583618909469912,-1.363828063011169,0.7821363806724548,3.932427883148193,0.8829022645950317,0.5275957584381104,-0.1453859806060791,XArbitraryZVertical,-0.5349305844380633,0.218260613819683,0.643939280803401,0.5015513568441395,0.907863438129425,0.2554971575737,-0.3324231505393982
2020-07-29 16:06:11.520 +0200,79004.83877375,1.401351928710938,0.66925048828125,-0.446380615234375,79004.83500775001,2.04271472330097,1.24423142746183,-0.1963418023128264,-0.5954898595809937,0.6745479106903076,3.285130739212036,0.6111868023872375,0.5386765599250793,-0.1391543745994568,XArbitraryZVertical,-0.5361855363588407,0.2349278477220401,0.659875658466781,0.4710394390842298,0.928952157497406,0.1950827389955521,-0.3146279454231262
2020-07-29 16:06:11.540 +0200,79004.85880875001,1.239837646484375,0.5545806884765625,-0.3394775390625,79004.85504175001,2.065343008853379,1.26063425103303,-0.1432445771680387,0.1546670198440552,0.6038042306900024,2.449054956436157,0.3908793330192566,0.4771867692470551,-0.1089835166931152,XArbitraryZVertical,-0.5344332933391286,0.251669540344516,0.6702736816634606,0.4491955791661699,0.9425308108329773,0.1427552103996277,-0.3020870089530945
2020-07-29 16:06:11.560 +0200,79004.87884375,1.169784545898438,0.3772430419921875,-0.2273101806640625,79004.87507675,2.070369544357083,1.27354855715468,-0.1006235112124245,0.6596327424049377,0.6334142684936523,1.779190421104431,0.2653723955154419,0.3628718256950378,0.0324857234954834,XArbitraryZVertical,-0.5313239358487235,0.2683108966903419,0.6752842236303886,0.435540348696201,0.9513098001480103,0.100453794002533,-0.2914082705974579
2020-07-29 16:06:11.580 +0200,79004.89887775001,1.157928466796875,0.299530029296875,-0.1298370361328125,79004.89511175001,2.062453566492668,1.285068095875797,-0.06696265458521218,1.046424627304077,0.5485902428627014,1.228809595108032,0.2325454950332642,0.2583525776863098,0.12367182970047,XArbitraryZVertical,-0.5275745279967301,0.2846978142988064,0.6761507520876876,0.4282901096834775,0.9573063254356384,0.06691262125968933,-0.2812245488166809
2020-07-29 16:06:11.600 +0200,79004.91891275,1.156936645507812,0.2635955810546875,-0.082427978515625,79004.91514575001,2.045913382295042,1.294454903016754,-0.04096423880076557,1.182791352272034,0.4806114733219147,0.8231998682022095,0.2116516828536987,0.2444604784250259,0.1960170269012451,XArbitraryZVertical,-0.5231342043505118,0.3000436565564591,0.6744330835260128,0.4259628946272391,0.9612529873847961,0.04095278307795525,-0.2726088166236877
2020-07-29 16:06:11.620 +0200,79004.93894775001,1.156524658203125,0.1882171630859375,-0.070831298828125,79004.93518075001,2.030461296893577,1.302223573895455,-0.02256309124621746,0.6750255227088928,0.3443327248096466,0.5642356872558594,0.2174112200737,0.2095749527215958,0.2050045728683472,XArbitraryZVertical,-0.5196193191498213,0.3120123801291813,0.6721333398179767,0.4253007988688557,0.9639051556587219,0.02256117761135101,-0.2652880847454071
2020-07-29 16:06:11.663 +0200,79004.95898275,1.159500122070312,0.160858154296875,-0.0726470947265625,79004.95521575,2.028414904372672,1.307652025307912,-0.01155926019501305,-0.2103411853313446,0.1810718774795532,0.460598349571228,0.2149432897567749,0.1536873430013657,0.2079857587814331,XArbitraryZVertical,-0.51883815508956,0.3174219631722878,0.6720853492791041,0.4223169599758184,0.9655123949050903,0.01155900303274393,-0.2601005434989929
2020-07-29 16:06:11.665 +0200,79004.97901675,1.131698608398438,0.18353271484375,-0.0699310302734375,79004.97525075001,2.044525620500913,1.309348671962198,-0.00545637455977895,-1.192746877670288,-0.007551832124590874,0.5778725147247314,0.2100095152854919,0.1586484611034393,0.2064918875694275,XArbitraryZVertical,-0.5206956628304128,0.3156553561333531,0.6760005004719076,0.4150435040896523,0.9660024642944336,0.005456347484141588,-0.2584754526615143
2020-07-29 16:06:11.680 +0200,79004.99905175001,1.069854736328125,0.22918701171875,-0.085235595703125,79004.99528475001,2.080593358208535,1.307579282519931,-0.001588174065967336,-2.174782037734985,-0.184013158082962,0.7198914289474487,0.1565503478050232,0.2064128369092941,0.2018452286720276,XArbitraryZVertical,-0.5249233968424303,0.3071832030186588,0.6844378580586427,0.4020432342591828,0.9655567407608032,0.001588173443451524,-0.2601878046989441
2020-07-29 16:06:11.700 +0200,79005.01908675001,1.021087646484375,0.293121337890625,-0.086090087890625,79005.01531975,2.136014905242141,1.302654312445002,0.0001514810961107524,-3.102000713348389,-0.3173163235187531,0.8959282040596008,0.1032450795173645,0.2559766173362732,0.1956625580787659,XArbitraryZVertical,-0.5311860793116612,0.2921834981334984,0.6968798742695308,0.3831822158421349,0.9642648100852966,-0.0001514811010565609,-0.2649402916431427
2020-07-29 16:06:11.720 +0200,79005.03912075001,0.97845458984375,0.36090087890625,-0.08349609375,79005.03535475,2.208523329313371,1.294762437198397,2.181149733566394e-05,-3.824369668960571,-0.4653734266757965,1.033775806427002,0.06242144107818604,0.3303282856941223,0.2052444219589233,XArbitraryZVertical,-0.538643798192604,0.2712783373132753,0.7124242107568574,0.3587794944555797,0.9621439576148987,-2.181149648095015e-05,-0.2725418508052826
2020-07-29 16:06:11.741 +0200,79005.05915575,0.9433441162109375,0.4075164794921875,-0.0725555419921875,79005.05538875,2.292493215010943,1.284048695313761,-0.00115462486029137,-4.21696662902832,-0.5984289646148682,1.187716245651245,0.02259957790374756,0.3855466842651367,0.2211891412734985,XArbitraryZVertical,-0.5458478139005724,0.246238053011724,0.7296435284068113,0.3302079985286895,0.9591681957244873,0.001154624624177814,-0.2828339636325836
2020-07-29 16:06:11.764 +0200,79005.07919075001,0.92755126953125,0.4403839111328125,-0.057830810546875,79005.07542375001,2.382230578027566,1.271134277952903,-0.001892404822489227,-4.347187995910645,-0.6990373730659485,1.325583100318909,0.003734827041625977,0.4222568273544312,0.2458980679512024,XArbitraryZVertical,-0.5516390832061883,0.2193078321870622,0.7472157060024684,0.2987758908380521,0.9554345607757568,0.001892403699457645,-0.2951968014240265
2020-07-29 16:06:11.780 +0200,79005.09922575,0.93389892578125,0.4515380859375,-0.0128936767578125,79005.09545875,2.473835281013335,1.256415103397932,-0.002119499174551294,-4.389681816101074,-0.7812579274177551,1.409496426582336,-0.001263916492462158,0.4506149888038635,0.2812519669532776,XArbitraryZVertical,-0.555522640965002,0.1917834833430147,0.7641988379303305,0.2657325786800661,0.9509857296943665,0.002119497628882527,-0.3092273771762848
2020-07-29 16:06:11.800 +0200,79005.11925975,0.93804931640625,0.4456787109375,0.0674285888671875,79005.11549375001,2.56760077408009,1.239933671412049,-0.003398967544834586,-4.535853862762451,-0.8699702024459839,1.421913266181946,0.01697427034378052,0.4448655843734741,0.366108775138855,XArbitraryZVertical,-0.5576348466382666,0.1631404590176203,0.7803274991965223,0.2313386038924214,0.9457569718360901,0.003398960921913385,-0.3248571455478668
2020-07-29 16:06:11.821 +0200,79005.13929475,0.9543914794921875,0.4539337158203125,0.103973388671875,79005.13552775001,2.663847171017081,1.22288120643056,-0.007883313307569063,-4.665338039398193,-0.887065589427948,1.335618615150452,0.02244335412979126,0.4427496194839478,0.4521893262863159,XArbitraryZVertical,-0.5585070745494214,0.1326870715350642,0.7950301127706043,0.1959363421871437,0.940056324005127,0.007883232086896896,-0.3409279882907867
2020-07-29 16:06:11.841 +0200,79005.15932975001,1.012588500976562,0.44171142578125,0.171661376953125,79005.15556275001,2.762629157843369,1.206090649158637,-0.01803418024136629,-4.972934246063232,-0.914262592792511,1.14820122718811,0.07637166976928711,0.4350154399871826,0.4988494515419006,XArbitraryZVertical,-0.5583784939283619,0.0995253664752602,0.8078750576312149,0.1601434573574607,0.9340767860412598,0.01803320273756981,-0.3566163182258606
2020-07-29 16:06:11.861 +0200,79005.17936375001,0.9944915771484375,0.4206390380859375,0.2139434814453125,79005.17559775,2.866686649244308,1.190646568358353,-0.03646099238317299,-5.335961818695068,-0.8852123022079468,0.9086254835128784,0.1004348993301392,0.3924961686134338,0.5898464322090149,XArbitraryZVertical,-0.5574631246609266,0.06187409047122683,0.8186210260317685,0.1235559547476449,0.9279918670654297,0.03645291551947594,-0.3708129227161407
2020-07-29 16:06:11.881 +0200,79005.19939875,1.005477905273438,0.449432373046875,0.196197509765625,79005.19563175,2.973414031215494,1.179332986954283,-0.06299337313876824,-5.472935676574707,-0.7607201337814331,0.6524254083633423,0.0948030948638916,0.3668458461761475,0.6081490516662598,XArbitraryZVertical,-0.5560424548644214,0.02060154952299875,0.8263079375126732,0.0872219081446266,0.9225183725357056,0.06295172125101089,-0.3807847201824188
2020-07-29 16:06:11.901 +0200,79005.21943375001,1.033248901367188,0.484375,0.131591796875,79005.21566675001,3.077858885209731,1.173913976932323,-0.09486221586825405,-5.294700622558594,-0.5919399261474609,0.4023465216159821,0.1211692094802856,0.3810381591320038,0.5643126368522644,XArbitraryZVertical,-0.5541839787952652,-0.02183170558862496,0.8304345373674232,0.05274457803028604,0.9181240200996399,0.09472000598907471,-0.3848069906234741
2020-07-29 16:06:11.921 +0200,79005.23946775,1.073776245117188,0.49383544921875,0.0651702880859375,79005.23570175,-3.108736352514426,1.174812922537291,-0.1290120785810608,-4.819829940795898,-0.3920888304710388,0.1535736620426178,0.1624426245689392,0.3661094009876251,0.4929651021957397,XArbitraryZVertical,-0.5520953871317812,-0.06273432480399188,0.8311244053741237,0.02207448029352976,0.9149502515792847,0.1286544948816299,-0.3825101852416992
2020-07-29 16:06:11.941 +0200,79005.25950275001,1.088882446289062,0.4735870361328125,0.016510009765625,79005.25573675,-3.024368185597912,1.181276585497277,-0.162756318246863,-4.131119728088379,-0.1836552172899246,-0.06779555231332779,0.1978470087051392,0.3287224173545837,0.4336901307106018,XArbitraryZVertical,-0.5501401503247559,-0.0999149893693756,0.8290668631290216,-0.003302524892225711,0.9128658771514893,0.1620387136936188,-0.3747256100177765
2020-07-29 16:06:11.961 +0200,79005.27953775,1.049789428710938,0.467071533203125,-0.041839599609375,79005.27577075,-2.956751927551012,1.191944308996465,-0.1934298117458674,-3.139326810836792,0.05721571296453476,-0.2704588770866394,0.183923602104187,0.2828727066516876,0.3621056079864502,XArbitraryZVertical,-0.5489306487604171,-0.1311366782220647,0.8252224864574882,-0.02205014803590816,0.9117630124092102,0.1922258734703064,-0.3629566431045532
2020-07-29 16:06:11.981 +0200,79005.29957275001,0.995941162109375,0.455078125,-0.0894775390625,79005.29580575001,-2.910654619531548,1.204752821855874,-0.2187626318960573,-1.963920712471008,0.2864134907722473,-0.4341443777084351,0.1305184364318848,0.250323086977005,0.2971173524856567,XArbitraryZVertical,-0.5491022271736186,-0.1542402578816495,0.8207390301977704,-0.03292655320265175,0.9114964604377747,0.2170219123363495,-0.349393367767334
2020-07-29 16:06:12.001 +0200,79005.31960675001,0.986083984375,0.4333038330078125,-0.165924072265625,79005.31584075,-2.8871121813181,1.217515788728146,-0.2380639311289861,-0.846570611000061,0.4444356262683868,-0.5583218932151794,0.09517621994018555,0.2105307579040527,0.2329515814781189,XArbitraryZVertical,-0.5508502420930872,-0.1686835062431373,0.8165864504063456,-0.03600590804107018,0.9117808938026428,0.2358216047286987,-0.3362197577953339
2020-07-29 16:06:12.021 +0200,79005.33964175,1.02105712890625,0.44891357421875,-0.2451324462890625,79005.33587475,-2.885803060421628,1.227364687356599,-0.251708074122524,0.2295822650194168,0.4926641285419464,-0.6695209741592407,0.1111561059951782,0.200594037771225,0.129751443862915,XArbitraryZVertical,-0.5535721839800289,-0.1746510148457764,0.8136624359594369,-0.03175319280848837,0.9119332432746887,0.2490585744380951,-0.3261097073554993
2020-07-29 16:06:12.041 +0200,79005.359675625,1.03460693359375,0.399200439453125,-0.2549591064453125,79005.355908625,-2.903698869089963,1.232198857854704,-0.2603200157705055,1.066076397895813,0.4245545864105225,-0.7088867425918579,0.1438615918159485,0.1838458776473999,0.08232128620147705,XArbitraryZVertical,-0.5563494330022491,-0.1731726226637174,0.8124172215182449,-0.02155753355315815,0.9114420413970947,0.2573897838592529,-0.3209730982780457
2020-07-29 16:06:12.061 +0200,79005.37970962501,1.017623901367188,0.2906341552734375,-0.2164459228515625,79005.37594362501,-2.934976464828484,1.23139513585819,-0.2647125072633568,1.563139200210571,0.3110080659389496,-0.6875108480453491,0.1396230459213257,0.09171053767204285,0.1012965440750122,XArbitraryZVertical,-0.558314443961631,-0.1661985287654656,0.8127758761827526,-0.007641311739353396,0.9101089835166931,0.2616317868232727,-0.3213260471820831
2020-07-29 16:06:12.081 +0200,79005.399744625,0.9909210205078125,0.19384765625,-0.1961517333984375,79005.39597862501,-2.971315587440729,1.226607678664511,-0.2659091236650414,1.632504820823669,0.1577289998531342,-0.5875743627548218,0.1192202568054199,-0.01869940757751465,0.1391311883926392,XArbitraryZVertical,-0.5592080715589194,-0.1565232767120489,0.8140862192705376,0.007099024045358115,0.9082648158073425,0.2627865374088287,-0.325573593378067
2020-07-29 16:06:12.101 +0200,79005.41977962501,0.974365234375,0.1051788330078125,-0.189788818359375,79005.41601262501,-3.004439937072751,1.219464733539587,-0.2650994478414755,1.335167169570923,-0.003916350658982992,-0.396532267332077,0.09702479839324951,-0.1059499382972717,0.1526792049407959,XArbitraryZVertical,-0.5588665427605342,-0.1469870031760388,0.8158860115018211,0.01982223124597049,0.9061155915260315,0.2620052397251129,-0.3321260213851929
2020-07-29 16:06:12.121 +0200,79005.439814625,0.938018798828125,0.048370361328125,-0.187042236328125,79005.436047625,-3.026175559793241,1.211727667314267,-0.2632630111940642,0.6599416732788086,-0.2002171576023102,-0.1780947297811508,0.08235055208206177,-0.1888155043125153,0.1613357067108154,XArbitraryZVertical,-0.5573833924983149,-0.1402717200234816,0.8178537159432002,0.02761925140143978,0.9039677381515503,0.2602325081825256,-0.3392952084541321
2020-07-29 16:06:12.167 +0200,79005.459848625,0.8502044677734375,0.0529937744140625,-0.195953369140625,79005.45608262501,-3.029824096519674,1.204846373602207,-0.2640636634259498,-0.3879805505275726,-0.3990908265113831,-0.02604334615170956,0.02224737405776978,-0.1989230811595917,0.1792552471160889,XArbitraryZVertical,-0.5547732528024298,-0.1396788240899249,0.8196850707542371,0.02885882501410736,0.9014167785644531,0.2610054910182953,-0.3454329371452332
2020-07-29 16:06:12.168 +0200,79005.47988362501,0.77227783203125,0.01336669921875,-0.23419189453125,79005.47611662501,-3.012538413685906,1.199499498026165,-0.2689611695754768,-1.282184839248657,-0.5741090178489685,0.1812890321016312,-0.0750465989112854,-0.2256418168544769,0.1452721357345581,XArbitraryZVertical,-0.5510389552885333,-0.1465135144825802,0.8212010756506803,0.02277151805116001,0.8983548879623413,0.2657301127910614,-0.3497797250747681
2020-07-29 16:06:12.181 +0200,79005.49991862501,0.7900390625,-0.014007568359375,-0.270538330078125,79005.496151625,-2.979476128795068,1.195692793205695,-0.2754014719268479,-1.777233242988586,-0.6762553453445435,0.3922024369239807,-0.1024585962295532,-0.2697634398937225,0.1351542472839355,XArbitraryZVertical,-0.5465185774151964,-0.1582280373696119,0.8222934489357101,0.01071651093890647,0.8954060077667236,0.2719332873821259,-0.3525626659393311
2020-07-29 16:06:12.201 +0200,79005.51995262501,0.8622589111328125,0.1491546630859375,-0.273651123046875,79005.516186625,-2.943416554425136,1.191503115862538,-0.2779323713490022,-1.616512060165405,-0.7291670441627502,0.6306824684143066,-0.05443942546844482,-0.2140176892280579,0.108379065990448,XArbitraryZVertical,-0.5416531444018778,-0.1690690849170996,0.8234156967073597,-0.003748084213132663,0.8932787775993347,0.2743679583072662,-0.3560550212860107
2020-07-29 16:06:12.221 +0200,79005.539987625,0.9952850341796875,0.2360076904296875,-0.37127685546875,79005.53622162501,-2.907050502382946,1.187199823623585,-0.2763874670050122,-1.534961462020874,-0.6986594796180725,0.8094062805175781,0.05283623933792114,-0.06257423758506775,0.06572544574737549,XArbitraryZVertical,-0.5368505385423277,-0.1782259676370067,0.8244060401535355,-0.01953906962612384,0.8921303749084473,0.2728820145130157,-0.3600540161132812
2020-07-29 16:06:12.244 +0200,79005.56002262501,1.125946044921875,0.182525634765625,-0.54345703125,79005.55625562501,-2.871602176726817,1.182187273006338,-0.2709413380205781,-1.438608407974243,-0.7825554013252258,0.9971213936805725,0.1972911953926086,-0.0301310122013092,-0.07764267921447754,XArbitraryZVertical,-0.532047379664873,-0.1854348547255428,0.8253683008518987,-0.03614861272904402,0.8916764855384827,0.2676385641098022,-0.3650790154933929
2020-07-29 16:06:12.261 +0200,79005.580057625,1.135299682617188,0.06768798828125,-0.62060546875,79005.576290625,-2.833476443247692,1.174854304430544,-0.2620000061899791,-1.692414999008179,-0.946471095085144,1.212693929672241,0.2832256555557251,-0.1357915997505188,-0.2227320671081543,XArbitraryZVertical,-0.5262805537455073,-0.1917573096772518,0.8265727747088512,-0.05509411308363849,0.8911477327346802,0.2590128183364868,-0.3725158274173737
2020-07-29 16:06:12.282 +0200,79005.60009162501,1.045913696289062,0.0505523681640625,-0.5622100830078125,79005.59632562501,-2.785701121241424,1.167201505444319,-0.2536795265765107,-2.231654644012451,-1.015194416046143,1.330316543579102,0.2219185829162598,-0.1981492340564728,-0.1985385417938232,XArbitraryZVertical,-0.5192890084248613,-0.2006489218575262,0.8270475363340546,-0.07791901642510357,0.8902221322059631,0.250967413187027,-0.380157858133316
