loggingTime(txt),accelerometerTimestamp_sinceReboot(s),accelerometerAccelerationX(G),accelerometerAccelerationY(G),accelerometerAccelerationZ(G),motionTimestamp_sinceReboot(s),motionYaw(rad),motionRoll(rad),motionPitch(rad),motionRotationRateX(rad/s),motionRotationRateY(rad/s),motionRotationRateZ(rad/s),motionUserAccelerationX(G),motionUserAccelerationY(G),motionUserAccelerationZ(G),motionAttitudeReferenceFrame(txt),motionQuaternionX(R),motionQuaternionY(R),motionQuaternionZ(R),motionQuaternionW(R),motionGravityX(G),motionGravityY(G),motionGravityZ(G)
2020-07-29 15:50:11.077 +0200,78531.59153062501,0.0055389404296875,0.0335693359375,-1.003936767578125,78531.573979625,1.413270897028069,0.007926437488054021,-0.03575185550229083,-0.0723111480474472,-0.05960091948509216,-0.003597959410399199,-0.02828188613057137,-0.003119781613349915,0.01944172382354736,XArbitraryZVertical,0.01616753359889633,0.008592007345678561,-0.6491158248768818,-0.7604692348204862,0.007921289652585983,0.03574423864483833,-0.9993295669555664
2020-07-29 15:50:11.092 +0200,78531.611565625,-0.0008392333984375,0.0375823974609375,-1.004364013671875,78531.59401462501,1.413197816100892,0.0076863018957162,-0.03518197882846306,-0.02250750362873077,-0.01411386020481586,-0.002222208306193352,0.0004707677289843559,-0.004807181656360626,-0.005866289138793945,XArbitraryZVertical,0.01587324439890326,0.008497746705912457,-0.6490940872233562,-0.7604950352913744,0.007681469898670912,0.03517471998929977,-0.9993516802787781
2020-07-29 15:50:11.108 +0200,78531.631600625,0.00567626953125,0.03125,-1.002700805664062,78531.614049625,1.413072668965912,0.007400046461956536,-0.03514495932747754,-0.005386707372963428,-0.009221633896231651,-0.004945785272866488,-0.007978168316185474,0.003483917564153671,-0.004474401473999023,XArbitraryZVertical,0.01576680378436288,0.008593591949179392,-0.6490490295370499,-0.7605346043313541,0.007395409513264894,0.03513772413134575,-0.999355137348175
2020-07-29 15:50:11.128 +0200,78531.65163562501,0.0027313232421875,0.0372772216796875,-1.004684448242188,78531.63408462501,1.413076727836369,0.007236088046333419,-0.03473074408553462,0.008842828683555126,-0.01530962064862251,-0.001893422333523631,-0.002233694307506084,-0.002032626420259476,-0.001971900463104248,XArbitraryZVertical,0.01555608238841048,0.008521528327482094,-0.6490547831377815,-0.760534827955841,0.00723166111856699,0.03472376242280006,-0.999370813369751
2020-07-29 15:50:11.152 +0200,78531.671670625,-0.002349853515625,0.0365142822265625,-0.99652099609375,78531.654119625,1.413094749294886,0.006707182358191234,-0.0344708797405717,0.004065117798745632,-0.01558978483080864,-0.001711528399027884,-0.003060828894376755,0.004095397889614105,-0.005835294723510742,XArbitraryZVertical,0.01528555113260522,0.008638444305359205,-0.6490675099359368,-0.7605282352109892,0.006703147664666176,0.03446405380964279,-0.9993834495544434
2020-07-29 15:50:11.168 +0200,78531.69170562501,0.0001068115234375,0.0266265869140625,-0.9979248046875,78531.674154625,1.412962070586456,0.006497736111085529,-0.03462811922241914,0.0106720207259059,-0.001900071278214455,-0.005385853350162506,-0.009204236790537834,0.00317913293838501,0.002247929573059082,XArbitraryZVertical,0.01527794757162885,0.008768113729787766,-0.6490175845850198,-0.7605694112991336,0.006493795197457075,0.03462119773030281,-0.9993793964385986
2020-07-29 15:50:11.188 +0200,78531.711740625,0.0093841552734375,0.025787353515625,-1.001998901367188,78531.69418962501,1.412913345861788,0.006574360066902579,-0.03457505086164372,-0.007786348462104797,0.009259903803467751,0.002903006970882416,-0.006410309113562107,-0.007663898169994354,0.001913547515869141,XArbitraryZVertical,0.0152828458986559,0.008721378517243722,-0.648998831372949,-0.7605858816106984,0.006570383440703154,0.03456816077232361,-0.9993807673454285
2020-07-29 15:50:11.208 +0200,78531.731776125,0.0041961669921875,0.042633056640625,-1.002166748046875,78531.714224625,1.413163268619057,0.006665110014385119,-0.03481574550899737,-0.02166381478309631,0.005463568959385157,0.02099606581032276,0.003526289016008377,-0.008920922875404358,-0.003725707530975342,XArbitraryZVertical,0.01540272402752635,0.008766906837498412,-0.6490915132000102,-0.7605038781579714,0.006661021616309881,0.03480871394276619,-0.9993717670440674
2020-07-29 15:50:11.228 +0200,78531.75181112501,-0.0001068115234375,0.0486297607421875,-0.9996795654296875,78531.734260125,1.413667589243358,0.006562514023913383,-0.03538189470092979,-0.02187500335276127,-0.002687035594135523,0.02121121063828468,-0.004643813706934452,0.009310632944107056,-0.002554237842559814,XArbitraryZVertical,0.015582417262794,0.008993614861426084,-0.6492801199806071,-0.7603365314066719,0.00655835960060358,0.03537451103329659,-0.9993526339530945
2020-07-29 15:50:11.248 +0200,78531.771846125,-0.0011749267578125,0.0419464111328125,-1.009674072265625,78531.75429512501,1.414046951293381,0.006513295055832205,-0.03587197132863252,-0.008903810754418373,0.00674614729359746,0.01561199128627777,-0.006014780141413212,0.01257120817899704,0.0006944537162780762,XArbitraryZVertical,0.01575099156649599,0.009174433858989063,-0.6494212706485876,-0.7602103461872955,0.006509058643132448,0.03586427867412567,-0.9993354678153992
2020-07-29 15:50:11.268 +0200,78531.791881125,-0.00067138671875,0.0367279052734375,-0.999114990234375,78531.774330125,1.414275425114574,0.006544160154640097,-0.03564352872324349,0.02076913043856621,0.004725340288132429,0.007188336923718452,-0.007402960211038589,0.006263177841901779,-0.009277045726776123,XArbitraryZVertical,0.01567315158135556,0.009090303545658828,-0.6495094744614553,-0.7601376543621726,0.006539956666529179,0.03563598170876503,-0.9993434548377991
2020-07-29 15:50:11.289 +0200,78531.81191612501,-0.00091552734375,0.026397705078125,-0.9916534423828125,78531.79436512501,1.414306476262607,0.006636532687710443,-0.03484804163819085,0.02414934709668159,0.006437220145016909,-0.0004198572132736444,-0.006882853806018829,0.003514014184474945,5.757808685302734e-05,XArbitraryZVertical,0.01540070317431567,0.008797061899289952,-0.6495261145751173,-0.7601323708677439,0.006632454693317413,0.03484098985791206,-0.9993708729743958
2020-07-29 15:50:11.308 +0200,78531.831951125,-0.0006561279296875,0.0243377685546875,-1.00286865234375,78531.814400125,1.41435576674445,0.007001202093370191,-0.03436290678263038,0.0147854071110487,0.01777163334190845,0.001625298289582133,-0.00821509025990963,-0.00861671194434166,0.005595207214355469,XArbitraryZVertical,0.01533455983099366,0.008501266060482172,-0.6495454048493027,-0.7601205432425298,0.006997011601924896,0.03435614332556725,-0.9993851780891418
2020-07-29 15:50:11.329 +0200,78531.85198612501,0.0026397705078125,0.039398193359375,-1.00372314453125,78531.834435125,1.414424311721332,0.007338437922494433,-0.03460489858884291,-0.003847000654786825,0.01389140821993351,0.005328500177711248,-0.007094260305166245,-0.00911206379532814,-0.003753662109375,XArbitraryZVertical,0.01553575619928878,0.008452230757950558,-0.6495671627357926,-0.7600984799086432,0.007333978544920683,0.03459799289703369,-0.9993743896484375
2020-07-29 15:50:11.349 +0200,78531.872021125,-0.004669189453125,0.0443878173828125,-1.009506225585938,78531.85447012501,1.414530712344451,0.007540379503627054,-0.03482904206287463,0.01248962804675102,0.01572339609265327,0.006435423623770475,-0.004452967084944248,0.005821362137794495,-0.003350734710693359,XArbitraryZVertical,0.01568607036016361,0.008449127631778301,-0.6496044470776845,-0.7600635003915772,0.00753573514521122,0.0348220020532608,-0.9993650913238525
2020-07-29 15:50:11.368 +0200,78531.892056125,-0.0128326416015625,0.0264434814453125,-0.9961090087890625,78531.874505125,1.414452160586038,0.007746580619704944,-0.03460337229784977,0.03720362856984138,0.01227460242807865,-0.01609697379171848,-0.01432814728468657,0.01165663823485374,-0.01135551929473877,XArbitraryZVertical,0.01566761854289995,0.008296839107860627,-0.6495745755436568,-0.7600911242803777,0.007741865701973438,0.03459646552801132,-0.999371349811554
2020-07-29 15:50:11.388 +0200,78531.91209112501,0.003326416015625,0.0095367431640625,-1.000350952148438,78531.89454012501,1.413888910045598,0.007958739300417607,-0.03400666359640512,0.005286177154630423,0.0128162894397974,-0.0508771724998951,-0.02190515957772732,-0.007628481835126877,0.001266598701477051,XArbitraryZVertical,0.0155120331210704,0.008018007258443524,-0.6493630533612176,-0.7602779700729494,0.007954053580760956,0.03400010988116264,-0.999390184879303
2020-07-29 15:50:11.408 +0200,78531.93212712501,0.010650634765625,0.0457916259765625,-1.009048461914062,78531.914575125,1.41290432501093,0.007919170295303472,-0.03382590546972169,-0.01604387909173965,0.002171635162085295,-0.01803526096045971,0.0007621590048074722,-0.02344343438744545,0.001135587692260742,XArbitraryZVertical,0.01543440353628459,0.007966751305872198,-0.648990259511275,-0.7605984654421378,0.007914557121694088,0.03381945565342903,-0.9993966221809387
2020-07-29 15:50:11.428 +0200,78531.952162125,0.027374267578125,0.0639801025390625,-1.004180908203125,78531.93461112501,1.413457094768871,0.007958064946403647,-0.03474404251835193,-0.03251726180315018,-0.002853482961654663,0.02664771303534508,-0.005333260633051395,0.01460175588726997,-0.01154500246047974,XArbitraryZVertical,0.01579386910611374,0.008254302491493381,-0.6491936549172201,-0.7604144041368119,0.007953178137540817,0.03473705425858498,-0.9993648529052734
2020-07-29 15:50:11.448 +0200,78531.97219712501,0.0006256103515625,0.0152587890625,-0.996429443359375,78531.954646125,1.414063462055495,0.007914942303892645,-0.03483798886032863,0.03636539727449417,0.004240911919623613,0.02342715300619602,0.01694086566567421,0.02961635589599609,-0.00399470329284668,XArbitraryZVertical,0.01581306906567291,0.008305992574116858,-0.6494238398135306,-0.7602168480414744,0.007910056971013546,0.03483094274997711,-0.9993619322776794
2020-07-29 15:50:11.469 +0200,78531.99223212501,0.01068115234375,0.00390625,-0.9962921142578125,78531.97468112501,1.414612531598633,0.007795904582792053,-0.03392952115057221,0.02717096917331219,0.00277697155252099,0.02302589081227779,-0.007677806541323662,-0.01947037130594254,0.003879666328430176,XArbitraryZVertical,0.0154269265370938,0.008060437805850251,-0.6496398848826292,-0.7600427628285982,0.007791338488459587,0.03392301127314568,-0.9993940591812134
2020-07-29 15:50:11.489 +0200,78532.012267125,0.00311279296875,0.0534515380859375,-1.008224487304688,78531.994716125,1.415341262210797,0.007659836755544073,-0.03351218517935869,-0.04205350950360298,-0.006514796987175941,0.05028954520821571,0.003990405239164829,-0.02548738941550255,0.004291176795959473,XArbitraryZVertical,0.01522124233105351,0.007982112951137694,-0.6499207165893263,-0.7598076147327588,0.007655460853129625,0.03350591287016869,-0.9994091987609863
2020-07-29 15:50:11.509 +0200,78532.03230212501,0.0089111328125,0.0711212158203125,-1.012298583984375,78532.01475112501,1.416317731623284,0.007801619754158169,-0.03360951742178193,0.01350282784551382,-0.008345187641680241,0.0413176603615284,-0.004433340393006802,0.02147580683231354,-0.009858012199401855,XArbitraryZVertical,0.01530040107657291,0.007967354919090227,-0.6502898515643918,-0.7594902256983755,0.007797134574502707,0.03360319137573242,-0.9994048476219177
2020-07-29 15:50:11.529 +0200,78532.052337125,0.001251220703125,0.0439910888671875,-1.002304077148438,78532.034786125,1.416737116969106,0.007687974105335876,-0.03317289447673859,0.09155301749706268,-0.006854882463812828,0.006473544985055923,0.001292594708502293,0.03774017468094826,-0.01094156503677368,XArbitraryZVertical,0.01509601146823966,0.007871687564341975,-0.6504529652943108,-0.7593557307638112,0.007683668751269579,0.03316681087017059,-0.9994202852249146
2020-07-29 15:50:11.549 +0200,78532.07237212501,-0.0039825439453125,-0.003936767578125,-0.991455078125,78532.054821125,1.416655526481221,0.007615426212649246,-0.03090301385540222,0.1131282225251198,0.006675839889794588,-0.008417406119406223,-0.006800657138228416,0.01044311933219433,-0.002248883247375488,XArbitraryZVertical,0.01421096964970994,0.007160312673418041,-0.6504376410074016,-0.7593929951109313,0.007611716631799936,0.03089809603989124,-0.9994935393333435
2020-07-29 15:50:11.569 +0200,78532.092407125,-0.0074005126953125,0.00421142578125,-1.005172729492188,78532.07485612501,1.41661682465168,0.007685391990007221,-0.02863243285997424,0.06096901372075081,0.005000978242605925,0.02538507059216499,-0.009890630841255188,-0.03299690410494804,0.01017618179321289,XArbitraryZVertical,0.01337179483390898,0.006394947436481656,-0.6504367593278615,-0.7594157432558899,0.007682166062295437,0.02862852066755295,-0.9995605945587158
2020-07-29 15:50:11.589 +0200,78532.112442125,-0.0032196044921875,-0.0343475341796875,-0.9530792236328125,78532.094891125,1.41719518074544,0.007793189242499606,-0.02863298709424221,-0.007376088760793209,0.003192957956343889,0.03074133396148682,-0.01472597941756248,-0.01987488940358162,-0.005327582359313965,XArbitraryZVertical,0.01340522452314668,0.006358072130131676,-0.6506556091476505,-0.759228022645444,0.007789915893226862,0.02862907573580742,-0.999559760093689
2020-07-29 15:50:11.609 +0200,78532.132478125,-0.000701904296875,0.0273895263671875,-1.002960205078125,78532.11492612501,1.418287134267984,0.008467569903755275,-0.03017550388482121,-0.1321523785591125,0.03151567652821541,0.06395365297794342,-0.009493373334407806,-0.06524819880723953,0.04288637638092041,XArbitraryZVertical,0.01420650896829554,0.006611715465979271,-0.6510556225137107,-0.7588681936069589,0.00846361368894577,0.03017092496156693,-0.9995089173316956
2020-07-29 15:50:11.629 +0200,78532.15251312501,-0.0024566650390625,0.0695648193359375,-1.001266479492188,78532.13496212501,1.419902460789027,0.009201981425904343,-0.03378298863965275,-0.1451206356287003,0.04914233833551407,0.07899564504623413,-0.009827030822634697,-0.001276358962059021,-0.001528739929199219,XArbitraryZVertical,0.01580813012980697,0.007520329643463241,-0.6516379663585292,-0.7583280927614631,0.009196600876748562,0.03377656266093254,-0.9993870854377747
2020-07-29 15:50:11.658 +0200,78532.172548125,0.0033111572265625,0.0678253173828125,-0.996337890625,78532.15499712501,1.421361505130992,0.01038215713635446,-0.03507079134048138,-0.05378846079111099,0.07925257086753845,0.06051814183592796,-0.01108410209417343,0.03540131077170372,-0.003078639507293701,XArbitraryZVertical,0.01667539479918811,0.007504683625180443,-0.6521718076258168,-0.7578506126898326,0.01037558633834124,0.03506360203027725,-0.9993312358856201
2020-07-29 15:50:11.670 +0200,78532.19258312501,0.002532958984375,0.051544189453125,-1.001739501953125,78532.175032125,1.421924828837075,0.01242052838412203,-0.03472955600161639,-0.01449871342629194,0.1229252219200134,0.006038574501872063,-0.00966888852417469,0.03170571848750114,0.002342462539672852,XArbitraryZVertical,0.01720892434707519,0.006625838809108045,-0.6523706502749647,-0.7576757526684565,0.01241271942853928,0.03472257405519485,-0.9993199110031128
2020-07-29 15:50:11.689 +0200,78532.21261812501,-0.0097808837890625,0.02056884765625,-0.9870452880859375,78532.19506712501,1.421817258643196,0.01526034772550217,-0.03371344426175112,-0.001254679635167122,0.1845459640026093,-0.0170772448182106,-0.0102255679666996,0.01647640019655228,-0.003017783164978027,XArbitraryZVertical,0.01775063468176839,0.005217516868405027,-0.6523134171431686,-0.7577234888388988,0.01525108423084021,0.03370705991983414,-0.9993153810501099
2020-07-29 15:50:11.709 +0200,78532.232653125,0.0091552734375,0.0242919921875,-0.98748779296875,78532.215102125,1.421611315674071,0.01862376593893498,-0.03367159847872367,-0.04944923892617226,0.1956169903278351,0.008520868606865406,-0.02587960474193096,-0.01299329474568367,0.01323968172073364,XArbitraryZVertical,0.01883216571313125,0.003927648311284648,-0.6522049948887332,-0.7577984630795734,0.01861213333904743,0.03366523608565331,-0.9992598295211792
2020-07-29 15:50:11.729 +0200,78532.25268812501,0.016082763671875,0.0471343994140625,-1.003082275390625,78532.23513712501,1.421974953119227,0.02290588060195184,-0.03606929873804084,-0.1025164499878883,0.2438761442899704,0.02756011299788952,-0.01418310776352882,-0.01044834032654762,0.01026380062103271,XArbitraryZVertical,0.02113614658789117,0.003091187904615175,-0.65227691070246,-0.7576796727791864,0.02288898080587387,0.03606147691607475,-0.999087393283844
2020-07-29 15:50:11.749 +0200,78532.272723125,0.0313262939453125,0.0623779296875,-0.99591064453125,78532.25517212501,1.422803380344185,0.02804717915097907,-0.03859206060531595,-0.08779982477426529,0.2900881171226501,0.03849790245294571,-0.009960096329450607,0.009736128151416779,-0.001537084579467773,XArbitraryZVertical,0.02376732818393168,0.001976476437184262,-0.6525054433316092,-0.7574086215414952,0.02802262082695961,0.03858248144388199,-0.9988623857498169
2020-07-29 15:50:11.769 +0200,78532.29275812501,0.0113067626953125,0.068939208984375,-1.007156372070312,78532.275207125,1.423413810875069,0.03447170208561066,-0.04116059462971201,-0.1101846247911453,0.3768243491649628,0.01377985253930092,-0.003109604120254517,0.02271983772516251,0.003034830093383789,XArbitraryZVertical,0.02683523998624241,0.0003902012374810363,-0.6526233910238037,-0.7572070229843558,0.03443568572402,0.04114897176623344,-0.9985594153404236
2020-07-29 15:50:11.789 +0200,78532.31279312501,-0.0030517578125,0.0208740234375,-1.037384033203125,78532.29524212501,1.423465809027597,0.04272646485842015,-0.04232352917007239,-0.08885763585567474,0.5159528851509094,-0.041804239153862,-0.03341095149517059,0.02678947150707245,-0.01078122854232788,XArbitraryZVertical,0.0299686399999982,-0.002354496900251066,-0.6525094323752999,-0.757184136768925,0.04267521575093269,0.04231089353561401,-0.9981926679611206
2020-07-29 15:50:11.809 +0200,78532.33282912501,0.006622314453125,0.01806640625,-1.032821655273438,78532.315277125,1.422600068282273,0.05304817062453029,-0.04359927214698928,-0.105595201253891,0.5900524258613586,-0.06234215572476387,-0.0543067529797554,-0.02401459589600563,-0.03977388143539429,XArbitraryZVertical,0.03381569633657728,-0.005860145114689476,-0.6519965158572369,-0.7574448326218709,0.05297290533781052,0.04358546063303947,-0.997644305229187
2020-07-29 15:50:11.829 +0200,78532.352864125,0.0543060302734375,0.0274505615234375,-1.030242919921875,78532.335313125,1.421693207210175,0.06530818900836503,-0.04565549055602249,-0.1144679188728333,0.7129946351051331,-0.04073924198746681,-0.05293946713209152,-0.02841436117887497,-0.0357481837272644,XArbitraryZVertical,0.03858502670804997,-0.009849435194693883,-0.6513930923743578,-0.7576946862311328,0.065193772315979,0.04563963040709496,-0.9968283772468567
2020-07-29 15:50:11.850 +0200,78532.37289912501,0.0982818603515625,0.06207275390625,-1.019302368164062,78532.355348125,1.420895352500665,0.07959585957797402,-0.04879232414456785,-0.1223091930150986,0.7584713101387024,-0.01946301944553852,-0.02062801271677017,-0.01967631280422211,-0.03415358066558838,XArbitraryZVertical,0.04441809009753717,-0.01425633064683126,-0.6507271206596681,-0.7578773465955606,0.07941721379756927,0.04877296835184097,-0.9956476092338562
2020-07-29 15:50:11.869 +0200,78532.392934125,0.1296844482421875,0.073333740234375,-1.00823974609375,78532.37538312501,1.421473600819091,0.09410076237155914,-0.05188069723273474,-0.06827911734580994,0.7681814432144165,0.04979202896356583,0.01033367961645126,0.01523247733712196,-0.02370500564575195,XArbitraryZVertical,0.05030941183202122,-0.01873079992782154,-0.6505265826789982,-0.7575838236383384,0.09383552521467209,0.05185742676258087,-0.9942362308502197
2020-07-29 15:50:11.890 +0200,78532.412969125,0.149017333984375,0.080047607421875,-0.9999847412109375,78532.395418125,1.423134829226087,0.108760767060372,-0.05058501179162372,0.01687745191156864,0.8120676875114441,0.1187200769782066,0.02423858642578125,0.02470417320728302,-0.01445156335830688,XArbitraryZVertical,0.05460736868148723,-0.02466055716153924,-0.6508067257631671,-0.756875457320667,0.108407624065876,0.05056343972682953,-0.9928197860717773
2020-07-29 15:50:11.909 +0200,78532.43300412501,0.169647216796875,0.06658935546875,-0.993377685546875,78532.41545312501,1.425590310186416,0.1245856874910541,-0.04730189029400617,0.08345247805118561,0.8824480772018433,0.1516051292419434,0.02913765609264374,0.03377809748053551,-0.007591903209686279,XArbitraryZVertical,0.05855518702937803,-0.03164807154736547,-0.6513862736788822,-0.755821099112113,0.1241246536374092,0.04728425294160843,-0.9911393523216248
2020-07-29 15:50:11.929 +0200,78532.453039125,0.1378173828125,0.0224761962890625,-1.024261474609375,78532.435488125,1.428794372620644,0.1419967437925863,-0.0437323072472665,0.06934425234794617,0.9499576091766357,0.1925932019948959,0.03047133982181549,0.02082338929176331,-0.003876328468322754,XArbitraryZVertical,0.06294195993779356,-0.03929193101441085,-0.6521835401269084,-0.7544209794929335,0.1413847357034683,0.0437183678150177,-0.9889889359474182
2020-07-29 15:50:11.949 +0200,78532.47307412501,0.1449127197265625,0.0542755126953125,-1.015640258789062,78532.455523125,1.432805517838739,0.1604314009154095,-0.0419333225184968,0.137461394071579,0.9790622591972351,0.2295579165220261,-0.01850788295269012,-0.01622616872191429,-0.03920841217041016,XArbitraryZVertical,0.06836816659418918,-0.04669533810427916,-0.6531535789151927,-0.7526857442951329,0.1596036553382874,0.04192103445529938,-0.9862906932830811
2020-07-29 15:50:11.969 +0200,78532.493109125,0.1681060791015625,0.0227203369140625,-1.015213012695312,78532.47555812501,1.436711371903324,0.1807163437557139,-0.03800560934395143,0.2799367904663086,1.067559719085693,0.2427444756031036,-0.03013265132904053,0.01633508130908012,-0.03180938959121704,XArbitraryZVertical,0.07362518133110035,-0.05546998870285558,-0.6540533898630463,-0.7508105712988304,0.1796045005321503,0.03799645975232124,-0.9830048084259033
2020-07-29 15:50:11.990 +0200,78532.513144125,0.2125244140625,0.0224151611328125,-1.0010986328125,78532.495593125,1.440264359352817,0.2030710451266045,-0.03238032621184904,0.3309573531150818,1.162831902503967,0.2487910836935043,-0.02507613599300385,-0.009536910802125931,-0.03591400384902954,XArbitraryZVertical,0.07894453502294617,-0.06556337258597406,-0.6547679540997031,-0.7488311809944231,0.2015724927186966,0.03237466886639595,-0.9789384007453918
2020-07-29 15:50:12.009 +0200,78532.53317912501,0.2349700927734375,0.0182952880859375,-0.976318359375,78532.51562812501,1.443818791940314,0.2272033393233557,-0.02581307684171768,0.3536998331546783,1.265364408493042,0.2632885873317719,-0.005641847848892212,-0.002567823976278305,-0.02435272932052612,XArbitraryZVertical,0.08452677566102759,-0.07659916791439762,-0.6554067626631398,-0.7466121514434167,0.2251785844564438,0.02581021003425121,-0.9739755988121033
2020-07-29 15:50:12.030 +0200,78532.55321512501,0.273590087890625,0.0190582275390625,-0.9972686767578125,78532.535663125,1.447526524804101,0.2527892375957638,-0.01804423608353177,0.3204618394374847,1.362958788871765,0.2824153304100037,-0.007796511054039001,0.0002491474151611328,-0.005938053131103516,XArbitraryZVertical,0.09018003162773382,-0.08852727883597158,-0.6560477472054067,-0.7440643908992466,0.2500647902488708,0.01804325729608536,-0.9680609703063965
2020-07-29 15:50:12.050 +0200,78532.573250125,0.2973785400390625,0.0105133056640625,-1.000335693359375,78532.55569912501,1.451156461980955,0.2809413720015632,-0.01051792709637877,0.2960322499275208,1.44742226600647,0.2721319496631622,0.006594479084014893,0.006492681801319122,-0.03459388017654419,XArbitraryZVertical,0.09679988978699303,-0.1012863463779289,-0.6564722043624899,-0.741225406572713,0.27724489569664,0.01051773317158222,-0.9607416987419128
2020-07-29 15:50:12.070 +0200,78532.59328512501,0.2980194091796875,0.0086822509765625,-0.985137939453125,78532.575734125,1.454481294723814,0.3104531404318781,-0.003362927734096677,0.3309421837329865,1.491933345794678,0.2519416809082031,-7.161498069763184e-05,0.008483543992042542,-0.04560768604278564,XArbitraryZVertical,0.1040232138103491,-0.1143863799125033,-0.6566224416268068,-0.7382018104602286,0.3054884076118469,0.003362921299412847,-0.9521898627281189
2020-07-29 15:50:12.090 +0200,78532.613320125,0.34356689453125,-0.00750732421875,-0.999359130859375,78532.59576912501,1.456510722282736,0.341300440125739,0.005234013892453641,0.3640549778938293,1.586008429527283,0.2136974185705185,-0.0272519588470459,0.01204921305179596,-0.04284405708312988,XArbitraryZVertical,0.1111037779713224,-0.1284613208136089,-0.656230327063334,-0.7351974979295256,0.3347082138061523,-0.005233990028500557,-0.9423072934150696
2020-07-29 15:50:12.110 +0200,78532.633355125,0.3864593505859375,-0.037750244140625,-1.0150146484375,78532.615804125,1.458152144686242,0.3736448161504396,0.01222480573292761,0.2758737206459045,1.628926634788513,0.1846825480461121,-0.009029984474182129,0.006189338862895966,-0.07002341747283936,XArbitraryZVertical,0.1192532633639938,-0.142519738668779,-0.6554233761979056,-0.7320430083715181,0.3649839162826538,-0.01222450099885464,-0.9309335947036743
2020-07-29 15:50:12.130 +0200,78532.65339012501,0.4974822998046875,-0.09405517578125,-1.041580200195312,78532.63583912501,1.45925271808044,0.4071757453327832,0.02044507895866015,0.3601631820201874,1.675410270690918,0.1615029722452164,0.0009802579879760742,-0.02271801978349686,-0.1004448533058167,XArbitraryZVertical,0.1273046736939028,-0.1573785380161623,-0.6543309003847092,-0.7286127874813368,0.3959347903728485,-0.02044365555047989,-0.91805100440979
2020-07-29 15:50:12.156 +0200,78532.673425125,0.665924072265625,-0.1439208984375,-0.981201171875,78532.655874125,1.459501706961207,0.4399880511187484,0.02776744533683254,0.3121758103370667,1.575059652328491,0.1991994380950928,0.08952262997627258,-0.07323914021253586,-0.1427624225616455,XArbitraryZVertical,0.1353739113115113,-0.1716680437579265,-0.6528114670679374,-0.7252869325856055,0.4257644712924957,-0.02776387706398964,-0.9044079780578613
2020-07-29 15:50:12.170 +0200,78532.69346012501,0.7382965087890625,-0.1129302978515625,-1.046112060546875,78532.675909125,1.459967969774481,0.4722445965013616,0.03822586989649578,0.2413077652454376,1.556891322135925,0.2143867164850235,0.239153653383255,-0.09056797623634338,-0.09116780757904053,XArbitraryZVertical,0.1421257647771396,-0.1866836972194423,-0.651567234036895,-0.7213941807161754,0.4545540511608124,-0.03821656107902527,-0.889898955821991
2020-07-29 15:50:12.190 +0200,78532.713495125,0.78863525390625,-0.082366943359375,-1.2161865234375,78532.69594412501,1.463789542858422,0.5026940864246954,0.03917520539831158,-0.4518482089042664,1.483205914497375,0.1668661832809448,0.2656324207782745,-0.07934278249740601,-0.1754921078681946,XArbitraryZVertical,0.1520627558582758,-0.1976593117943282,-0.6507814901089969,-0.717140945762337,0.4814184308052063,-0.0391651876270771,-0.8756154179573059
2020-07-29 15:50:12.210 +0200,78532.733530625,0.80291748046875,-0.0013885498046875,-1.240219116210938,78532.715979125,1.47530907112327,0.5299468987834679,0.02512867510202017,-1.283997535705566,1.242584705352783,0.1757131963968277,0.300609290599823,-0.0528329610824585,-0.3603166341781616,XArbitraryZVertical,0.1671435335586093,-0.2019462462906376,-0.6514652583883249,-0.7119506551432131,0.5053279399871826,-0.02512603066861629,-0.8625615239143372
2020-07-29 15:50:12.230 +0200,78532.75356562501,0.7012786865234375,0.0284881591796875,-1.00537109375,78532.736014625,1.494229885688942,0.5516327733991976,0.003099483803772783,-1.400919198989868,0.9517890810966492,0.3259466290473938,0.2899474501609802,0.00737270712852478,-0.3771113157272339,XArbitraryZVertical,0.1839625590933176,-0.2008104754085258,-0.6541499339025019,-0.7056349967877147,0.524075984954834,-0.003099478781223297,-0.8516658544540405
2020-07-29 15:50:12.250 +0200,78532.77360062501,0.6768951416015625,0.1016387939453125,-0.755126953125,78532.75604962501,1.510876243037085,0.5680446945154992,-0.009786830434435428,-0.4515603184700012,0.7208916544914246,0.3896590769290924,0.1678057909011841,0.01597972214221954,-0.1361685991287231,XArbitraryZVertical,0.1955375912802035,-0.2007684658893919,-0.6571334462166549,-0.6997376314519483,0.537959098815918,0.009786673821508884,-0.8429141640663147
2020-07-29 15:50:12.270 +0200,78532.793635625,0.7273406982421875,-0.029205322265625,-0.6503448486328125,78532.776084625,1.514723285456814,0.5813889786208751,-0.0004139572598611605,0.852321982383728,0.6413958072662354,0.4137232601642609,0.141197681427002,0.1062245517969131,0.09734839200973511,XArbitraryZVertical,0.1970523252423719,-0.2081347953351458,-0.658140222843683,-0.6962052289343749,0.5491852164268494,0.0004139572556596249,-0.8357005715370178
2020-07-29 15:50:12.290 +0200,78532.81367062501,0.769317626953125,-0.1281585693359375,-0.702392578125,78532.79611962501,1.510049168341657,0.5949682531952128,0.02260106525660582,1.129411578178406,0.6977599859237671,0.461155116558075,0.1814627051353455,-0.02546733617782593,0.1831750869750977,XArbitraryZVertical,0.1929933180115525,-0.220853321925615,-0.6575761788618062,-0.6939531084037509,0.5603393316268921,-0.02259914204478264,-0.8279547691345215
2020-07-29 15:50:12.310 +0200,78532.833705625,0.8392486572265625,0.0264434814453125,-0.8180694580078125,78532.816154625,1.50677079378074,0.6074957161420471,0.04260421708939825,0.6495300531387329,0.5048395395278931,0.3750201761722565,0.2151761651039124,-0.07906712591648102,0.1154688000679016,XArbitraryZVertical,0.1897455896391589,-0.2320110078910373,-0.6572934961472172,-0.6914714695227326,0.5702950954437256,-0.04259132966399193,-0.8203350305557251
2020-07-29 15:50:12.330 +0200,78532.85374062501,0.809600830078125,0.0037841796875,-0.870391845703125,78532.836189625,1.505740297778452,0.6152435213477421,0.05622070943238643,0.63639235496521,0.2702749967575073,0.3298128545284271,0.2777300477027893,0.08506490290164948,-0.003079891204833984,XArbitraryZVertical,0.1874011935212723,-0.2391849930577468,-0.6575918762163254,-0.6893795991880474,0.5762454867362976,-0.0561910979449749,-0.8153426647186279
2020-07-29 15:50:12.350 +0200,78532.873775625,0.8054046630859375,0.05255126953125,-0.8649444580078125,78532.85622462501,1.503074319859765,0.6189418392781547,0.07027236823071713,0.6292807459831238,0.07025827467441559,0.2641629576683044,0.2441667914390564,0.07212010025978088,-0.0549425482749939,XArbitraryZVertical,0.1833629423250197,-0.2452279348672308,-0.6577434258259601,-0.6881967938412932,0.5787416696548462,-0.07021454721689224,-0.8124825954437256
2020-07-29 15:50:12.371 +0200,78532.893810625,0.82928466796875,0.11016845703125,-0.859100341796875,78532.876259625,1.499707701096871,0.6185922050512654,0.08268277761286429,0.5902761220932007,-0.1228440701961517,0.1759702861309052,0.2416998744010925,0.1375526040792465,-0.04715228080749512,XArbitraryZVertical,0.1784636270275723,-0.2493883139614506,-0.6578432016073179,-0.6878942712594416,0.5779077410697937,-0.08258859813213348,-0.8119124174118042
2020-07-29 15:50:12.390 +0200,78532.91384562501,0.8302764892578125,0.0817413330078125,-0.8239898681640625,78532.89629462501,1.494738551374628,0.6150014235883869,0.0937792723906585,0.6027899384498596,-0.2729105055332184,0.07157018035650253,0.271404504776001,0.2040311247110367,-0.03971683979034424,XArbitraryZVertical,0.1727399615107784,-0.2521290672098642,-0.6575223289469564,-0.6886626169516865,0.5744245052337646,-0.09364187717437744,-0.8131836652755737
2020-07-29 15:50:12.410 +0200,78532.93388162501,0.7628631591796875,0.0779266357421875,-0.8342742919921875,78532.916329625,1.489084035066341,0.6088052357266385,0.1023335008598757,0.3901041448116302,-0.4151630103588104,-0.0498383492231369,0.2731515765190125,0.1778061538934708,-0.004932165145874023,XArbitraryZVertical,0.1669548427271867,-0.2531914861434879,-0.6569085828993324,-0.6902834657475294,0.5688959360122681,-0.1021549850702286,-0.8160402774810791
2020-07-29 15:50:12.430 +0200,78532.953916625,0.6847991943359375,0.0948486328125,-0.8174591064453125,78532.93636562501,1.483392669208602,0.5992224416315319,0.106166896510507,0.3137010037899017,-0.5752871632575989,-0.1874748021364212,0.2099809050559998,0.182197242975235,-0.009843826293945312,XArbitraryZVertical,0.161725334027696,-0.2515600066782095,-0.6560826582892825,-0.6929055056133527,0.560824990272522,-0.1059675663709641,-0.8211249709129333
2020-07-29 15:50:12.450 +0200,78532.97395162501,0.68218994140625,0.115234375,-0.8321075439453125,78532.956400625,1.475483059614337,0.5882990518118993,0.1089889320773573,0.3568490147590637,-0.5895353555679321,-0.3094332814216614,0.144984245300293,0.2009257972240448,0.01373773813247681,XArbitraryZVertical,0.1561458555769245,-0.2492860311429738,-0.6544587848849324,-0.6965333069110047,0.5516541004180908,-0.1087732911109924,-0.8269498944282532
2020-07-29 15:50:12.470 +0200,78532.99398662501,0.652923583984375,0.0829620361328125,-0.8439483642578125,78532.97643562501,1.464603938788402,0.5775367309579313,0.1126533426345093,0.5213387608528137,-0.5865622162818909,-0.3822118937969208,0.1495960354804993,0.2247273921966553,0.00470203161239624,XArbitraryZVertical,0.1499606163571601,-0.2475118127187542,-0.6518061700891523,-0.700998172403533,0.5425011515617371,-0.1124152168631554,-0.8324994444847107
2020-07-29 15:50:12.491 +0200,78533.014021625,0.6334686279296875,0.084075927734375,-0.8311309814453125,78532.996470625,1.452213295090407,0.5671631975621084,0.1167486166110433,0.4652144908905029,-0.6206743717193604,-0.4124728143215179,0.1337593197822571,0.1955088078975677,-0.003344297409057617,XArbitraryZVertical,0.1435748105802063,-0.2460545523596736,-0.6485647993653181,-0.705837825060021,0.5335843563079834,-0.1164835765957832,-0.8376868367195129
2020-07-29 15:50:12.510 +0200,78533.03405662501,0.5457305908203125,0.093170166015625,-0.8276214599609375,78533.01650562501,1.440295258087448,0.5556578283945681,0.1202914490869395,0.4456915259361267,-0.6547724008560181,-0.4057281613349915,0.1166790127754211,0.1998260319232941,0.01629722118377686,XArbitraryZVertical,0.1370996995874625,-0.2439188952376139,-0.6454520681315445,-0.7107030722548091,0.523690402507782,-0.1200015544891357,-0.8434144854545593
2020-07-29 15:50:12.530 +0200,78533.054091625,0.51641845703125,0.08740234375,-0.8153228759765625,78533.03654062501,1.428453828248711,0.5437128978298236,0.1235274034441736,0.4345079660415649,-0.6476641893386841,-0.4164640605449677,0.04068338871002197,0.2137628942728043,0.02974903583526611,XArbitraryZVertical,0.1306281885669237,-0.2414536149505844,-0.6422971282880388,-0.7156052502194531,0.5133751630783081,-0.123213492333889,-0.8492728471755981
2020-07-29 15:50:12.550 +0200,78533.07412662501,0.5232391357421875,0.099517822265625,-0.8373870849609375,78533.056575625,1.417024490150091,0.5329413746733329,0.1259118579927683,0.3487832248210907,-0.5830923914909363,-0.423407256603241,0.0259501039981842,0.2097846120595932,0.03934800624847412,XArbitraryZVertical,0.1249228372238992,-0.2390509865803906,-0.6390753332079743,-0.7202996545861031,0.5040469169616699,-0.1255794316530228,-0.8544978499412537
2020-07-29 15:50:12.570 +0200,78533.09416162501,0.515380859375,0.066162109375,-0.83209228515625,78533.07661062501,1.406125347762416,0.5231036146532069,0.1259612941903248,0.417388916015625,-0.5392612814903259,-0.3636684417724609,0.03646716475486755,0.2198879569768906,0.02596700191497803,XArbitraryZVertical,0.1204741624410887,-0.2361802788327946,-0.6357448110545767,-0.7249367850213659,0.4956131875514984,-0.1256284713745117,-0.8594096899032593
2020-07-29 15:50:12.591 +0200,78533.11419762501,0.5245819091796875,0.089630126953125,-0.8251953125,78533.096645625,1.397155264615252,0.5141907527906173,0.12362260920016,0.2178551703691483,-0.5170302987098694,-0.2634545862674713,0.04027971625328064,0.1868164837360382,0.03540396690368652,XArbitraryZVertical,0.1174700979965691,-0.232760878275231,-0.6328310430453984,-0.7290733985385426,0.4880769848823547,-0.1233079731464386,-0.8640462756156921
2020-07-29 15:50:12.611 +0200,78533.134232625,0.4807586669921875,0.0998687744140625,-0.8452606201171875,78533.116681625,1.392376313027952,0.5042391230024608,0.1190605679168949,0.07281594723463058,-0.561067521572113,-0.1553352475166321,0.05404731631278992,0.2051492184400558,0.04544025659561157,XArbitraryZVertical,0.1154858713549545,-0.2280153013590846,-0.6313111543296448,-0.73220094333278,0.4797210693359375,-0.1187794804573059,-0.8693440556526184
2020-07-29 15:50:12.631 +0200,78533.15426762501,0.44061279296875,0.06494140625,-0.868408203125,78533.136716625,1.388830559005113,0.4930718399291742,0.1160998248430025,0.2024101614952087,-0.5821112990379333,-0.08807936310768127,0.01642104983329773,0.2122445404529572,0.03630971908569336,XArbitraryZVertical,0.1126767488807427,-0.2232207572574079,-0.6304216516183577,-0.7348775126190589,0.4701475501060486,-0.1158391758799553,-0.8749529123306274
2020-07-29 15:50:12.660 +0200,78533.174302625,0.4324493408203125,0.0866851806640625,-0.874267578125,78533.15675162501,1.385581268542522,0.4823986008438099,0.1139543974925052,0.1970453560352325,-0.5775985717773438,-0.07932274043560028,-0.007924348115921021,0.1747037768363953,0.00747978687286377,XArbitraryZVertical,0.1097640174325194,-0.2188202739780959,-0.6296587208053939,-0.7372919723808569,0.4608966112136841,-0.1137079298496246,-0.8801391124725342
2020-07-29 15:50:12.678 +0200,78533.194337625,0.4242401123046875,-0.0153045654296875,-0.8605804443359375,78533.176786625,1.382525575943963,0.4715790640560381,0.1127680509712772,0.1827646940946579,-0.5633269548416138,-0.07718239724636078,-0.01053833961486816,0.1959536373615265,0.01437968015670776,XArbitraryZVertical,0.1064764104397536,-0.2146297021580554,-0.6290285433024334,-0.7395404261168559,0.4514080882072449,-0.1125291958451271,-0.8851937055587769
2020-07-29 15:50:12.693 +0200,78533.21437262501,0.343475341796875,-0.1088104248046875,-0.75726318359375,78533.19682162501,1.380730918311254,0.4604942452177913,0.1098741516129349,0.05896605178713799,-0.653952956199646,0.002249809680506587,-0.009653180837631226,0.08320815861225128,0.0364266037940979,XArbitraryZVertical,0.1038956983307663,-0.2097383462351657,-0.6287397922318583,-0.7415536867700822,0.4417112171649933,-0.1096532121300697,-0.8904310464859009
2020-07-29 15:50:12.711 +0200,78533.234407625,0.3012847900390625,-0.142242431640625,-0.7054290771484375,78533.216856625,1.381743500878407,0.4478516099581821,0.1068249561228582,-0.02664445713162422,-0.6255908608436584,0.1640752702951431,-0.08158469200134277,-0.00802137702703476,0.1497918367385864,XArbitraryZVertical,0.1011786576450922,-0.2040642656891273,-0.6295507682196855,-0.7428233155853524,0.4305616021156311,-0.1066218987107277,-0.896241307258606
2020-07-29 15:50:12.731 +0200,78533.25444262501,0.2908172607421875,-0.045196533203125,-0.7486114501953125,78533.236891625,1.38727560356525,0.434864278881982,0.1054949382532643,-0.1062355563044548,-0.6418238878250122,0.3549239337444305,-0.1078642308712006,-0.03584673255681992,0.1970615386962891,XArbitraryZVertical,0.09814266011999079,-0.1985583217083504,-0.6321622819316202,-0.7425048135716239,0.4189451932907104,-0.1052993685007095,-0.9018852114677429
2020-07-29 15:50:12.751 +0200,78533.274477625,0.2799530029296875,-0.0771026611328125,-0.8122406005859375,78533.25692662501,1.396136863917626,0.4211884425047397,0.1067396316798147,-0.2035980522632599,-0.6251343488693237,0.4826588332653046,-0.1057194471359253,0.06075873970985413,0.1549509763717651,XArbitraryZVertical,0.09420398840360643,-0.1934442894630772,-0.636186843940451,-0.7409259746608399,0.4065184593200684,-0.1065370589494705,-0.9074098467826843
2020-07-29 15:50:12.771 +0200,78533.29451362501,0.25531005859375,-0.086883544921875,-0.8369598388671875,78533.276961625,1.408415294259133,0.4071071848677671,0.1062346205029718,-0.365385502576828,-0.6356666684150696,0.6072983145713806,-0.1075632274150848,0.027187779545784,0.1041909456253052,XArbitraryZVertical,0.09106634295399912,-0.187510778265002,-0.6413489234094354,-0.7383889460507707,0.3937223851680756,-0.1060349121689796,-0.9130932688713074
2020-07-29 15:50:12.792 +0200,78533.314548625,0.218017578125,-0.0503692626953125,-0.7915802001953125,78533.296997625,1.424501903062259,0.3925073892755577,0.1027359187766463,-0.5054311156272888,-0.6878384947776794,0.7309856414794922,-0.1144739985466003,0.01117395609617233,0.07641780376434326,XArbitraryZVertical,0.08915270967041428,-0.1803086765851838,-0.6477264311458142,-0.7348408224059049,0.3804894983768463,-0.1025552898645401,-0.9190811514854431
2020-07-29 15:50:12.812 +0200,78533.33458362501,0.1282501220703125,-0.0998077392578125,-0.7562713623046875,78533.31703262501,1.441940084580384,0.3767829886267023,0.1013485206034212,-0.2648094892501831,-0.6677393317222595,0.8076922297477722,-0.1441265344619751,0.0505531057715416,0.1412320733070374,XArbitraryZVertical,0.08609151896484739,-0.1733419140660854,-0.6547273996857041,-0.7306660036618733,0.3660430312156677,-0.1011751070618629,-0.9250816702842712
2020-07-29 15:50:12.831 +0200,78533.354618625,0.1070709228515625,-0.16632080078125,-0.8001556396484375,78533.33706762501,1.458906659190391,0.3631591077594093,0.1048404632670349,-0.0370936393737793,-0.5192838311195374,0.8980126976966858,-0.220204621553421,-0.004316166043281555,0.1744486689567566,XArbitraryZVertical,0.08176547087418556,-0.1687930009482274,-0.6616591051725327,-0.7259686837423937,0.3532786071300507,-0.1046485081315041,-0.9296466708183289
2020-07-29 15:50:12.851 +0200,78533.37465362501,0.1269073486328125,-0.14556884765625,-0.8302154541015625,78533.357102625,1.476788423774654,0.3517112950734058,0.1119109837618207,0.08165138959884644,-0.443550169467926,1.007788181304932,-0.2256401181221008,-0.05641838163137436,0.1316291689872742,XArbitraryZVertical,0.07685277156252457,-0.166245801943903,-0.6689189061821891,-0.7204189552254678,0.3423497974872589,-0.1116775348782539,-0.9329119920730591
2020-07-29 15:50:12.871 +0200,78533.39468862501,0.15216064453125,-0.1746368408203125,-0.8357086181640625,78533.37713762501,1.49614398169379,0.341698218914588,0.1214159078916915,0.146002933382988,-0.3338995575904846,1.108624219894409,-0.1951977610588074,-0.02552539110183716,0.1046140789985657,XArbitraryZVertical,0.07161429727754134,-0.1650637115270047,-0.6766494014113159,-0.7139825054777629,0.3326207399368286,-0.1211178153753281,-0.9352506995201111
2020-07-29 15:50:12.893 +0200,78533.414723625,0.1561431884765625,-0.16412353515625,-0.8100128173828125,78533.397172625,1.518145323600027,0.3334184443354872,0.1314346038959905,0.0724048987030983,-0.235942929983139,1.286497116088867,-0.1622192561626434,-0.04752136766910553,0.09908604621887207,XArbitraryZVertical,0.06697877730741342,-0.1646947167835718,-0.68514776367312,-0.7063724533476262,0.3244523406028748,-0.1310565024614334,-0.9367789626121521
2020-07-29 15:50:12.911 +0200,78533.43475862501,0.167022705078125,-0.1888275146484375,-0.8347320556640625,78533.41720762501,1.544155840540167,0.3260001493377271,0.1399751042499742,-0.1160992383956909,-0.1582428067922592,1.412680745124817,-0.1518500745296478,-0.02643296122550964,0.1287683248519897,XArbitraryZVertical,0.06349455633557943,-0.1641209660326717,-0.6948237452278938,-0.6973182526025463,0.3171241283416748,-0.1395184695720673,-0.9380655288696289
2020-07-29 15:50:12.931 +0200,78533.45479462501,0.15374755859375,-0.259246826171875,-0.837127685546875,78533.437242625,1.57350419355785,0.3186608592452045,0.1444326341677131,-0.3813005387783051,-0.1718752682209015,1.471920609474182,-0.1371801495552063,-0.05433925986289978,0.1058624386787415,XArbitraryZVertical,0.0617407434015453,-0.1621857290530298,-0.7053565869994423,-0.6872815687957384,0.310032993555069,-0.1439310014247894,-0.9397677183151245
2020-07-29 15:50:12.951 +0200,78533.474829625,0.1641845703125,-0.2125244140625,-0.8496856689453125,78533.45727862501,1.605175955134714,0.3102757253333694,0.1440084444360071,-0.6072797775268555,-0.2077381908893585,1.48835813999176,-0.1420577466487885,-0.1197664886713028,0.1073703169822693,XArbitraryZVertical,0.06144510028537242,-0.1582033565303756,-0.7164028379048818,-0.676729780154249,0.3021607398986816,-0.1435112059116364,-0.9423924088478088
2020-07-29 15:50:12.971 +0200,78533.494864625,0.1878662109375,-0.1796722412109375,-0.8028411865234375,78533.477313625,1.637748246290258,0.3015278095709185,0.1405525726191094,-0.6627508401870728,-0.1870869696140289,1.471571803092957,-0.1208245754241943,-0.07058332860469818,0.0993078351020813,XArbitraryZVertical,0.06200884377619661,-0.1530396852081704,-0.7275135676103078,-0.6659262627318284,0.2940508425235748,-0.1400902569293976,-0.9454675316810608
2020-07-29 15:50:12.992 +0200,78533.51489962501,0.2600250244140625,-0.1985321044921875,-0.8393707275390625,78533.49734862501,1.67010199013371,0.2944194808262834,0.1368521837057197,-0.653003454208374,-0.08865281194448471,1.472901225090027,-0.08904516696929932,-0.04579281806945801,0.1460825204849243,XArbitraryZVertical,0.0630915580801846,-0.1483500725406701,-0.7383273335131253,-0.6548928183853349,0.2874712347984314,-0.1364254057407379,-0.9480234384536743
2020-07-29 15:50:13.013 +0200,78533.534934625,0.252593994140625,-0.2005462646484375,-0.8346710205078125,78533.517383625,1.702026785019547,0.2882561579275519,0.1335666218650823,-0.5397976040840149,-0.09557436406612396,1.442100763320923,-0.01327162981033325,-0.06731012463569641,0.1118613481521606,XArbitraryZVertical,0.06422521102485493,-0.1441326680785527,-0.7488120212607303,-0.6437247210155627,0.2817487418651581,-0.1331698298454285,-0.9502018094062805
2020-07-29 15:50:13.031 +0200,78533.55496962501,0.2789764404296875,-0.2762451171875,-0.806365966796875,78533.53741862501,1.731906965065503,0.2831163813994623,0.1327909243061681,-0.4072405397891998,-0.01978479512035847,1.378842711448669,-0.01768657565116882,-0.07449941337108612,0.1192941069602966,XArbitraryZVertical,0.06467324605712638,-0.1412417852811439,-0.7584975447839102,-0.6328898838653494,0.276889979839325,-0.1324010044336319,-0.9517362713813782
2020-07-29 15:50:13.052 +0200,78533.575004625,0.3072967529296875,-0.2464141845703125,-0.7349395751953125,78533.55745362501,1.760972323195542,0.2795523312975242,0.1320097618980403,-0.4895106554031372,0.04613935947418213,1.368965983390808,0.01443597674369812,-0.1509537845849991,0.1509721279144287,XArbitraryZVertical,0.06559946329968158,-0.1388834632282844,-0.7677175497479414,-0.622107691803925,0.273524671792984,-0.1316266804933548,-0.9528161883354187
2020-07-29 15:50:13.071 +0200,78533.59503962501,0.3106842041015625,-0.2383880615234375,-0.716278076171875,78533.577488625,1.790442474189225,0.2778463298844811,0.1287957156579412,-0.6086297035217285,0.2029595971107483,1.363038897514343,0.04285740852355957,-0.1192422956228256,0.2234886884689331,XArbitraryZVertical,0.06798056258620791,-0.1361505610650504,-0.7768001379033879,-0.6110836658290023,0.272013396024704,-0.1284399330615997,-0.9536833167076111
2020-07-29 15:50:13.091 +0200,78533.615075625,0.3196868896484375,-0.2053070068359375,-0.7060699462890625,78533.59752362501,1.821299360255442,0.2800408082502147,0.1230104272357045,-0.8447916507720947,0.4013523161411285,1.426283121109009,0.04216143488883972,-0.1196539551019669,0.240018904209137,XArbitraryZVertical,0.07270860863585532,-0.1335002731699115,-0.7859532738493832,-0.5993067167321785,0.2743063569068909,-0.1227004379034042,-0.9537822604179382
2020-07-29 15:50:13.111 +0200,78533.63511062501,0.4126434326171875,-0.213836669921875,-0.89910888671875,78533.61755962501,1.856647735754592,0.2854611761152547,0.1111858659336643,-1.254095196723938,0.5372451543807983,1.616430878639221,0.0486590564250946,-0.09215563535690308,0.2457988262176514,XArbitraryZVertical,0.0807546704304575,-0.1291324513653455,-0.7959870137271862,-0.5858397175243641,0.279861181974411,-0.1109569221735001,-0.9536069631576538
2020-07-29 15:50:13.131 +0200,78533.655145625,0.447845458984375,-0.141448974609375,-0.93023681640625,78533.637594625,1.897290417198238,0.2911377902472915,0.09606718527587838,-1.250160098075867,0.4038559794425964,1.828067660331726,0.1405088603496552,-0.1227415651082993,0.03736716508865356,XArbitraryZVertical,0.09005335611732632,-0.1230441999168454,-0.8071636389124011,-0.5702959061837588,0.2857187986373901,-0.09591948986053467,-0.9535010457038879
2020-07-29 15:50:13.151 +0200,78533.67518062501,0.418792724609375,-0.16693115234375,-0.835723876953125,78533.657629625,1.940130327866405,0.2942948205774527,0.08426206507419352,-1.119058609008789,0.3371027708053589,1.883980989456177,0.1621443629264832,-0.05794874578714371,0.03141725063323975,XArbitraryZVertical,0.09729025291810196,-0.1171701671882594,-0.8187743411728073,-0.5535470442595499,0.2890359163284302,-0.0841623917222023,-0.9536114931106567
2020-07-29 15:50:13.171 +0200,78533.695215625,0.401214599609375,-0.1913299560546875,-0.74139404296875,78533.67766462501,1.983260791883097,0.2976565479693577,0.07382636699703202,-1.139141798019409,0.3505445420742035,1.937117218971252,0.1311030685901642,-0.09782245010137558,0.1244790554046631,XArbitraryZVertical,0.1040377640452324,-0.1116468438119884,-0.8300989818018902,-0.5363270805265968,0.2924817502498627,-0.07375932484865189,-0.9534222483634949
2020-07-29 15:50:13.191 +0200,78533.715250625,0.385009765625,-0.1870269775390625,-0.6259613037109375,78533.697699625,2.028544735180187,0.302503905067051,0.06309744513961439,-1.232789039611816,0.4561764299869537,2.05720329284668,0.1105150282382965,-0.1302990764379501,0.2192884683609009,XArbitraryZVertical,0.111402473124653,-0.1060308018645962,-0.841495393984147,-0.5179116506495539,0.2973185181617737,-0.06305558234453201,-0.9526939392089844
2020-07-29 15:50:13.211 +0200,78533.73528575001,0.3896942138671875,-0.15814208984375,-0.5513916015625,78533.71773462501,2.077468290820726,0.3106692398621097,0.04989178350381531,-1.543207406997681,0.6478912234306335,2.214730262756348,0.08667591214179993,-0.1381269246339798,0.3320378065109253,XArbitraryZVertical,0.1207807535729817,-0.09969850630332855,-0.8530797973907509,-0.4977219955730003,0.3053155243396759,-0.04987108707427979,-0.9509444236755371
2020-07-29 15:50:13.231 +0200,78533.75532075,0.4117431640625,-0.120391845703125,-0.4790191650390625,78533.73776975001,2.13344685830164,0.3231552086602583,0.02912066739964585,-2.221861600875854,0.8140032291412354,2.452524185180664,0.08099520206451416,-0.1278276592493057,0.4035139083862305,XArbitraryZVertical,0.1339105234215055,-0.09027679502870485,-0.8652571412408222,-0.4746032206333339,0.317425400018692,-0.02911655232310295,-0.94783616065979
2020-07-29 15:50:13.251 +0200,78533.77535675,0.4278411865234375,-0.073760986328125,-0.4149627685546875,78533.75780475,2.199697028551207,0.3397085319326995,-0.003713664241490728,-3.035774707794189,0.9237643480300903,2.734699487686157,0.08822399377822876,-0.1210242807865143,0.4705594182014465,XArbitraryZVertical,0.1514670462425695,-0.07506711147197959,-0.8781707011790637,-0.4474806068444505,0.3332099914550781,0.00371365575119853,-0.942845344543457
2020-07-29 15:50:13.271 +0200,78533.79539175,0.47283935546875,-0.0467987060546875,-0.4875640869140625,78533.77784075,2.27722228310212,0.3607977728395548,-0.04769460245106499,-3.695537567138672,0.9768195748329163,3.032134056091309,0.08465325832366943,-0.1177428215742111,0.5253338813781738,XArbitraryZVertical,0.1727038624516095,-0.05382944458999937,-0.8912709339697077,-0.415826718530304,0.3526193201541901,0.04767652228474617,-0.9345515370368958
2020-07-29 15:50:13.292 +0200,78533.81542675001,0.56597900390625,0.0397796630859375,-0.64215087890625,78533.79787575001,2.365240199722171,0.3864364968250929,-0.0962421474294584,-3.922791719436646,0.9192367196083069,3.35307240486145,0.1125870048999786,-0.1407949924468994,0.4205769300460815,XArbitraryZVertical,0.195394555768766,-0.02889976303099144,-0.9038291478701596,-0.3795769472577172,0.3751459717750549,0.09609363973140717,-0.9219715595245361
2020-07-29 15:50:13.312 +0200,78533.83546175,0.5526275634765625,0.264007568359375,-0.668487548828125,78533.81791075,2.458715025476848,0.414080356176526,-0.1354666703901074,-3.134517431259155,0.7371758222579956,3.620505571365356,0.1811051964759827,-0.07316815853118896,0.2674258351325989,XArbitraryZVertical,0.2154323201716035,-0.006261375456168936,-0.9153771955122502,-0.3400505577326061,0.3986620306968689,0.1350527256727219,-0.9070994257926941
2020-07-29 15:50:13.332 +0200,78533.85549675001,0.5782318115234375,0.288848876953125,-0.6992340087890625,78533.83794575,2.548446120937498,0.4440211106607169,-0.1538629113637252,-2.317550659179688,0.9941295981407166,3.642947673797607,0.1384413540363312,0.1220384836196899,0.2244693636894226,XArbitraryZVertical,0.2318650585287057,0.007536990319131923,-0.9251668584282575,-0.3004130864251833,0.4244993031024933,0.1532565504312515,-0.8923635482788086
2020-07-29 15:50:13.352 +0200,78533.87553175,0.5599212646484375,0.0886993408203125,-0.681365966796875,78533.85798075001,2.633060277934142,0.4796525310574376,-0.1593030103592673,-1.927661895751953,1.243101358413696,3.605810403823853,0.133339911699295,0.1272023767232895,0.1791164875030518,XArbitraryZVertical,0.2486089851967248,0.01524630001003115,-0.9324128888344481,-0.2618537447603365,0.455627828836441,0.1586300879716873,-0.8759222626686096
2020-07-29 15:50:13.372 +0200,78533.89556675,0.5887451171875,0.013702392578125,-0.664764404296875,78533.87801575,2.715938993613447,0.520905193764796,-0.1571766605386115,-1.8859703540802,1.556853413581848,3.664508819580078,0.0804741382598877,-0.07552194595336914,0.1814584732055664,XArbitraryZVertical,0.2669541937930319,0.01992208533891844,-0.9372868145158393,-0.2232309597459021,0.4915308356285095,0.1565302908420563,-0.8566771149635315
2020-07-29 15:50:13.392 +0200,78533.91560275,0.63861083984375,0.2068023681640625,-0.808624267578125,78533.89805075001,2.801890178247229,0.5684290177443633,-0.1544838659362894,-2.353221893310547,1.862709283828735,3.693900346755981,0.07215732336044312,-0.1322375684976578,0.1745715141296387,XArbitraryZVertical,0.2880648772367921,0.02574669496380522,-0.9395910442197277,-0.1830966089024628,0.5318980813026428,0.1538701355457306,-0.8327114582061768
2020-07-29 15:50:13.412 +0200,78533.93563775001,0.7344818115234375,0.47015380859375,-0.8765869140625,78533.91808675001,2.891742876276914,0.62078717670218,-0.1558447411641271,-2.670750617980957,1.944728016853333,3.536986112594604,0.08250290155410767,0.08208790421485901,-0.006729423999786377,XArbitraryZVertical,0.3113694312863192,0.03560442529021604,-0.9389635154795335,-0.141876717122552,0.5746262073516846,0.1552146524190903,-0.8035628199577332
2020-07-29 15:50:13.432 +0200,78533.95567275,0.793304443359375,0.3774566650390625,-1.00347900390625,78533.93812175,2.978751726070822,0.6745186703213174,-0.154839415925617,-2.362125635147095,2.081313371658325,3.394738674163818,0.1353969573974609,0.3208498954772949,-0.1053102016448975,XArbitraryZVertical,0.3347538787991576,0.0459116993388092,-0.9356401558094068,-0.1020268675952579,0.6170498728752136,0.1542214453220367,-0.7716639041900635
2020-07-29 15:50:13.452 +0200,78533.97570775001,0.8377685546875,0.26007080078125,-0.987213134765625,78533.95815675,3.056470761258959,0.7275518763055797,-0.1431213256369598,-1.685184478759766,2.034238815307617,3.221581935882568,0.1559369564056396,0.231325700879097,-0.2560316920280457,XArbitraryZVertical,0.3574166693245811,0.05166005030741189,-0.9302415294162005,-0.06507890092558588,0.658243715763092,0.1426332145929337,-0.7391691207885742
2020-07-29 15:50:13.472 +0200,78533.99574275,0.8592681884765625,0.243621826171875,-1.004791259765625,78533.97819175001,3.122559742791965,0.7771885145158524,-0.1198560594376352,-1.127930164337158,2.028002738952637,3.129733800888062,0.1599977016448975,0.1381355226039886,-0.2761640548706055,XArbitraryZVertical,0.378718018619694,0.05182510715058836,-0.9235235552108553,-0.03148237611325772,0.696246862411499,0.1195693016052246,-0.7077736258506775
2020-07-29 15:50:13.492 +0200,78534.01577775,0.9087371826171875,0.3392791748046875,-1.085525512695312,78533.99822675,-3.10326714871831,0.8229765122271947,-0.09039872649066014,-0.9487646818161011,1.933200478553772,2.971750736236572,0.1506955623626709,0.1573922336101532,-0.3182734847068787,XArbitraryZVertical,0.3986984140491132,0.04906101259741377,-0.9157686903352023,-0.0005249284428520129,0.7301795482635498,0.09027565270662308,-0.6772651672363281
2020-07-29 15:50:13.512 +0200,78534.03581275001,0.98272705078125,0.619873046875,-1.060302734375,78534.01826175001,-3.050548861666861,0.8638420073779584,-0.05906377214380269,-0.8448684811592102,1.628278970718384,2.779372930526733,0.1762404441833496,0.3030809462070465,-0.4541125893592834,XArbitraryZVertical,0.4167798605703373,0.04582941034977223,-0.9073893931724056,0.02896109768345512,0.7590177655220032,0.05902943760156631,-0.6483884453773499
2020-07-29 15:50:13.532 +0200,78534.05584875001,0.9437713623046875,0.3774566650390625,-0.9878387451171875,78534.03829675,-3.005976846132504,0.895233360321431,-0.02921671834879069,-0.7194367647171021,1.370994925498962,2.38270902633667,0.2195908427238464,0.5816829800605774,-0.4199171662330627,XArbitraryZVertical,0.430885262299856,0.04246131440662201,-0.8997419711787646,0.05476619380542336,0.7800220251083374,0.02921256236732006,-0.6250698566436768
2020-07-29 15:50:13.552 +0200,78534.07588375,0.895904541015625,0.297821044921875,-0.94921875,78534.05833275001,-2.966012954610024,0.9194983419039235,-0.003691527484429872,-0.9371365308761597,0.9670069217681885,2.080418586730957,0.1632956862449646,0.3612971603870392,-0.3690223693847656,XArbitraryZVertical,0.4418687531674126,0.04055205654690575,-0.8927829402915477,0.07775708167292111,0.7952921986579895,0.003691519144922495,-0.6062150597572327
2020-07-29 15:50:13.572 +0200,78534.09591875,0.8629302978515625,0.300048828125,-0.903717041015625,78534.07836775,-2.924522764035989,0.9348773705013208,0.01370706512198088,-1.32146155834198,0.6126046180725098,1.784794330596924,0.1105981469154358,0.3121397495269775,-0.3426992297172546,XArbitraryZVertical,0.4486020380203098,0.04272659757706371,-0.8871170720232402,0.09976952465374089,0.8044506907463074,-0.01370663568377495,-0.5938612818717957
2020-07-29 15:50:13.592 +0200,78534.11595375001,0.8079681396484375,0.2917022705078125,-0.84228515625,78534.09840275001,-2.880731841609648,0.944044032237336,0.02212517867712641,-1.74823009967804,0.3978596031665802,1.485233068466187,0.06877237558364868,0.3202751278877258,-0.302640974521637,XArbitraryZVertical,0.4520798708633424,0.0493645168618706,-0.882377310613808,0.1208189524527457,0.8097383975982666,-0.02212337404489517,-0.5863738656044006
2020-07-29 15:50:13.612 +0200,78534.13598875,0.6841278076171875,0.20477294921875,-0.6628875732421875,78534.11843775,-2.833666458384738,0.9485416838184809,0.02223925789510243,-2.005828857421875,0.1778071075677872,1.288520455360413,0.01017898321151733,0.3146032691001892,-0.2363618612289429,XArbitraryZVertical,0.4527768485436572,0.06025650432876861,-0.8782695434423191,0.1414386913176653,0.8123654127120972,-0.02223742567002773,-0.5827245712280273
2020-07-29 15:50:13.632 +0200,78534.15602375001,0.64996337890625,0.1552581787109375,-0.574615478515625,78534.13847275001,-2.783923380276506,0.9507901382054146,0.01814635575654004,-2.26803183555603,0.1526777893304825,1.268863797187805,-0.1147286891937256,0.2180206179618835,-0.06443828344345093,XArbitraryZVertical,0.4518067878492488,0.07347352950446087,-0.8741574121834963,0.1622377359568704,0.8137408494949341,-0.0181453600525856,-0.5809445381164551
2020-07-29 15:50:13.655 +0200,78534.17605875,0.645111083984375,0.1099853515625,-0.5099639892578125,78534.15850775001,-2.729535582155006,0.9532178261211082,0.01019122919646391,-2.631627559661865,0.1918632686138153,1.245002388954163,-0.1449851989746094,0.1616608500480652,0.01821482181549072,XArbitraryZVertical,0.4499866070026645,0.08941898496985579,-0.8692742802204476,0.1840613673860886,0.815240740776062,-0.01019105315208435,-0.5790325999259949
2020-07-29 15:50:13.673 +0200,78534.19609375001,0.6671905517578125,0.0276031494140625,-0.4797515869140625,78534.17854275,-2.667163480805897,0.9583608442588868,-0.003244251271875873,-3.361026525497437,0.3777455389499664,1.246758460998535,-0.1545397043228149,0.1033717095851898,0.08097636699676514,XArbitraryZVertical,0.4478020327169194,0.1097444347979484,-0.8626980369214202,0.2078020617911082,0.8182461261749268,0.00324424565769732,-0.5748590230941772
2020-07-29 15:50:13.693 +0200,78534.21612975,0.723236083984375,0.03863525390625,-0.4192962646484375,78534.19857775001,-2.585831214754528,0.9680999490719296,-0.02953193032014935,-4.802606105804443,0.4078754782676697,1.254278659820557,-0.1307330131530762,-0.006484538316726685,0.0970761775970459,XArbitraryZVertical,0.4438817949677801,0.1402127455248748,-0.8529556110589835,0.236169697183268,0.8234509229660034,0.02952763810753822,-0.5666186809539795
2020-07-29 15:50:13.712 +0200,78534.23616475001,0.7979888916015625,0.1283721923828125,-0.2986602783203125,78534.21861375001,-2.481746027059065,0.9813309366853457,-0.06910299399677092,-6.001603126525879,0.3970140516757965,1.294257164001465,-0.08245491981506348,-0.02384743094444275,0.1520825028419495,XArbitraryZVertical,0.4356619765108407,0.181393718289764,-0.8392251889513991,0.2701777497487344,0.8292540907859802,0.06904800981283188,-0.5545899271965027
2020-07-29 15:50:13.732 +0200,78534.25619975,0.8733062744140625,0.240570068359375,-0.1923065185546875,78534.23864875,-2.357527561980114,1.000882215471343,-0.1193822712249865,-7.038758754730225,0.3721257448196411,1.260796904563904,-0.01349174976348877,0.01832464337348938,0.256382942199707,XArbitraryZVertical,0.4226241359295213,0.2313636900442211,-0.8203008135428385,0.3081659637554157,0.8359546661376953,0.1190989017486572,-0.5357193946838379
2020-07-29 15:50:13.753 +0200,78534.27623475001,0.902008056640625,0.3589019775390625,-0.10748291015625,78534.25868375,-2.217651883786606,1.027887825398537,-0.1762221025576816,-7.589278221130371,0.2520459294319153,1.22436785697937,0.05385673046112061,0.07690036296844482,0.335618257522583,XArbitraryZVertical,0.404220655064515,0.2868656980739637,-0.7957882498399143,0.3479006527713024,0.8429496288299561,0.1753114461898804,-0.5086274743080139
2020-07-29 15:50:13.773 +0200,78534.29626975,0.9413909912109375,0.4433746337890625,-0.130615234375,78534.27871875001,-2.070941978922699,1.061700904605801,-0.2316607252291696,-7.531392097473145,0.1627210974693298,1.202630281448364,0.07322251796722412,0.1431114077568054,0.3834309577941895,XArbitraryZVertical,0.3816819509438051,0.3422499642110936,-0.7666095763744096,0.3866439042627011,0.8498597741127014,0.2295942008495331,-0.4743677079677582
2020-07-29 15:50:13.793 +0200,78534.31630475,0.997833251953125,0.5055389404296875,-0.1079864501953125,78534.29875375,-1.925972176912738,1.101519532327462,-0.2798366290202431,-6.951180934906006,0.1472691744565964,1.132960557937622,0.110310435295105,0.1781326532363892,0.3163145780563354,XArbitraryZVertical,0.3575415538615874,0.3934962555174035,-0.734355456788619,0.421956001145979,0.8572013974189758,0.2761986255645752,-0.4346494674682617
2020-07-29 15:50:13.813 +0200,78534.33634075,1.008560180664062,0.5117340087890625,-0.141448974609375,78534.31878875001,-1.792403080165214,1.14416125301846,-0.3173776658609297,-6.174864768981934,0.1732272654771805,1.004387021064758,0.1564978957176208,0.200410783290863,0.2996079325675964,XArbitraryZVertical,0.3345024132400728,0.4376489919026848,-0.7017963880215601,0.4517227411053153,0.8648971915245056,0.3120762705802917,-0.3931429982185364
2020-07-29 15:50:13.833 +0200,78534.35637575001,1.000442504882812,0.533660888671875,-0.3028106689453125,78534.33882475001,-1.675892688077005,1.186162537448105,-0.3439594601723899,-4.867715358734131,0.2404944598674774,0.9032992720603943,0.1562349796295166,0.1863650977611542,0.2251869440078735,XArbitraryZVertical,0.3143647779870908,0.4738711244083395,-0.6712332168941193,0.4754648604802591,0.8726422786712646,0.3372172713279724,-0.353241890668869
2020-07-29 15:50:13.853 +0200,78534.37641075,1.003143310546875,0.5302734375,-0.3571319580078125,78534.35885975001,-1.590011727008716,1.221703002505675,-0.3563157929420571,-3.021040916442871,0.354841560125351,0.8498889803886414,0.1439723372459412,0.1936113238334656,0.01587373018264771,XArbitraryZVertical,0.3013097918230512,0.4989305291947932,-0.6466962805840495,0.4920006425743523,0.8806601166725159,0.3488238155841827,-0.3205614686012268
2020-07-29 15:50:13.873 +0200,78534.39644575001,0.9934539794921875,0.4142303466796875,-0.3455963134765625,78534.37889475,-1.539789686093474,1.247086074359309,-0.3556952240040078,-1.487482786178589,0.4291352331638336,0.7723797559738159,0.1343262791633606,0.1839555203914642,-0.04130589962005615,XArbitraryZVertical,0.2969125179571143,0.5125965088205303,-0.6303272178025384,0.5017722207240869,0.8887174725532532,0.3482421636581421,-0.2981755435466766
2020-07-29 15:50:13.893 +0200,78534.41648075001,1.001724243164062,0.346923828125,-0.37188720703125,78534.39892975001,-1.516173385774685,1.264806025420154,-0.3473466627096762,-0.4273800253868103,0.5368413925170898,0.7127175331115723,0.1183021664619446,0.07381999492645264,-0.0451890230178833,XArbitraryZVertical,0.2990633669316571,0.518591708285365,-0.620397825548437,0.5066856043702052,0.8966024518013,0.3404041230678558,-0.2832474708557129
2020-07-29 15:50:13.913 +0200,78534.43651575,0.9787445068359375,0.3665924072265625,-0.399688720703125,78534.41896475,-1.513257328536138,1.277550188048608,-0.3333521277588746,0.5684905648231506,0.6305407285690308,0.7177459001541138,0.1191554665565491,0.0297139585018158,-0.08249211311340332,XArbitraryZVertical,0.3067601915257493,0.51896417984759,-0.6154083357151904,0.5077864018482448,0.9046114683151245,0.3272124528884888,-0.2731487154960632
2020-07-29 15:50:13.933 +0200,78534.45655075001,0.9479522705078125,0.3408050537109375,-0.371917724609375,78534.43899975001,-1.52944437715301,1.285581905672478,-0.3134354075395793,1.418466925621033,0.6873646378517151,0.7519495487213135,0.0865975022315979,0.06568548083305359,-0.1134864091873169,XArbitraryZVertical,0.3197776030445439,0.5137262819333493,-0.6148814923347347,0.5057156581839041,0.912849485874176,0.3083284795284271,-0.2676551938056946
2020-07-29 15:50:13.953 +0200,78534.47658675001,0.900421142578125,0.3187103271484375,-0.3479156494140625,78534.45903475001,-1.55815675811835,1.291458132258089,-0.2898173027529173,1.787980198860168,0.746253490447998,0.7507741451263428,0.04735523462295532,0.06012991070747375,-0.08796733617782593,XArbitraryZVertical,0.3363308581174476,0.5047485116433214,-0.6171105979300748,0.5012834114018161,0.921150803565979,0.2857771515846252,-0.2642209827899933
2020-07-29 15:50:13.973 +0200,78534.49662175,0.8734130859375,0.316253662109375,-0.34552001953125,78534.47907075001,-1.590640055906862,1.298173670690279,-0.2654440842927237,1.859391927719116,0.8121328949928284,0.7344905734062195,-0.009109079837799072,0.06218516826629639,-0.06954836845397949,XArbitraryZVertical,0.3540401079823292,0.4947138132551439,-0.6198623524650007,0.4956657501776857,0.9293376803398132,0.2623378336429596,-0.2598277032375336
2020-07-29 15:50:13.997 +0200,78534.51665675,0.8715057373046875,0.283111572265625,-0.3573150634765625,78534.49910575,-1.623917973135232,1.307075585566553,-0.2413783839724885,1.857018828392029,0.9071592688560486,0.7313652038574219,-0.04215925931930542,0.08225893974304199,-0.07389813661575317,XArbitraryZVertical,0.3722055171681784,0.4846693545938573,-0.6222875005046332,0.4892002788734857,0.937438428401947,0.2390412837266922,-0.2531173527240753
2020-07-29 15:50:14.013 +0200,78534.53669175001,0.89605712890625,0.2401123046875,-0.40252685546875,78534.51914075001,-1.655459239279818,1.318972450894112,-0.2180939357461593,1.690742015838623,0.9844924211502075,0.7322413921356201,-0.05007278919219971,0.06842890381813049,-0.097728431224823,XArbitraryZVertical,0.3903286568081008,0.4754044565644771,-0.6236368174502382,0.4824016037226452,0.9455183744430542,0.2163691073656082,-0.2432682812213898
2020-07-29 15:50:14.033 +0200,78534.55672675,0.9473724365234375,0.1969146728515625,-0.4408721923828125,78534.53917575,-1.683236751299426,1.333225154973564,-0.1965968632172179,1.449406027793884,0.9957177042961121,0.6826607584953308,-0.03067195415496826,0.04860830307006836,-0.154897153377533,XArbitraryZVertical,0.4074858875095632,0.4674939516226247,-0.6236797151721269,0.475844826640032,0.9531905055046082,0.1953328847885132,-0.2308093160390854
2020-07-29 15:50:14.053 +0200,78534.57676175001,0.9366912841796875,0.2261505126953125,-0.4678802490234375,78534.55921075,-1.706773586775092,1.347842267246518,-0.1775916915647072,1.316559672355652,0.8719613552093506,0.6257184743881226,0.01025772094726562,0.02332371473312378,-0.197368860244751,XArbitraryZVertical,0.4228245285765853,0.4608714295417098,-0.6228424310752806,0.469983265924615,0.9599098563194275,0.1766596585512161,-0.2176338881254196
2020-07-29 15:50:14.073 +0200,78534.59679675,0.9473724365234375,0.167510986328125,-0.4991607666015625,78534.57924575001,-1.725150103066063,1.360616061413885,-0.16184236405508,0.6532251834869385,0.7310582995414734,0.5407962203025818,-0.003842711448669434,0.0608072429895401,-0.2503724694252014,XArbitraryZVertical,0.4353244934300099,0.4555630703244991,-0.6215776965908484,0.4653987159745178,0.9652129411697388,0.1611367613077164,-0.2059097439050674
2020-07-29 15:50:14.095 +0200,78534.61683275001,0.949920654296875,0.2423553466796875,-0.4515380859375,78534.59928075,-1.728609171003152,1.372482040976075,-0.1515570757778739,-0.09221214801073074,0.481703907251358,0.4091055989265442,0.004007875919342041,0.02405749261379242,-0.2850099205970764,XArbitraryZVertical,0.4425654280604191,0.4547049125537307,-0.6179113249216226,0.4642896413513002,0.9691619277000427,0.1509775370359421,-0.1947585642337799
2020-07-29 15:50:14.114 +0200,78534.63686775,0.9529876708984375,0.263641357421875,-0.4345245361328125,78534.61931675,-1.723916419129049,1.379794109526556,-0.1443063449655456,-0.1320208162069321,0.2064475417137146,0.3774695992469788,0.0005365610122680664,0.1080501079559326,-0.2403088808059692,XArbitraryZVertical,0.4456941500606802,0.4554358921977968,-0.6138609717218948,0.4659502703547287,0.9716094136238098,0.1438060253858566,-0.1878697425127029
2020-07-29 15:50:14.133 +0200,78534.65690275001,1.003921508789062,0.248992919921875,-0.42547607421875,78534.63935175001,-1.720857279047136,1.382807935053224,-0.1373399862062256,-0.03824532032012939,0.05464043468236923,0.3663350939750671,0.007306218147277832,0.1281766146421432,-0.2305067181587219,XArbitraryZVertical,0.4477843933376969,0.4548927983943089,-0.6111746692641407,0.4680034427207416,0.9731317758560181,0.1369086354970932,-0.1851233541965485
2020-07-29 15:50:14.156 +0200,78534.67693775,1.042678833007812,0.269378662109375,-0.386383056640625,78534.65938675001,-1.71876645471004,1.382353483027026,-0.1305307026980653,-0.05758307129144669,-0.1366405785083771,0.3370893001556396,0.05656588077545166,0.1216989606618881,-0.2191668152809143,XArbitraryZVertical,0.448988718974258,0.4533664855055596,-0.6095058722744682,0.4705003752316054,0.9739407300949097,0.1301603466272354,-0.1857359260320663
2020-07-29 15:50:14.178 +0200,78534.69697275001,1.06658935546875,0.265960693359375,-0.322479248046875,78534.67942175,-1.715886919144345,1.378094388995568,-0.124413630753265,-0.09973304718732834,-0.3168550729751587,0.320418506860733,0.09438228607177734,0.1498048007488251,-0.1717328429222107,XArbitraryZVertical,0.4486724512732809,0.4513063330598714,-0.6086257486850168,0.4739096312871817,0.9739040732383728,0.1240929141640663,-0.1900312453508377
2020-07-29 15:50:14.194 +0200,78534.71700800001,1.109878540039062,0.245941162109375,-0.2567596435546875,78534.69945675001,-1.712160532044135,1.370941868334283,-0.1186435747655115,-0.1558985859155655,-0.4337931573390961,0.3180553913116455,0.1200575828552246,0.1484957635402679,-0.1022297739982605,XArbitraryZVertical,0.4471993186119307,0.448828737939129,-0.6082470356050986,0.4781224545829492,0.9732055068016052,0.1183654293417931,-0.1971310675144196
2020-07-29 15:50:14.215 +0200,78534.737043,1.140777587890625,0.229248046875,-0.210906982421875,78534.719492,-1.706671560152027,1.361879581928196,-0.1132865315414937,-0.2785383462905884,-0.5357078313827515,0.3213052153587341,0.1643843650817871,0.1343847960233688,-0.02839857339859009,XArbitraryZVertical,0.4446507646773445,0.4463745627250807,-0.6079311860669683,0.4831720742196047,0.9719855785369873,0.113044373691082,-0.2060708999633789
2020-07-29 15:50:14.233 +0200,78534.757079,1.115005493164062,0.2206573486328125,-0.20172119140625,78534.739527,-1.697181471839321,1.351512348201986,-0.1085208516921948,-0.5827816128730774,-0.6076821684837341,0.3410423099994659,0.1945362091064453,0.1228314638137817,0.02552473545074463,XArbitraryZVertical,0.4406715314435749,0.4446155934120697,-0.6070109775605628,0.4895541104912373,0.97031170129776,0.1083079725503922,-0.2162511497735977
2020-07-29 15:50:14.253 +0200,78534.77711400001,1.030059814453125,0.26220703125,-0.205841064453125,78534.759563,-1.679714041383331,1.340218479693445,-0.105644421269182,-1.044213533401489,-0.706623911857605,0.3202434480190277,0.1658952236175537,0.1190146803855896,0.04414480924606323,XArbitraryZVertical,0.4341481721309146,0.4448397170111094,-0.6046185567895981,0.4980657572497891,0.9681069254875183,0.1054480224847794,-0.2272659838199615
2020-07-29 15:50:14.274 +0200,78534.79714900001,0.9709625244140625,0.2651519775390625,-0.219329833984375,78534.77959800001,-1.654475308229989,1.327996282349417,-0.1058165279121331,-1.361364364624023,-0.7679178714752197,0.249912828207016,0.08296895027160645,0.1599548906087875,0.0519750714302063,XArbitraryZVertical,0.4247881524254656,0.4472322268842706,-0.6009259156936566,0.5083565816679955,0.9652392864227295,0.1056191623210907,-0.2390767186880112
2020-07-29 15:50:14.294 +0200,78534.817184,0.9478302001953125,0.2574615478515625,-0.231292724609375,78534.799633,-1.624913100681435,1.315475240759381,-0.1090469574484864,-1.558733463287354,-0.8028782606124878,0.1540329456329346,0.03010731935501099,0.158301442861557,0.04806798696517944,XArbitraryZVertical,0.4134922604723282,0.4511054744317293,-0.5965808360210134,0.5192488886976308,0.9618351459503174,0.1088309660553932,-0.2510560154914856
2020-07-29 15:50:14.314 +0200,78534.83721900001,0.92681884765625,0.2642364501953125,-0.2295684814453125,78534.81966800001,-1.592618146086542,1.302417258903319,-0.1156997289861113,-1.686770796775818,-0.8637682795524597,0.03599031269550323,0.01255732774734497,0.1449547559022903,0.05046373605728149,XArbitraryZVertical,0.4003777838804253,0.4560697487467641,-0.5920597370058065,0.5302483313540086,0.9577555656433105,0.115441769361496,-0.2633960247039795
2020-07-29 15:50:14.334 +0200,78534.857254,0.94671630859375,0.2409820556640625,-0.2168731689453125,78534.83970300001,-1.559782000199247,1.288394137380034,-0.1253439780209291,-1.694899082183838,-0.9240942001342773,-0.07864024490118027,-0.00330585241317749,0.1421293467283249,0.06432515382766724,XArbitraryZVertical,0.3858780156324598,0.4613669811007258,-0.5879067174601217,0.5409293322009623,0.9528543949127197,0.1250160187482834,-0.2764773368835449
2020-07-29 15:50:14.354 +0200,78534.87728900001,0.9732818603515625,0.191131591796875,-0.1758880615234375,78534.859738,-1.526979793143587,1.273582527417898,-0.1376859736576883,-1.834684371948242,-0.9917853474617004,-0.1697407215833664,0.02399897575378418,0.1040232926607132,0.0927538275718689,XArbitraryZVertical,0.3702183146280041,0.4667927986344716,-0.58416128879431,0.551179118364214,0.9471073150634766,0.1372513622045517,-0.2900857627391815
2020-07-29 15:50:14.374 +0200,78534.897325,0.9623260498046875,0.1935882568359375,-0.1180572509765625,78534.87977300001,-1.48945883180361,1.257893462907006,-0.1537482976472551,-2.176930665969849,-1.112570285797119,-0.2431513518095016,0.05594038963317871,0.04048387706279755,0.1483240127563477,XArbitraryZVertical,0.3518892454826715,0.4733693903302795,-0.5796802928294669,0.5621975328420673,0.9402207136154175,0.1531432867050171,-0.3041907548904419
2020-07-29 15:50:14.394 +0200,78534.91736000001,0.94921875,0.2087554931640625,-0.0753936767578125,78534.89980900001,-1.446304834108345,1.241620406513347,-0.1735953147158876,-2.473176002502441,-1.205464243888855,-0.2932109236717224,0.05186814069747925,0.02650652825832367,0.2206938862800598,XArbitraryZVertical,0.3306225432468784,0.4811303254211502,-0.5740529407203933,0.5741650542436549,0.9320861101150513,0.1727247387170792,-0.3184046745300293
2020-07-29 15:50:14.414 +0200,78534.937395,0.959716796875,0.2200927734375,-0.082275390625,78534.919844,-1.398731729618142,1.225892478353714,-0.1965541147790316,-2.688299179077148,-1.235843181610107,-0.3247588574886322,0.04879796504974365,0.019764244556427,0.2742438912391663,XArbitraryZVertical,0.3071227003856685,0.4897730260543225,-0.5671997883821501,0.5865853484336215,0.9229872226715088,0.1952909678220749,-0.3315960466861725
2020-07-29 15:50:14.434 +0200,78534.95743000001,0.9842529296875,0.2386932373046875,-0.0884246826171875,78534.939879,-1.347781678561702,1.211548136532138,-0.2218334201348211,-2.840234279632568,-1.246068120002747,-0.3326748907566071,0.07033467292785645,0.006915554404258728,0.2760646343231201,XArbitraryZVertical,0.2820366298463448,0.498976529502616,-0.559088408895051,0.5990808760644351,0.9132214188575745,0.2200184911489487,-0.3429555296897888
2020-07-29 15:50:14.454 +0200,78534.977465,0.993743896484375,0.24884033203125,-0.09149169921875,78534.95991400001,-1.294884989335229,1.199145552128719,-0.248852889940825,-2.904514312744141,-1.223254203796387,-0.343228667974472,0.1039313077926636,-0.001048341393470764,0.27864670753479,XArbitraryZVertical,0.2559952254162436,0.5084120531704641,-0.5499549198021225,0.6111736494471287,0.9030277729034424,0.2462923526763916,-0.3519672453403473
2020-07-29 15:50:14.474 +0200,78534.9975,0.9931793212890625,0.2620697021484375,-0.088623046875,78534.979949,-1.241935953033971,1.188884001811291,-0.2765829069208083,-2.843173265457153,-1.168278336524963,-0.3471214473247528,0.1241834759712219,-0.01730108261108398,0.2828380465507507,XArbitraryZVertical,0.2298528154747091,0.5175926418810296,-0.5402060864324638,0.6224491195588819,0.8926859498023987,0.2730700373649597,-0.3585310876369476
2020-07-29 15:50:14.494 +0200,78535.017536,0.987274169921875,0.26959228515625,-0.1040191650390625,78534.99998400001,-1.191093809491236,1.180794015535032,-0.3035203198919023,-2.661075115203857,-1.091838359832764,-0.3079003393650055,0.1316131949424744,-0.02971196174621582,0.289685070514679,XArbitraryZVertical,0.2047269701871929,0.5260045575966977,-0.5303166926393672,0.6325901656617599,0.8826308846473694,0.298881471157074,-0.3628121316432953
2020-07-29 15:50:14.514 +0200,78535.03757100001,0.98406982421875,0.2681884765625,-0.1206207275390625,78535.02002000001,-1.144118685610077,1.174651105639235,-0.3280542044986537,-2.388166666030884,-0.9766108989715576,-0.2412798404693604,0.1347260475158691,-0.0444987416267395,0.2757119536399841,XArbitraryZVertical,0.1816760720304239,0.5332449660362159,-0.5206770104466756,0.6415131495035524,0.8733564019203186,0.3222016096115112,-0.3652872145175934
2020-07-29 15:50:14.534 +0200,78535.057606,0.9752960205078125,0.253448486328125,-0.1488037109375,78535.040055,-1.10192573490067,1.170297826252548,-0.3491040959964822,-2.089102268218994,-0.8607253432273865,-0.1487520635128021,0.13861483335495,-0.06661605834960938,0.2592871189117432,XArbitraryZVertical,0.1614014724135127,0.5392305840672262,-0.5115064030736726,0.6492620781325713,0.8653197288513184,0.3420560956001282,-0.3663598895072937
2020-07-29 15:50:14.554 +0200,78535.07764100001,0.953704833984375,0.2334747314453125,-0.166168212890625,78535.06009,-1.064169325779807,1.167455948898063,-0.3660991279347468,-1.836217045783997,-0.7443217635154724,-0.02948997169733047,0.1367321610450745,-0.09729987382888794,0.2314069867134094,XArbitraryZVertical,0.1440488533091325,0.544066696422669,-0.5027051536044409,0.6561470635528044,0.8588037490844727,0.3579758107662201,-0.3664827048778534
2020-07-29 15:50:14.574 +0200,78535.097676,0.9103546142578125,0.223480224609375,-0.183868408203125,78535.08012500001,-1.029813999838255,1.166181650724497,-0.3789575161877103,-1.599618673324585,-0.6339454650878906,0.107591949403286,0.1184366345405579,-0.128622442483902,0.2132361531257629,XArbitraryZVertical,0.1294561543773651,0.5480637712092605,-0.4939844067940066,0.6624550391268881,0.8540338277816772,0.3699521422386169,-0.3657344281673431
2020-07-29 15:50:14.595 +0200,78535.117711,0.8842315673828125,0.2117767333984375,-0.1888885498046875,78535.10016,-0.9991206046677812,1.166156182943292,-0.3871040992708715,-1.324204325675964,-0.5101761221885681,0.2670883238315582,0.07778012752532959,-0.1450430750846863,0.1962644457817078,XArbitraryZVertical,0.1178894566110004,0.5512017027876555,-0.4853842988486813,0.668341888758753,0.851225733757019,0.3775083720684052,-0.3645575046539307
2020-07-29 15:50:14.614 +0200,78535.13774600001,0.8727874755859375,0.1935577392578125,-0.1995086669921875,78535.12019500001,-0.9724541957642507,1.16734031756426,-0.3897035502591915,-1.038268089294434,-0.3783874213695526,0.4640737771987915,0.05279117822647095,-0.159215897321701,0.1891509890556335,XArbitraryZVertical,0.1098065832641798,0.5534989872427754,-0.4768883108597178,0.673913077011548,0.8507513403892517,0.3799142241477966,-0.3631627559661865
2020-07-29 15:50:14.634 +0200,78535.15778200001,0.8905181884765625,0.1793060302734375,-0.220367431640625,78535.14023,-0.9493207819140572,1.169693961141655,-0.3861685543911468,-0.79505854845047,-0.2671423852443695,0.7003457546234131,0.04071831703186035,-0.1746084690093994,0.1764602661132812,XArbitraryZVertical,0.105321320897714,0.5550375326646579,-0.4682178112339108,0.6794209458795202,0.8528348803520203,0.3766418993473053,-0.3616815209388733
2020-07-29 15:50:14.666 +0200,78535.177817,0.90570068359375,0.1572113037109375,-0.218841552734375,78535.16026600001,-0.9285363902087773,1.172941984460029,-0.3763755140969297,-0.6254034638404846,-0.1935310214757919,0.9542124271392822,0.05555558204650879,-0.1813499331474304,0.1548389792442322,XArbitraryZVertical,0.1041069172687491,0.555878631278645,-0.4589366151549807,0.6852282737895793,0.8573644757270813,0.3675521016120911,-0.3603214025497437
2020-07-29 15:50:14.684 +0200,78535.197852,0.9093017578125,0.1427001953125,-0.2025299072265625,78535.180301,-0.9073907816656667,1.176906331857152,-0.3610477310118321,-0.6286571025848389,-0.1794074773788452,1.221613049507141,0.06316852569580078,-0.1890988349914551,0.1571438908576965,XArbitraryZVertical,0.1050936664747203,0.5562691839852865,-0.4482240368861898,0.6918201424087689,0.8638874888420105,0.3532546162605286,-0.359039843082428
2020-07-29 15:50:14.725 +0200,78535.21788700001,0.950836181640625,0.140625,-0.1806488037109375,78535.20033600001,-0.8826983289632442,1.18200766422475,-0.3409962722966276,-0.7633571028709412,-0.1537386029958725,1.516644358634949,0.0590590238571167,-0.1836838126182556,0.1717624664306641,XArbitraryZVertical,0.1071674970302256,0.5566814500255224,-0.4350443488905776,0.699540790109294,0.8720880150794983,0.3344261646270752,-0.3572417795658112
2020-07-29 15:50:14.727 +0200,78535.237922,1.021530151367188,0.144287109375,-0.1501007080078125,78535.220371,-0.852099129167344,1.189020108132243,-0.3163582808173955,-1.010204315185547,-0.1339244246482849,1.856249094009399,0.09472358226776123,-0.1637106239795685,0.1904067993164062,XArbitraryZVertical,0.1097596253497829,0.5575953421674075,-0.4184343036906,0.7084864013854412,0.8819518089294434,0.3111076354980469,-0.3540805280208588
2020-07-29 15:50:14.734 +0200,78535.25795700001,1.110031127929688,0.1663360595703125,-0.12066650390625,78535.24040600001,-0.8133213479807018,1.198184082654437,-0.2870509933886357,-1.365882039070129,-0.1043886318802834,2.229976654052734,0.1558703184127808,-0.1312219500541687,0.2167738080024719,XArbitraryZVertical,0.1122610476043084,0.5593036263016626,-0.3973786212961368,0.7187955795429429,0.8932702541351318,0.2831251323223114,-0.3491538166999817
2020-07-29 15:50:14.754 +0200,78535.27799300001,1.116668701171875,0.198883056640625,-0.111236572265625,78535.26044100001,-0.7642810061472961,1.209415408730855,-0.2533617303410411,-1.848946571350098,-0.09867615252733231,2.591876268386841,0.2306239604949951,-0.07636958360671997,0.2390275597572327,XArbitraryZVertical,0.1138664296991445,0.562045405902888,-0.3709680577495791,0.7304260272639568,0.9055467844009399,0.2506597638130188,-0.3422788083553314
2020-07-29 15:50:14.774 +0200,78535.298028,1.050216674804688,0.2516937255859375,-0.1111907958984375,78535.28047700001,-0.7037620844757406,1.220858787298019,-0.2164467153165289,-2.365233182907104,-0.1669340282678604,2.885860919952393,0.2180249691009521,-0.008050501346588135,0.2407264113426208,XArbitraryZVertical,0.1133299824945139,0.5654525001659529,-0.3388871883465865,0.7433540572684262,0.9174749851226807,0.2147606164216995,-0.3348395824432373
2020-07-29 15:50:14.811 +0200,78535.318063,1.072189331054688,0.3000640869140625,-0.131378173828125,78535.300512,-0.633351017132864,1.231171392332161,-0.1780461761828318,-2.810585737228394,-0.1652043163776398,3.031059265136719,0.1428857445716858,0.08230501413345337,0.2324894666671753,XArbitraryZVertical,0.1101306197605378,0.5691552170577506,-0.3020232491152757,0.756779724305682,0.9279742836952209,0.1771069765090942,-0.327867180109024
2020-07-29 15:50:14.814 +0200,78535.33809800001,1.105361938476562,0.3675689697265625,-0.178863525390625,78535.32054700001,-0.5557097288552594,1.240441824524656,-0.140292634236595,-3.158178567886353,-0.1513809114694595,3.016435146331787,0.1616131663322449,0.1676667779684067,0.2045377492904663,XArbitraryZVertical,0.104184125158634,0.573192791050998,-0.261831627633628,0.7694412313105622,0.9366337060928345,0.1398328840732574,-0.3211913704872131
2020-07-29 15:50:14.834 +0200,78535.358133,1.103347778320312,0.4119110107421875,-0.229034423828125,78535.340582,-0.4745198157697667,1.246976993018536,-0.1053400465093418,-3.306125164031982,-0.184428334236145,2.84638524055481,0.1858062744140625,0.2689682245254517,0.1518233418464661,XArbitraryZVertical,0.09549991484549858,0.5767727355462606,-0.2204291077408268,0.7807842692073509,0.9427720904350281,0.1051453351974487,-0.3164259493350983
2020-07-29 15:50:14.854 +0200,78535.37816800001,1.113052368164062,0.433837890625,-0.2720184326171875,78535.360617,-0.3946838148956162,1.24998901345148,-0.07499403124516445,-3.239119052886963,-0.2207834124565125,2.521356821060181,0.1804128885269165,0.3411627411842346,0.09860718250274658,XArbitraryZVertical,0.08482308946387399,0.5792942307476342,-0.1803975293017124,0.7903669948999948,0.9463138580322266,0.07492375373840332,-0.3144464790821075
2020-07-29 15:50:14.875 +0200,78535.398203,1.152740478515625,0.4366455078125,-0.27545166015625,78535.38065200001,-0.3204122634139924,1.250070873629827,-0.05093160458600305,-3.001187086105347,-0.2365546524524689,2.07842230796814,0.1896976828575134,0.3844434916973114,0.05805802345275879,XArbitraryZVertical,0.07292538002480081,0.5807398109579223,-0.1440292635944311,0.797921565949248,0.9477764368057251,0.05090958625078201,-0.3148463070392609
2020-07-29 15:50:14.895 +0200,78535.41823900001,1.144638061523438,0.3854522705078125,-0.2170562744140625,78535.400687,-0.2551636984954737,1.247990871113345,-0.03385604554809835,-2.620640277862549,-0.2438376098871231,1.589972376823425,0.2304402589797974,0.4026441872119904,0.06011283397674561,XArbitraryZVertical,0.06070546436592067,0.5811983839969832,-0.1130535462323512,0.8035808609968308,0.9478057026863098,0.03384957835078239,-0.317046582698822
2020-07-29 15:50:14.915 +0200,78535.438274,1.022842407226562,0.301422119140625,-0.1621246337890625,78535.420723,-0.2003929600673891,1.244580598626968,-0.02378876703586644,-2.255941867828369,-0.2514837980270386,1.111895680427551,0.2161414623260498,0.3572709858417511,0.1241615414619446,XArbitraryZVertical,0.04868646564844448,0.5808998580322239,-0.08817057397434619,0.8077195927094767,0.9469938278198242,0.02378652431070805,-0.3203699588775635
2020-07-29 15:50:14.935 +0200,78535.45830900001,0.9030609130859375,0.2567901611328125,-0.1469268798828125,78535.44075800001,-0.1548492078468929,1.240549935858585,-0.02024693549494152,-1.937233924865723,-0.2428642213344574,0.7031821608543396,0.09140592813491821,0.2772753536701202,0.1808403730392456,XArbitraryZVertical,0.03674365218222822,0.580125052934175,-0.06880232114773166,0.8107842398132652,0.9457685947418213,0.02024555206298828,-0.3242096602916718
2020-07-29 15:50:14.955 +0200,78535.478344,0.827178955078125,0.269256591796875,-0.1600189208984375,78535.46079300001,-0.1176956572562576,1.237031673427978,-0.02182422557023835,-1.625679612159729,-0.1857623159885406,0.3660705983638763,-0.02403718233108521,0.2347517013549805,0.1963423490524292,XArbitraryZVertical,0.02522484656481538,0.5793113072050377,-0.05423120856895647,0.8129090380415345,0.9445907473564148,0.0218224935233593,-0.3275242447853088
2020-07-29 15:50:14.975 +0200,78535.49837900001,0.789337158203125,0.2765960693359375,-0.174591064453125,78535.480828,-0.08772707232788413,1.234461152215667,-0.02712346151773682,-1.370712757110596,-0.1338615715503693,0.1336876153945923,-0.09799861907958984,0.2440943121910095,0.1854086518287659,XArbitraryZVertical,0.0143284124662971,0.5786540194644222,-0.04359672865186598,0.8142810190046286,0.9436233043670654,0.02712013572454453,-0.3299084305763245
2020-07-29 15:50:14.995 +0200,78535.51841400001,0.7716522216796875,0.259552001953125,-0.1817626953125,78535.50086300001,-0.06336130785691685,1.233104668664455,-0.03445821400516808,-1.183247804641724,-0.08652681112289429,-0.007807580754160881,-0.1333032250404358,0.2415650486946106,0.1714015603065491,XArbitraryZVertical,0.004263705772937609,0.5782950389633317,-0.03579617343030533,0.8150308765520456,0.9429618716239929,0.03445139527320862,-0.331113338470459
2020-07-29 15:50:15.015 +0200,78535.53845000001,0.77276611328125,0.236572265625,-0.237213134765625,78535.520898,-0.04196614748712006,1.232441896958918,-0.04308665363163697,-1.134512186050415,-0.06228884682059288,-0.08534711599349976,-0.1485586166381836,0.2156361043453217,0.1660282611846924,XArbitraryZVertical,-0.00545202320209176,0.578062859514908,-0.02956577012922773,0.815438219046221,0.9424266815185547,0.04307332262396812,-0.33162721991539
2020-07-29 15:50:15.035 +0200,78535.558485,0.7708892822265625,0.2152099609375,-0.2487030029296875,78535.540934,-0.02113605172657943,1.231983327855359,-0.05229312983439438,-1.129605293273926,-0.08621655404567719,-0.08444947004318237,-0.1459006071090698,0.1842948198318481,0.1091634035110474,XArbitraryZVertical,-0.01523355799238107,0.5777639686024999,-0.02372661239984891,0.8157167355643511,0.9418606162071228,0.05226929858326912,-0.3319134712219238
2020-07-29 15:50:15.055 +0200,78535.57852000001,0.7806396484375,0.1759796142578125,-0.253631591796875,78535.560969,0.0005899436438792469,1.231194917664149,-0.06123919084752546,-1.228225588798523,-0.1147427335381508,-0.02552315592765808,-0.1477416157722473,0.1533335447311401,0.09917908906936646,XArbitraryZVertical,-0.02516505586381337,0.5771683205362073,-0.01743769806628509,0.8160511843123248,0.9411201477050781,0.06120092049241066,-0.3324868977069855
2020-07-29 15:50:15.075 +0200,78535.598555,0.7989044189453125,0.1562347412109375,-0.2286834716796875,78535.58100400001,0.02585568125599921,1.230549685617847,-0.06968001331502599,-1.441942453384399,-0.1026684939861298,0.07873914390802383,-0.1355039477348328,0.1052448153495789,0.09588366746902466,XArbitraryZVertical,-0.03589972772314434,0.5764167928320618,-0.009552944587896517,0.8163110012090616,0.9403848648071289,0.06962364166975021,-0.3329097926616669
2020-07-29 15:50:15.095 +0200,78535.61859,0.8047943115234375,0.1695556640625,-0.2444610595703125,78535.601039,0.05688633659995587,1.231223067903028,-0.07769771773241395,-1.745218873023987,-0.04708645865321159,0.2084253430366516,-0.1173268556594849,0.07978928089141846,0.1209679841995239,XArbitraryZVertical,-0.04810632669539644,0.5758870167032237,0.0007820686745087513,0.8161123192659745,0.9400522112846375,0.07761956751346588,-0.3320798575878143
2020-07-29 15:50:15.115 +0200,78535.63862500001,0.7960662841796875,0.1946563720703125,-0.281646728515625,78535.62107400001,0.09393837853676436,1.234097024472553,-0.08463756386927708,-1.935395956039429,0.04208389669656754,0.3618021309375763,-0.1130516529083252,0.08820804953575134,0.09913688898086548,XArbitraryZVertical,-0.06160990470203309,0.5758548114817003,0.01380659246905125,0.8151102936177063,0.9404715895652771,0.08453655242919922,-0.3291909098625183
2020-07-29 15:50:15.135 +0200,78535.65866100001,0.778411865234375,0.229827880859375,-0.339111328125,78535.641109,0.1342924011629116,1.239900643720331,-0.08918758001321471,-1.982291698455811,0.1924251914024353,0.5229734778404236,-0.1232789754867554,0.1097866594791412,0.05579358339309692,XArbitraryZVertical,-0.07514495219745276,0.5766747523093334,0.0287136297583887,0.8130036336726246,0.9419927000999451,0.08906938880681992,-0.3235989212989807
2020-07-29 15:50:15.155 +0200,78535.678696,0.7695770263671875,0.2761077880859375,-0.4102630615234375,78535.66114500001,0.1748673431431423,1.248806036250752,-0.0903456390876568,-1.84266209602356,0.3444056808948517,0.6575676798820496,-0.1446653604507446,0.1442906260490417,-0.01119685173034668,XArbitraryZVertical,-0.08749453456228198,0.5785865708075024,0.04447459974316365,0.8096939827848328,0.9447386860847473,0.09022278338670731,-0.3151645660400391
2020-07-29 15:50:15.175 +0200,78535.69873100001,0.7740631103515625,0.329345703125,-0.505645751953125,78535.68118,0.2100720430718538,1.260369973466578,-0.08703935627213616,-1.320197224617004,0.4898329377174377,0.739237368106842,-0.1562135219573975,0.1973235905170441,-0.09081947803497314,XArbitraryZVertical,-0.09668041937926944,0.5818064635412589,0.05912788626159876,0.8053930267755426,0.9485987424850464,0.08692950010299683,-0.3043082654476166
2020-07-29 15:50:15.195 +0200,78535.718767,0.764129638671875,0.305145263671875,-0.586090087890625,78535.70121500001,0.2332801598637848,1.273516449276202,-0.07806609094921944,-0.5716764330863953,0.6193376183509827,0.8059452176094055,-0.1557677388191223,0.2539457380771637,-0.2043780088424683,XArbitraryZVertical,-0.1003058993314929,0.586450806478411,0.07045286781123739,0.8006563185827531,0.953224778175354,0.07798682153224945,-0.2920283675193787
2020-07-29 15:50:15.217 +0200,78535.73880200001,0.786102294921875,0.243896484375,-0.652557373046875,78535.72125100001,0.2409642820632216,1.287856340157177,-0.06307812015193144,0.2366128712892532,0.7569133043289185,0.8383429646492004,-0.1721000671386719,0.2398149371147156,-0.2935657501220703,XArbitraryZVertical,-0.09715586446760863,0.5926621187174489,0.07728024842163256,0.7958266396353255,0.9583290815353394,0.06303630024194717,-0.2786247134208679
2020-07-29 15:50:15.235 +0200,78535.758837,0.83642578125,0.2008209228515625,-0.720703125,78535.741286,0.234203864461395,1.303977045693087,-0.04379756091411954,0.8960737586021423,0.8682544827461243,0.8172457814216614,-0.1510234475135803,0.1973498165607452,-0.3757144212722778,XArbitraryZVertical,-0.08816073494968188,0.600434675825155,0.07965155646352762,0.7907980408307718,0.963689386844635,0.04378356039524078,-0.2634117603302002
2020-07-29 15:50:15.255 +0200,78535.77887200001,0.86016845703125,0.148590087890625,-0.7395782470703125,78535.761321,0.2167784740872412,1.320704575137507,-0.02326926206049557,1.255093932151794,0.8391810655593872,0.7147822380065918,-0.1062959432601929,0.1749468445777893,-0.4576714038848877,XArbitraryZVertical,-0.07548546763811842,0.6087602374076474,0.07833535490330634,0.7858602750707211,0.9686273336410522,0.02326716296374798,-0.247425839304924
2020-07-29 15:50:15.279 +0200,78535.79890800001,0.9033966064453125,0.0977020263671875,-0.7091064453125,78535.78135600001,0.1946967715081324,1.336289022189559,-0.004548296879215985,1.280834317207336,0.7377780079841614,0.5629323124885559,-0.08789694309234619,0.1416196525096893,-0.4880242347717285,XArbitraryZVertical,-0.06199162365980465,0.6164222102532978,0.0748927429103951,0.7813909017984898,0.9726188778877258,0.004548280965536833,-0.2323613911867142
2020-07-29 15:50:15.295 +0200,78535.81894300001,1.029434204101562,0.06390380859375,-0.637725830078125,78535.80139200001,0.1736247332195245,1.3496444161009,0.01017815477146741,1.080570220947266,0.5880281925201416,0.3940054774284363,-0.04389488697052002,0.1055262684822083,-0.4684079885482788,XArbitraryZVertical,-0.05020930007848401,0.6227422363806376,0.07086613273992953,0.7775918884731536,0.9755948781967163,-0.0101779792457819,-0.2193422615528107
2020-07-29 15:50:15.315 +0200,78535.838978,1.168655395507812,0.045166015625,-0.561004638671875,78535.821427,0.1575801361507695,1.36000097697504,0.02027560171598936,0.6680734753608704,0.4152108728885651,0.2600297331809998,0.0856020450592041,0.08221909403800964,-0.4042115211486816,XArbitraryZVertical,-0.04163060324404999,0.6274309042750317,0.06755316751565349,0.774618578742075,0.9776638150215149,-0.0202742125838995,-0.2091947048902512
2020-07-29 15:50:15.335 +0200,78535.85901300001,1.259765625,0.0647735595703125,-0.4954071044921875,78535.84146200001,0.1506253107180975,1.366093346407161,0.02592569705348151,0.1072912439703941,0.1657288670539856,0.1479605883359909,0.2201058864593506,0.07019776105880737,-0.3330259323120117,XArbitraryZVertical,-0.03745945685263236,0.630073617269588,0.06651460369943102,0.7727741658885694,0.9787924289703369,-0.02592279203236103,-0.2032080590724945
2020-07-29 15:50:15.355 +0200,78535.879048,1.334548950195312,0.126007080078125,-0.40386962890625,78535.86149700001,0.1533644262489354,1.366859296436012,0.02713979405984159,-0.2891554534435272,-0.06891026347875595,0.01743169128894806,0.3100730776786804,0.0971997082233429,-0.2663199305534363,XArbitraryZVertical,-0.03787854629625603,0.6303485867628709,0.06793990553306001,0.7724053604663972,0.9789161682128906,-0.02713646180927753,-0.2024517506361008
2020-07-29 15:50:15.376 +0200,78535.89908300001,1.30712890625,0.1504974365234375,-0.379791259765625,78535.881532,0.1621851551047233,1.363103393910876,0.02425489612049014,-0.6233896017074585,-0.2845091223716736,-0.1173820495605469,0.3830010890960693,0.1506451964378357,-0.1745999455451965,XArbitraryZVertical,-0.041641553700698,0.6286452308831642,0.07051753727908366,0.773368225802143,0.9782214164733887,-0.02425251714885235,-0.2061423063278198
2020-07-29 15:50:15.395 +0200,78535.919119,1.156387329101562,0.20599365234375,-0.38592529296875,78535.90156700001,0.1761148439485141,1.354689784728201,0.01713134453771071,-0.851086437702179,-0.5263774394989014,-0.2964828908443451,0.3479804992675781,0.1700639128684998,-0.1461607217788696,XArbitraryZVertical,-0.04846581330173766,0.624862074510388,0.07387412855722547,0.7757197365834841,0.9765964150428772,-0.01713050715625286,-0.2143969088792801
2020-07-29 15:50:15.416 +0200,78535.93915400001,0.9608917236328125,0.22198486328125,-0.381622314453125,78535.92160300001,0.1919309282791959,1.341834781709934,0.004921378809311806,-0.9471562504768372,-0.7271797657012939,-0.5592491030693054,0.1931036710739136,0.2145792245864868,-0.1409347653388977,XArbitraryZVertical,-0.05765201194934283,0.6190270434791536,0.07657234607049573,0.7794987895317717,0.9738907814025879,-0.00492135901004076,-0.22696353495121
2020-07-29 15:50:15.436 +0200,78535.959189,0.820159912109375,0.1952667236328125,-0.367156982421875,78535.941638,0.2082656733979204,1.32590184750717,-0.0138959751790338,-1.073519825935364,-0.8661280870437622,-0.891696572303772,0.002801418304443359,0.2071309089660645,-0.1200615167617798,XArbitraryZVertical,-0.06941732909135492,0.6115275724960898,0.07767223197869338,0.7843354990664608,0.9700691699981689,0.01389552839100361,-0.2424305230379105
2020-07-29 15:50:15.455 +0200,78535.97922400001,0.849517822265625,0.1753387451171875,-0.329193115234375,78535.961673,0.2243631465323629,1.308050636536997,-0.04004049443142738,-1.106554508209229,-0.9382871985435486,-1.222480058670044,-0.125080943107605,0.1542286276817322,-0.08929997682571411,XArbitraryZVertical,-0.08388096519702296,0.6026620886832101,0.07672483219512577,0.7898579322016837,0.9649063944816589,0.04002979770302773,-0.259524792432785
2020-07-29 15:50:15.475 +0200,78535.999259,0.9962921142578125,0.171905517578125,-0.3148193359375,78535.98170800001,0.2372609730840494,1.290806572237368,-0.07146672637646898,-0.9505855441093445,-0.839102029800415,-1.424511432647705,-0.07712388038635254,0.1050165593624115,-0.03341585397720337,XArbitraryZVertical,-0.09948518249203825,0.5935339160637523,0.0731475964111219,0.7952795616226352,0.9586049914360046,0.07140590250492096,-0.2756403684616089
2020-07-29 15:50:15.496 +0200,78536.019294,1.130905151367188,0.197967529296875,-0.3474578857421875,78536.001743,0.24533015574493,1.275378025828605,-0.1041733886899346,-0.7394652366638184,-0.7821775078773499,-1.462486505508423,0.07658803462982178,0.07109498977661133,-0.008298039436340332,XArbitraryZVertical,-0.1142627149939349,0.5849471440710986,0.06741547188740127,0.8001474926396424,0.9514941573143005,0.103985071182251,-0.2895617485046387
2020-07-29 15:50:15.516 +0200,78536.03933,1.25018310546875,0.23101806640625,-0.3218536376953125,78536.02177800001,0.2485539505472079,1.260069728553158,-0.1356635360115833,-0.5134134888648987,-0.7956496477127075,-1.436713695526123,0.2204611301422119,0.0687311589717865,-0.02910393476486206,XArbitraryZVertical,-0.127208491873289,0.5764957940427234,0.06030202642562882,0.8048814440186881,0.9433633685112,0.1352477818727493,-0.3029412031173706
2020-07-29 15:50:15.536 +0200,78536.05936500001,1.23095703125,0.221099853515625,-0.26861572265625,78536.04181400001,0.2493018324375784,1.243572875989419,-0.1656285577615621,-0.5355962514877319,-0.8841821551322937,-1.378344774246216,0.3430806994438171,0.07004094123840332,0.01421517133712769,XArbitraryZVertical,-0.1388876981447901,0.5676283843677262,0.0529032492915904,0.8097588708977589,0.9339794516563416,0.1648723185062408,-0.3170164525508881
2020-07-29 15:50:15.556 +0200,78536.0794,1.131607055664062,0.1992340087890625,-0.224395751953125,78536.06184900001,0.2522201247135255,1.224747398292298,-0.1952340112632522,-0.7142412066459656,-1.036290645599365,-1.316078424453735,0.3249791860580444,0.03009107708930969,0.08424293994903564,XArbitraryZVertical,-0.1510718205469739,0.5575010037133714,0.04685337922361166,0.8149690553038199,0.9228485822677612,0.1939961016178131,-0.3327398598194122
2020-07-29 15:50:15.576 +0200,78536.09943500001,1.071334838867188,0.1721649169921875,-0.24090576171875,78536.081884,0.2588865459948899,1.204727466155685,-0.224907968590032,-0.9281501770019531,-1.089745879173279,-1.236523032188416,0.2383573651313782,-0.0200728178024292,0.1412400007247925,XArbitraryZVertical,-0.1643680650680192,0.5463669882837581,0.04264227965202083,0.8201511565322128,0.9102250933647156,0.2230166494846344,-0.3489325046539307
2020-07-29 15:50:15.596 +0200,78536.11947000001,0.972625732421875,0.1450653076171875,-0.2116851806640625,78536.10191900001,0.270407079953773,1.185109917277024,-0.2556014562325601,-1.249297738075256,-1.143941760063171,-1.215292572975159,0.192832887172699,-0.07793524861335754,0.1373594999313354,XArbitraryZVertical,-0.1794246027235785,0.5346215658110779,0.04036961495355984,0.8248375616191096,0.8964384794235229,0.252827376127243,-0.3639732003211975
2020-07-29 15:50:15.616 +0200,78536.139505,0.862152099609375,0.1250152587890625,-0.14337158203125,78536.121954,0.2877920007927517,1.16690738017398,-0.2890870592358801,-1.575612306594849,-1.117705106735229,-1.236398458480835,0.1047382950782776,-0.1330810189247131,0.1842509508132935,XArbitraryZVertical,-0.1971455066960325,0.5222918626010254,0.03989524972881026,0.8287057113831072,0.8813828229904175,0.2850772738456726,-0.3766897320747375
2020-07-29 15:50:15.636 +0200,78536.159541,0.823455810546875,0.1493682861328125,-0.15362548828125,78536.14198900001,0.3106914641004119,1.152883250836976,-0.3258844513495042,-1.860091090202332,-0.9626215696334839,-1.248419165611267,0.01227128505706787,-0.1868731677532196,0.2593994140625,XArbitraryZVertical,-0.2175835917550138,0.510304668118804,0.04064806249996555,0.8310199335156312,0.865835428237915,0.3201467990875244,-0.3844930529594421
2020-07-29 15:50:15.656 +0200,78536.17957600001,0.8200836181640625,0.1797943115234375,-0.16314697265625,78536.162025,0.3368995773623461,1.143982508556482,-0.3638009446979749,-1.927734017372131,-0.8113489747047424,-1.180000901222229,-0.006863594055175781,-0.196875125169754,0.2466510534286499,XArbitraryZVertical,-0.2392066949536539,0.499340456419806,0.04210616858483224,0.8316648475355805,0.8507119417190552,0.3558289706707001,-0.3868785202503204
2020-07-29 15:50:15.676 +0200,78536.199611,0.8296966552734375,0.1972808837890625,-0.1770477294921875,78536.18206000001,0.3646958383364165,1.139293504046548,-0.4004437358582087,-1.911718010902405,-0.6945083737373352,-1.072359681129456,0.00465857982635498,-0.198611706495285,0.2360067367553711,XArbitraryZVertical,-0.2605527260228244,0.4894260307474013,0.04416533283908858,0.8310378199719064,0.8364778757095337,0.3898270130157471,-0.3851488828659058
2020-07-29 15:50:15.696 +0200,78536.219646,0.8480682373046875,0.19781494140625,-0.161712646484375,78536.202095,0.3938224851837973,1.138129204663636,-0.435081733956235,-1.965669989585876,-0.613444983959198,-0.9481984376907349,0.02747702598571777,-0.2157343029975891,0.2171242237091064,XArbitraryZVertical,-0.2812376421184925,0.4804062917263055,0.04687394242659249,0.8294081692632316,0.8232712149620056,0.4214845299720764,-0.3802303671836853
2020-07-29 15:50:15.716 +0200,78536.23968100001,0.861114501953125,0.21173095703125,-0.12921142578125,78536.22213000001,0.4254663644892105,1.140204225088401,-0.4674767942575064,-1.957882165908813,-0.5587963461875916,-0.790474534034729,0.05763602256774902,-0.2399786412715912,0.2283344864845276,XArbitraryZVertical,-0.3014426413306599,0.4720382922577782,0.05071828623447738,0.8268856391997386,0.8112207055091858,0.4506352245807648,-0.3726243674755096
2020-07-29 15:50:15.736 +0200,78536.259716,0.8735809326171875,0.2214508056640625,-0.1300811767578125,78536.242165,0.4595022141761347,1.145470582025259,-0.4966168068307941,-1.972452878952026,-0.4895980954170227,-0.5966906547546387,0.07979220151901245,-0.2539986371994019,0.2495002746582031,XArbitraryZVertical,-0.3207504721141831,0.4644702184548007,0.05583530981289786,0.823570800692434,0.8008666038513184,0.4764537811279297,-0.3627730906009674
2020-07-29 15:50:15.756 +0200,78536.279752,0.8913421630859375,0.2491912841796875,-0.1829376220703125,78536.26220000001,0.4946506675695658,1.153690484329683,-0.5210929899313789,-1.814558148384094,-0.394308865070343,-0.3694640398025513,0.09999656677246094,-0.2613483071327209,0.2370406985282898,XArbitraryZVertical,-0.3383635394921018,0.4580790925156907,0.06205235133297926,0.8196481939131106,0.792919933795929,0.4978283643722534,-0.3513473272323608
2020-07-29 15:50:15.776 +0200,78536.29978700001,0.9154205322265625,0.2702484130859375,-0.2661895751953125,78536.282236,0.5301110445764123,1.164354112640366,-0.5404534354882798,-1.725329637527466,-0.3463245332241058,-0.1831537932157516,0.1255074739456177,-0.2523389458656311,0.1655436158180237,XArbitraryZVertical,-0.3539994081615013,0.452974143343488,0.0692137393420777,0.8152964519211745,0.7876196503639221,0.5145248770713806,-0.3389976918697357
2020-07-29 15:50:15.796 +0200,78536.319822,0.9358367919921875,0.2843475341796875,-0.2666168212890625,78536.30227100001,0.5639535762659442,1.175112143892822,-0.5547003083671268,-1.47808301448822,-0.3425460457801819,-0.001363833784125745,0.1517729759216309,-0.2417759895324707,0.07425320148468018,XArbitraryZVertical,-0.3672399638791037,0.448677774867466,0.07695514387805363,0.8111109254552785,0.7843769192695618,0.5266885757446289,-0.3276461362838745
2020-07-29 15:50:15.816 +0200,78536.339857,0.9658966064453125,0.2788848876953125,-0.2462310791015625,78536.322306,0.5941650606463409,1.184079545552003,-0.5635654598683766,-1.226475954055786,-0.3608374297618866,0.152522936463356,0.1738773584365845,-0.236687183380127,0.07048475742340088,XArbitraryZVertical,-0.3775522607236618,0.4450184719705701,0.08495012401341256,0.8075867654225535,0.7829282879829407,0.5342036485671997,-0.3188256919384003
2020-07-29 15:50:15.836 +0200,78536.35989200001,0.984893798828125,0.2931365966796875,-0.2369232177734375,78536.34234100001,0.6202376443278913,1.190700237480048,-0.5674304045947094,-0.9453981518745422,-0.3794694542884827,0.311724990606308,0.2043964862823486,-0.2451962232589722,0.08430927991867065,XArbitraryZVertical,-0.3850062532323161,0.4419691794761877,0.09307381185859798,0.8048420408812743,0.7830987572669983,0.5374669432640076,-0.3128668665885925
2020-07-29 15:50:15.856 +0200,78536.379927,0.9998931884765625,0.2925872802734375,-0.2554779052734375,78536.362376,0.6412699361198153,1.193958784122401,-0.5663267548669624,-0.6726008057594299,-0.4202989041805267,0.440906822681427,0.2203091979026794,-0.2308754920959473,0.08970588445663452,XArbitraryZVertical,-0.3894091301795998,0.4394255160443651,0.1012202484388908,0.8031314340248504,0.784665048122406,0.536535918712616,-0.3105314970016479
2020-07-29 15:50:15.878 +0200,78536.399963,1.056640625,0.300048828125,-0.2771453857421875,78536.382411,0.6572280069643436,1.193777399662408,-0.5611786905328505,-0.3767682611942291,-0.445866584777832,0.5207304358482361,0.2345007061958313,-0.2271641492843628,0.07128632068634033,XArbitraryZVertical,-0.3910874742227639,0.4372725589331584,0.1091672697665577,0.802449866655738,0.7871665358543396,0.5321844816207886,-0.3116866052150726
2020-07-29 15:50:15.896 +0200,78536.419998,1.086196899414062,0.292572021484375,-0.2736053466796875,78536.402447,0.6669789391508207,1.189652206069916,-0.5525398695459114,-0.07296308130025864,-0.4902665317058563,0.5888366103172302,0.2887097001075745,-0.2119526267051697,0.05412071943283081,XArbitraryZVertical,-0.3899481819688185,0.435460271300433,0.1164099485388097,0.8029716334959247,0.7901121973991394,0.5248508453369141,-0.3166295289993286
2020-07-29 15:50:15.916 +0200,78536.44003300001,1.013870239257812,0.26495361328125,-0.2635650634765625,78536.42248200001,0.6709721166564323,1.18115552025929,-0.5409246887228796,0.1758195608854294,-0.563987135887146,0.6099550127983093,0.3117607831954956,-0.2107410430908203,0.0698857307434082,XArbitraryZVertical,-0.386213580266024,0.4336202029059474,0.1230411537531101,0.8047815731436894,0.7929794192314148,0.5149288773536682,-0.3256251811981201
2020-07-29 15:50:15.936 +0200,78536.460068,0.852203369140625,0.2181396484375,-0.2742462158203125,78536.442517,0.6709133766050033,1.168941345703639,-0.527816649834093,0.3218127191066742,-0.659932553768158,0.5801284313201904,0.2297176718711853,-0.2285135090351105,0.09040373563766479,XArbitraryZVertical,-0.3807783957606941,0.4313457151834673,0.129142364748041,0.8076329250966843,0.7950872778892517,0.5036483407020569,-0.3378973603248596
2020-07-29 15:50:15.956 +0200,78536.48010300001,0.7887420654296875,0.166229248046875,-0.33648681640625,78536.46255200001,0.668609718713049,1.15368171187495,-0.515151403979017,0.3577567338943481,-0.7487545609474182,0.4937551021575928,0.06612461805343628,-0.2663528025150299,0.08983385562896729,XArbitraryZVertical,-0.3747395672553189,0.4281320764563597,0.1347109093373822,0.811249711761906,0.7956070899963379,0.4926666021347046,-0.352546364068985
2020-07-29 15:50:15.976 +0200,78536.500138,0.992523193359375,0.14373779296875,-0.2906494140625,78536.48258700001,0.6663792844008802,1.141675468483036,-0.4985802986856127,0.4345588386058807,-0.716039776802063,0.4012094438076019,0.01303315162658691,-0.300726056098938,0.0466228723526001,XArbitraryZVertical,-0.3674410290679756,0.4269392473527321,0.140717758996539,0.814191899718836,0.7986319065093994,0.4781791567802429,-0.3654199242591858
2020-07-29 15:50:15.996 +0200,78536.520174,1.217666625976562,0.1501312255859375,-0.252288818359375,78536.502622,0.6649089958491388,1.132792755167795,-0.482931360438572,0.2828403115272522,-0.5633141398429871,0.4579598903656006,0.2275946736335754,-0.3100875914096832,0.1025564074516296,XArbitraryZVertical,-0.360779902003365,0.4266428546794356,0.1461215661968993,0.8163713258885272,0.8020334243774414,0.4643772840499878,-0.3756274878978729
2020-07-29 15:50:16.016 +0200,78536.540209,1.239730834960938,0.153717041015625,-0.259552001953125,78536.522658,0.6666086067123834,1.122693116978208,-0.4721986302533947,0.03342434018850327,-0.5285428762435913,0.5809497237205505,0.4430476427078247,-0.2933568358421326,0.1497419476509094,XArbitraryZVertical,-0.3564463632780852,0.4242913590489765,0.1516114817813877,0.8184966401814797,0.8026448488235474,0.4548454284667969,-0.3858456611633301
2020-07-29 15:50:16.037 +0200,78536.56024400001,1.137115478515625,0.1179962158203125,-0.278076171875,78536.54269300001,0.6745310516971883,1.115427170526899,-0.461195466427086,-0.1749210059642792,-0.5416437387466431,0.7091547846794128,0.4493083953857422,-0.281450629234314,0.1482380032539368,XArbitraryZVertical,-0.3534966127614065,0.4220400561355111,0.1591829212119859,0.8195016688256225,0.8042663335800171,0.4450189769268036,-0.3938446640968323
2020-07-29 15:50:16.056 +0200,78536.580279,1.064483642578125,0.083038330078125,-0.2848052978515625,78536.562728,0.6877774723738791,1.110875555128846,-0.4498485429762699,-0.4139931201934814,-0.4872339963912964,0.8260973691940308,0.3431551456451416,-0.3093356192111969,0.1351075172424316,XArbitraryZVertical,-0.3517151678850491,0.4200451113045864,0.1685283195475177,0.8194246313507394,0.8069385290145874,0.4348291456699371,-0.3997170925140381
2020-07-29 15:50:16.076 +0200,78536.60031400001,0.9995269775390625,0.089691162109375,-0.3105926513671875,78536.582763,0.7081330185522773,1.11038040464303,-0.4396230389899773,-0.786865234375,-0.4427986145019531,0.8937981128692627,0.2693432569503784,-0.3324800431728363,0.1315448880195618,XArbitraryZVertical,-0.3521593117532831,0.4182680917002489,0.1797452601751252,0.8177574373570927,0.8106816411018372,0.4255983829498291,-0.4020712375640869
2020-07-29 15:50:16.096 +0200,78536.620349,0.9227752685546875,0.110504150390625,-0.327545166015625,78536.60279800001,0.7359537656914794,1.113353628067243,-0.4314707849253097,-1.072666168212891,-0.4382736384868622,0.9588037133216858,0.1999383568763733,-0.3162816166877747,0.1025363206863403,XArbitraryZVertical,-0.3552416487524333,0.4161901869064956,0.1928015073331087,0.8145039256493267,0.8149593472480774,0.4182072579860687,-0.4011782109737396
2020-07-29 15:50:16.116 +0200,78536.64038500001,0.8726959228515625,0.113250732421875,-0.2970733642578125,78536.622833,0.7679219133695913,1.117997371331523,-0.4234558797935433,-1.169243931770325,-0.4108990132808685,1.04408848285675,0.1177148818969727,-0.2889934778213501,0.0881425142288208,XArbitraryZVertical,-0.3594157034595468,0.4140034124478957,0.2071503600054286,0.8102532022033484,0.819801390171051,0.4109135270118713,-0.3988430500030518
2020-07-29 15:50:16.137 +0200,78536.66042,0.87359619140625,0.1260528564453125,-0.271881103515625,78536.642869,0.8018087420995376,1.124172317013381,-0.4136850930358716,-1.181815981864929,-0.3423202037811279,1.198836207389832,0.06511056423187256,-0.2787272930145264,0.1161046624183655,XArbitraryZVertical,-0.3635467099510228,0.4124190900679288,0.2223962694479087,0.8051609428609234,0.825830340385437,0.401986300945282,-0.3954885601997375
2020-07-29 15:50:16.157 +0200,78536.68045500001,0.8809967041015625,0.14837646484375,-0.2371368408203125,78536.66290400001,0.8373460379257687,1.131485544456838,-0.4001168559865205,-1.187982439994812,-0.3343938589096069,1.427242040634155,0.06101727485656738,-0.2529140114784241,0.1356541514396667,XArbitraryZVertical,-0.3668541960534398,0.4117727409217138,0.239033909986888,0.7992020726844034,0.8335604667663574,0.389525979757309,-0.3917224109172821
2020-07-29 15:50:16.177 +0200,78536.70049,0.894683837890625,0.1441802978515625,-0.2196197509765625,78536.68293900001,0.8754887473042052,1.139431564677015,-0.3824113304727271,-1.279150009155273,-0.3308422565460205,1.652926325798035,0.05974322557449341,-0.2148506641387939,0.1676095724105835,XArbitraryZVertical,-0.3694178259140389,0.4117955804925517,0.2575975434830688,0.7922110481171032,0.8427802920341492,0.3731586933135986,-0.3879097402095795
2020-07-29 15:50:16.197 +0200,78536.7205255,0.8903961181640625,0.1165618896484375,-0.20068359375,78536.702974,0.9184855873432098,1.148159922790911,-0.3621633292796559,-1.543082237243652,-0.3727593421936035,1.843085169792175,0.06272006034851074,-0.2027972340583801,0.1782582402229309,XArbitraryZVertical,-0.3723418357840071,0.4118028918262381,0.2784554679804371,0.7837362581973171,0.8528509736061096,0.3542980551719666,-0.3835598826408386
2020-07-29 15:50:16.223 +0200,78536.74056050001,0.89617919921875,0.1359100341796875,-0.176116943359375,78536.7230095,0.9688933411197629,1.15752710863513,-0.3409544937456001,-1.938061714172363,-0.418929785490036,1.99906587600708,0.04746139049530029,-0.2102572321891785,0.1946867704391479,XArbitraryZVertical,-0.3767312250686272,0.4108891474214242,0.3020998340334287,0.7732911970611663,0.8630948066711426,0.334386795759201,-0.3784873783588409
2020-07-29 15:50:16.237 +0200,78536.76059650001,0.9009552001953125,0.183349609375,-0.1384429931640625,78536.74304450001,1.02825627790518,1.168144053319661,-0.320400403572326,-2.389383792877197,-0.4416774213314056,2.100120306015015,0.04484635591506958,-0.1678836941719055,0.2139884829521179,XArbitraryZVertical,-0.3835741186793287,0.4085486067737322,0.3284085456766614,0.7603332600073307,0.873204231262207,0.3149466216564178,-0.3719178736209869
2020-07-29 15:50:16.257 +0200,78536.78063150001,0.9165496826171875,0.2257843017578125,-0.1132049560546875,78536.76308050001,1.096147741209393,1.180290247469363,-0.300946841427332,-2.790748119354248,-0.4077231884002686,2.173768520355225,0.04029422998428345,-0.1035178303718567,0.2420015335083008,XArbitraryZVertical,-0.3929831499104831,0.4047098742772751,0.3568214045181231,0.7446157906263595,0.8831562995910645,0.2964246273040771,-0.3635483086109161
2020-07-29 15:50:16.277 +0200,78536.8006665,0.9534149169921875,0.2652130126953125,-0.0991973876953125,78536.7831155,1.170630353722862,1.194242911348059,-0.2821513293400412,-3.095864295959473,-0.3326795697212219,2.22668719291687,0.04706841707229614,-0.04385542869567871,0.2572891712188721,XArbitraryZVertical,-0.4044650781598407,0.3997740053074276,0.3864252688797434,0.7261295732511394,0.8931664824485779,0.2784225642681122,-0.3531774878501892
2020-07-29 15:50:16.297 +0200,78536.82070150001,0.98992919921875,0.301910400390625,-0.1342620849609375,78536.80315050001,1.249937863092257,1.210005781480199,-0.2635444873143984,-3.325134038925171,-0.2354103028774261,2.257346153259277,0.07507145404815674,0.01329916715621948,0.2557666301727295,XArbitraryZVertical,-0.4175255324306483,0.3940301427538223,0.4164449630459094,0.7049724838229666,0.9033136367797852,0.260504275560379,-0.3408253490924835
2020-07-29 15:50:16.317 +0200,78536.8407365,1.001068115234375,0.343048095703125,-0.1457366943359375,78536.8231855,1.331420538145029,1.226264297216424,-0.2439922081221906,-3.368176460266113,-0.191959485411644,2.289638757705688,0.09971332550048828,0.06930038332939148,0.208878219127655,XArbitraryZVertical,-0.4310315937155905,0.3877313500892438,0.4462901316803185,0.6816900018536807,0.9133554697036743,0.2415785044431686,-0.3277523219585419
2020-07-29 15:50:16.337 +0200,78536.86077150001,1.004196166992188,0.3714141845703125,-0.160064697265625,78536.8432205,1.411844820843295,1.241565564969604,-0.2226165064117585,-3.281188726425171,-0.1396182626485825,2.300038814544678,0.1008757352828979,0.1304834336042404,0.186724841594696,XArbitraryZVertical,-0.4437769864315976,0.3813051139301328,0.4752614461900629,0.6571110858536163,0.9229398369789124,0.2207823097705841,-0.3153367936611176
2020-07-29 15:50:16.357 +0200,78536.8808075,1.002243041992188,0.39361572265625,-0.188873291015625,78536.86325550001,1.488435797581976,1.255451166384534,-0.1990125482484978,-3.029798269271851,-0.08092565089464188,2.297928810119629,0.09506940841674805,0.1797352284193039,0.1588256359100342,XArbitraryZVertical,-0.4550174677106116,0.3754298313836336,0.5026303452577994,0.6319607025930039,0.9319249987602234,0.1977014690637589,-0.3040230870246887
