loggingTime(txt),accelerometerTimestamp_sinceReboot(s),accelerometerAccelerationX(G),accelerometerAccelerationY(G),accelerometerAccelerationZ(G),motionTimestamp_sinceReboot(s),motionYaw(rad),motionRoll(rad),motionPitch(rad),motionRotationRateX(rad/s),motionRotationRateY(rad/s),motionRotationRateZ(rad/s),motionUserAccelerationX(G),motionUserAccelerationY(G),motionUserAccelerationZ(G),motionAttitudeReferenceFrame(txt),motionQuaternionX(R),motionQuaternionY(R),motionQuaternionZ(R),motionQuaternionW(R),motionGravityX(G),motionGravityY(G),motionGravityZ(G)
2020-08-20 22:44:21.338 +0200,13606.36787666667,-0.19403076171875,-0.034423828125,-0.9911651611328125,13606.34908066667,-2.449802685304688,-0.05964948005362281,0.02285247345627755,-0.2590722739696503,-1.054512977600098,-0.03772363439202309,0.0619688555598259,-0.05641580373048782,-0.03270524740219116,XArbitraryZVertical,-0.02418017106409174,-0.02085405849957674,-0.9404081411011165,0.3385453371422675,-0.05959854647517204,-0.02285048365592957,-0.9979608654975891
2020-08-20 22:44:21.340 +0200,13606.38791366667,-0.1507415771484375,0.01385498046875,-1.016769409179688,13606.36911866667,-2.450247546035512,-0.07434862910933442,0.01838866508750788,-0.159675657749176,-0.283306360244751,0.02094979956746101,-0.07609774172306061,-0.03868727385997772,0.007202625274658203,XArbitraryZVertical,-0.03185272277181444,-0.02123669129960479,-0.9402738168293659,0.3382596356460635,-0.07426759600639343,-0.01838762871921062,-0.9970688223838806
2020-08-20 22:44:21.341 +0200,13606.40795166667,-0.065338134765625,-0.0065765380859375,-1.037322998046875,13606.38915566667,-2.449483231651667,-0.07447214796435284,0.01543437462412899,-0.1230815500020981,0.1607216894626617,0.07511609792709351,-0.1117262691259384,0.02443214133381844,-0.007620096206665039,XArbitraryZVertical,-0.03240377288095086,-0.01988136862234887,-0.9401355723264426,0.3386735548038541,-0.07439446449279785,-0.01543376222252846,-0.9971094727516174
2020-08-20 22:44:21.342 +0200,13606.42798966667,-0.0980224609375,-0.027587890625,-1.017410278320312,13606.40919366667,-2.448750161934438,-0.07206098850326521,0.01426172866109099,-0.001171889714896679,0.03848259150981903,-0.006076909601688385,-0.008034661412239075,0.01675102487206459,-0.04113906621932983,XArbitraryZVertical,-0.03146228877427592,-0.01893345125920455,-0.9400467009472758,0.3390632471119285,-0.07199131697416306,-0.01426124479621649,-0.997303307056427
2020-08-20 22:44:21.343 +0200,13606.44802766667,-0.1118011474609375,-0.036590576171875,-0.9964599609375,13606.42923166667,-2.449477855564186,-0.07235042813099621,0.01452842315671366,0.01580469682812691,-0.02377891540527344,-0.05685083568096161,-0.01243993639945984,-0.008884984999895096,-0.02909326553344727,XArbitraryZVertical,-0.03156000431300285,-0.01909636699037166,-0.9401661751572444,0.3387135874466498,-0.07227969169616699,-0.01452791225165129,-0.9972785711288452
2020-08-20 22:44:21.354 +0200,13606.46806566667,-0.0774078369140625,-0.0400390625,-0.991546630859375,13606.44926966667,-2.450599734882195,-0.07178537337202899,0.01464899091219646,-0.01957965828478336,0.07589521259069443,-0.05799569189548492,-0.04544103890657425,-0.02099056541919708,-0.004611015319824219,XArbitraryZVertical,-0.03128461771680057,-0.01903979126021551,-0.9403652069408373,0.3381893251677711,-0.07171604037284851,-0.01464846730232239,-0.9973174929618835
2020-08-20 22:44:21.374 +0200,13606.48810266667,-0.069427490234375,-0.0294647216796875,-0.988555908203125,13606.46930766667,-2.45181357710992,-0.07002187314602398,0.01374452437547108,-0.07318629324436188,0.0743231475353241,-0.06157026067376137,-0.02059263736009598,-0.0275728665292263,0.00579148530960083,XArbitraryZVertical,-0.03061971156730995,-0.01829780494947172,-0.9405952020662464,0.3376511795912684,-0.06995806097984314,-0.01374409161508083,-0.9974552392959595
2020-08-20 22:44:21.394 +0200,13606.50814066667,-0.06634521484375,-0.012908935546875,-0.99298095703125,13606.48934466667,-2.453239818293152,-0.06906907953064538,0.01209910843295616,-0.0884733721613884,0.02877537161111832,-0.06723640859127045,-0.002987124025821686,-0.02242124825716019,0.007005274295806885,XArbitraryZVertical,-0.03046213752247798,-0.01734150711198762,-0.9408456694829995,0.3370175596161125,-0.06900912523269653,-0.01209881342947483,-0.997542679309845
2020-08-20 22:44:21.414 +0200,13606.52817866667,-0.051727294921875,-0.005218505859375,-0.995880126953125,13606.50938266667,-2.454756184542477,-0.06876083418467478,0.01092243162906901,-0.0480339378118515,0.02605202049016953,-0.07245227694511414,-0.003146566450595856,-0.006546748802065849,0.006764233112335205,XArbitraryZVertical,-0.03052832003390913,-0.01671296478125818,-0.9411019609183664,0.3363269478486138,-0.06870256364345551,-0.01092221401631832,-0.9975773692131042
2020-08-20 22:44:21.434 +0200,13606.54821666667,-0.043426513671875,-0.0027618408203125,-0.9942474365234375,13606.52942066667,-2.456392947315138,-0.06972789080286672,0.01123290610646762,0.005469368305057287,-0.001346844248473644,-0.09061130881309509,0.01188623160123825,0.00309218093752861,0.001584410667419434,XArbitraryZVertical,-0.03094502142142604,-0.01699633888019527,-0.9413630036747951,0.3355431407415563,-0.06966700404882431,-0.01123266946524382,-0.9975070357322693
2020-08-20 22:44:21.454 +0200,13606.56825466667,-0.0402069091796875,-0.0030670166015625,-0.9939422607421875,13606.54945866667,-2.458148904990868,-0.0709757268137946,0.01272280344089636,0.04659656435251236,-0.0356409028172493,-0.08760955184698105,0.02482394874095917,0.01062267646193504,0.002489387989044189,XArbitraryZVertical,-0.03129781452415015,-0.0178793631329051,-0.9416424161510287,0.334679489825646,-0.07091040909290314,-0.01272246055305004,-0.9974015355110168
2020-08-20 22:44:21.474 +0200,13606.58829166667,-0.04443359375,0,-0.9982757568359375,13606.56949666667,-2.459708737257832,-0.0718818659263858,0.01453482245384382,0.05187814310193062,-0.05115275084972382,-0.07558023929595947,0.02888622134923935,0.009782703593373299,0.002784371376037598,XArbitraryZVertical,-0.03143554178991055,-0.01885946070450346,-0.9418939176734231,0.3339040903298373,-0.07181239128112793,-0.0145343104377389,-0.9973122477531433
2020-08-20 22:44:21.494 +0200,13606.60832966667,-0.052947998046875,-0.003509521484375,-0.99847412109375,13606.58953366667,-2.460914292744937,-0.07296696519831192,0.01585163952548132,0.03836952894926071,-0.05311843007802963,-0.05002085492014885,0.02532424777746201,0.01474997401237488,-4.225969314575195e-05,XArbitraryZVertical,-0.03173822922115202,-0.01964150877072328,-0.9420811702718831,0.3333017621758724,-0.07289307564496994,-0.0158509761095047,-0.9972137808799744
2020-08-20 22:44:21.514 +0200,13606.62836766667,-0.0597991943359375,0.0001068115234375,-0.997222900390625,13606.60957166667,-2.461651405546066,-0.07356965793550327,0.01604407081367489,-0.005406449548900127,-0.04417926445603371,-0.03232978284358978,0.01990915089845657,0.01226594857871532,-0.002071559429168701,XArbitraryZVertical,-0.03199730877711577,-0.01982077885640487,-0.9421947560950045,0.3329449587403145,-0.07349385321140289,-0.01604338176548481,-0.997166633605957
2020-08-20 22:44:21.534 +0200,13606.64840566667,-0.0675201416015625,0.0135040283203125,-1.005386352539062,13606.62960966667,-2.462201883865082,-0.07357924847624596,0.01521069204337422,-0.032539002597332,-0.02672756835818291,-0.02004948817193508,0.01434990018606186,0.01538078114390373,1.549720764160156e-05,XArbitraryZVertical,-0.03214613700513686,-0.01942100607438634,-0.9422841695286807,0.3327010589825915,-0.07350437343120575,-0.01521010510623455,-0.9971789121627808
2020-08-20 22:44:21.554 +0200,13606.66844366667,-0.071746826171875,0.0162353515625,-1.010543823242188,13606.64964766667,-2.462661386750479,-0.07327629343303568,0.01429649629355058,-0.025007713586092,-0.01795032247900963,-0.01477098930627108,0.006840981543064117,0.0255432240664959,-0.006297588348388672,XArbitraryZVertical,-0.0321600674159974,-0.01893258533706357,-0.942363045564227,0.332504406657406,-0.07320325076580048,-0.01429600920528173,-0.9972145557403564
2020-08-20 22:44:21.574 +0200,13606.68848166667,-0.0611724853515625,0.0011138916015625,-1.003250122070312,13606.66968566667,-2.463033373747017,-0.0725272950627284,0.01395113603712366,0.02319243736565113,0.008017362095415592,-0.02354443073272705,-0.002991251647472382,0.02880999818444252,-0.01335066556930542,XArbitraryZVertical,-0.03186811839167516,-0.01863943459186399,-0.9424359514935323,0.3323425438750487,-0.07245667278766632,-0.01395068317651749,-0.9972739815711975
2020-08-20 22:44:21.594 +0200,13606.70851866667,-0.055816650390625,-0.0078277587890625,-0.99261474609375,13606.68972366667,-2.463472214920029,-0.07165426699028124,0.01430281611211457,0.03893185406923294,0.019169881939888,-0.01780729740858078,0.005763314664363861,0.02200930938124657,-0.01083791255950928,XArbitraryZVertical,-0.03140229891949675,-0.01865316163664656,-0.9425235939206005,0.3321374890371106,-0.07158564031124115,-0.0143023282289505,-0.9973319172859192
2020-08-20 22:44:21.614 +0200,13606.72855666667,-0.059661865234375,-0.012847900390625,-0.9984130859375,13606.70976066667,-2.463672694577816,-0.07095466516850769,0.01453288286730064,0.01981501653790474,0.01188480574637651,-0.009665215387940407,0.01349521428346634,0.009033160284161568,0.002100765705108643,XArbitraryZVertical,-0.03103620956234058,-0.01864227088383864,-0.9425683477206388,0.3320453418160058,-0.07088765501976013,-0.01453237142413855,-0.9973784685134888
2020-08-20 22:44:21.634 +0200,13606.74859466667,-0.060272216796875,-0.0186309814453125,-1.002593994140625,13606.72979866667,-2.463458533425136,-0.07063258003071539,0.01404900140386821,-0.01485268026590347,0.00593184120953083,0.03157288581132889,0.008698619902133942,0.0007522720843553543,0.001549661159515381,XArbitraryZVertical,-0.03096290244692562,-0.01836410666313726,-0.9425365433566476,0.3321578784698874,-0.07056690007448196,-0.01404853910207748,-0.9974080920219421
2020-08-20 22:44:21.654 +0200,13606.76863266667,-0.066497802734375,-0.0113677978515625,-1.00665283203125,13606.74983666667,-2.462680721353723,-0.07061360760894249,0.01253399234685233,-0.05205171555280685,-0.0001478893682360649,0.04712570831179619,0.00614871084690094,-0.00585646741092205,-0.004685699939727783,XArbitraryZVertical,-0.03119905010405929,-0.01765923446857088,-0.9424034704069023,0.3325515273845536,-0.07054939866065979,-0.01253366377204657,-0.9974295496940613
2020-08-20 22:44:21.675 +0200,13606.78867066667,-0.0751800537109375,-0.0083160400390625,-1.007553100585938,13606.76987466667,-2.461628695978457,-0.07072500473534464,0.01076517609773132,-0.05027751624584198,-0.01726908609271049,0.06423419713973999,0.004792869091033936,-0.003677718341350555,-0.008335530757904053,XArbitraryZVertical,-0.03153714480250097,-0.01686100424572398,-0.9422210791359912,0.3330773789397473,-0.07066196203231812,-0.01076496858149767,-0.9974422454833984
2020-08-20 22:44:21.694 +0200,13606.80870766667,-0.0761260986328125,-0.0058746337890625,-1.010360717773438,13606.78991266667,-2.460473573834014,-0.07066329309701733,0.009829962706667583,-0.01049202214926481,-0.001876280643045902,0.04809597134590149,-0.007213681936264038,0.0002997759729623795,-0.008123636245727539,XArbitraryZVertical,-0.0316545016682198,-0.01642848018411129,-0.9420262829496614,0.3336384200137457,-0.07060109078884125,-0.009829804301261902,-0.9974561929702759
2020-08-20 22:44:21.714 +0200,13606.82874566667,-0.0744781494140625,-0.0121002197265625,-1.010986328125,13606.80994966667,-2.459722868558732,-0.07023073276818835,0.009934857124353639,0.02576758153736591,0.01224273350089788,0.02384663373231888,-0.008424907922744751,0.006092846393585205,-0.0107043981552124,XArbitraryZVertical,-0.03142708133037856,-0.01641751894046584,-0.9419082170704427,0.3339937627792198,-0.07016955316066742,-0.009934693574905396,-0.9974855780601501
2020-08-20 22:44:21.738 +0200,13606.84878366667,-0.0753326416015625,-0.0172271728515625,-1.00677490234375,13606.82998766667,-2.459367136947316,-0.06984235511095671,0.01102004901026194,0.05202648043632507,0.005513724870979786,0.005317196249961853,-0.005184374749660492,-0.0002571642398834229,-0.01412230730056763,XArbitraryZVertical,-0.03105976821645288,-0.01686919878850493,-0.9418584915437824,0.3341456082548274,-0.0697813481092453,-0.01101982593536377,-0.9975014328956604
2020-08-20 22:44:21.755 +0200,13606.86882166667,-0.07843017578125,-0.015960693359375,-1.00177001953125,13606.85002566667,-2.459192178352569,-0.06951865081271742,0.01232521041759407,0.06536825746297836,0.008874633349478245,0.007412686012685299,-0.009556815028190613,-0.004151212051510811,-0.01037681102752686,XArbitraryZVertical,-0.03068749996615138,-0.01743235571320285,-0.9418382790064034,0.3342080890593068,-0.06945738941431046,-0.01232489850372076,-0.9975087642669678
2020-08-20 22:44:21.775 +0200,13606.88885966667,-0.0821990966796875,-0.01422119140625,-1.00323486328125,13606.87006366667,-2.458921265927884,-0.06955907514900629,0.01333375855217294,0.05053231492638588,0.01113033201545477,0.009066736325621605,-0.009839072823524475,-0.002152591943740845,-0.00572282075881958,XArbitraryZVertical,-0.03053537059581265,-0.01791811687678095,-0.9417951898036134,0.3343176898665837,-0.06949681788682938,-0.01333336345851421,-0.9974930882453918
2020-08-20 22:44:21.795 +0200,13606.90889666667,-0.078643798828125,-0.010955810546875,-1.006423950195312,13606.89010166667,-2.458795934548535,-0.06938699423047993,0.01387932647679362,0.03115782141685486,0.03081987798213959,0.0020139638800174,-0.01292017847299576,-0.004447357729077339,-0.004802882671356201,XArbitraryZVertical,-0.03036188281750767,-0.01814811911892424,-0.9417782995542149,0.3343687342741445,-0.06932464987039566,-0.01387888099998236,-0.9974976181983948
2020-08-20 22:44:21.815 +0200,13606.92893466667,-0.0728912353515625,-0.0017852783203125,-1.012374877929688,13606.91013866667,-2.45882500128495,-0.06881764832624997,0.01424511004159004,0.03186395764350891,0.04740151762962341,-0.007968362420797348,-0.01192917674779892,0.003536108881235123,-0.007440090179443359,XArbitraryZVertical,-0.03003281253089929,-0.01822471168351463,-0.9417926259128753,0.3343537981304295,-0.06875636428594589,-0.0142446281388402,-0.9975317716598511
2020-08-20 22:44:21.835 +0200,13606.94897266667,-0.076507568359375,-0.00115966796875,-1.01611328125,13606.93017666667,-2.459005078931925,-0.06821062266104651,0.01515272200890209,0.05605904385447502,0.04159689322113991,-0.01337419915944338,-0.008167512714862823,0.009450066834688187,-0.01125800609588623,XArbitraryZVertical,-0.02959668632995397,-0.01854788500893926,-0.9418339044820774,0.3342589021000258,-0.06814991682767868,-0.01515214238315821,-0.9975600242614746
2020-08-20 22:44:21.855 +0200,13606.96901066667,-0.080596923828125,0.0042724609375,-1.016815185546875,13606.95021466667,-2.45933355535687,-0.06773946003084837,0.01673739140230168,0.1094841882586479,0.04587765783071518,-0.02198092825710773,-0.01079092919826508,0.01589729636907578,-0.01582902669906616,XArbitraryZVertical,-0.02911272442497468,-0.01921046939142677,-0.941898718457582,0.3340811181713479,-0.06767818331718445,-0.01673660986125469,-0.997566819190979
2020-08-20 22:44:21.875 +0200,13606.98904866667,-0.0746002197265625,0.0110015869140625,-1.019241333007812,13606.97025266667,-2.459440707956055,-0.06713172858731999,0.01930386301329519,0.1393098533153534,0.06036605685949326,-0.0117766447365284,-0.01458519697189331,0.02492747455835342,-0.02016758918762207,XArbitraryZVertical,-0.02839818480097337,-0.02031586348924155,-0.9419289486489885,0.3339920468108575,-0.06706881523132324,-0.01930266432464123,-0.9975616335868835
2020-08-20 22:44:21.895 +0200,13607.00908566667,-0.0644683837890625,0.007965087890625,-1.014114379882812,13606.99029066667,-2.459474353738502,-0.06602216898373484,0.02259724417717084,0.2065996825695038,0.08786559104919434,-0.0201268345117569,-0.01421158015727997,0.02956463769078255,-0.02278727293014526,XArbitraryZVertical,-0.02732495695891312,-0.02168082104691594,-0.9419520874392895,0.3339304110381429,-0.06595737487077713,-0.02259532175958157,-0.9975665807723999
2020-08-20 22:44:21.915 +0200,13607.02912366667,-0.0612030029296875,-0.03765869140625,-1.006256103515625,13607.01032766667,-2.459675150353381,-0.06424447145660368,0.02767932334390802,0.3244637250900269,0.1048560217022896,-0.03505495563149452,-0.006552249193191528,0.03668022900819778,-0.01556605100631714,XArbitraryZVertical,-0.02563967786097196,-0.0237743345966611,-0.942006746508283,0.333767416593498,-0.06417569518089294,-0.02767578884959221,-0.9975547790527344
2020-08-20 22:44:21.935 +0200,13607.04916166667,-0.054473876953125,-0.083343505859375,-0.986846923828125,13607.03036566667,-2.460074673057994,-0.06248838585494453,0.03411421375804349,0.3627865016460419,0.1030911430716515,-0.05108775943517685,-0.000646103173494339,0.01521207019686699,-0.01357531547546387,XArbitraryZVertical,-0.02374114666103583,-0.02650639033852057,-0.9420823405609881,0.3334886786876678,-0.06241139397025108,-0.03410759568214417,-0.9974675178527832
2020-08-20 22:44:21.955 +0200,13607.06919966667,-0.0479888916015625,-0.083282470703125,-0.9770355224609375,13607.05040366667,-2.460580160910149,-0.06062494421017462,0.03979367363723502,0.2690283060073853,0.1118004843592644,-0.04368739947676659,0.003172580152750015,-0.03422512486577034,0.005085885524749756,XArbitraryZVertical,-0.02192073001748809,-0.02886435189599559,-0.94216760895205,0.3331764679989539,-0.0605398491024971,-0.03978317230939865,-0.9973726868629456
2020-08-20 22:44:21.975 +0200,13607.08923766667,-0.04296875,-0.070648193359375,-0.975616455078125,13607.07044166667,-2.461070241619823,-0.05877309653742341,0.0427856408099255,0.1338672786951065,0.111233226954937,-0.03379007056355476,0.0085032619535923,-0.04282099008560181,0.0211714506149292,XArbitraryZVertical,-0.02055554964375676,-0.02995968817459445,-0.9422546774546573,0.3329204240595635,-0.05868551135063171,-0.04277258738875389,-0.9973597526550293
2020-08-20 22:44:21.995 +0200,13607.10927566667,-0.040191650390625,-0.0692138671875,-0.977386474609375,13607.09047966667,-2.461496827262077,-0.05693279005948704,0.04361536636666256,0.0652601346373558,0.09324623644351959,-0.01740105077624321,0.009684521704912186,-0.03707465529441833,0.0252528190612793,XArbitraryZVertical,-0.01955632390072965,-0.03003990981189025,-0.9423396924489018,0.3327327616396972,-0.05684792622923851,-0.04360153898596764,-0.9974303245544434
2020-08-20 22:44:22.015 +0200,13607.12931266667,-0.0415191650390625,-0.0550384521484375,-0.97039794921875,13607.11051766667,-2.461907197992948,-0.05551938993842142,0.04401857738064118,0.06683658808469772,0.06132612377405167,-0.03293842822313309,0.01243861019611359,-0.02563733235001564,0.02189457416534424,XArbitraryZVertical,-0.01882920696135553,-0.02999079920736911,-0.9424192211973883,0.3325537781793756,-0.055437121540308,-0.04400436207652092,-0.9974920153617859
2020-08-20 22:44:22.035 +0200,13607.14935066667,-0.044281005859375,-0.031341552734375,-0.9735870361328125,13607.13055466667,-2.462694998952782,-0.0547113896844836,0.04608712245699868,0.1061447113752365,0.03220392391085625,-0.05937855690717697,0.01110408827662468,-0.0184793658554554,0.02521973848342896,XArbitraryZVertical,-0.01811546288317088,-0.03082360640243477,-0.9425451419409419,0.3321602061280598,-0.05462603271007538,-0.04607081040740013,-0.9974434971809387
2020-08-20 22:44:22.055 +0200,13607.16938866667,-0.0409698486328125,-0.0570220947265625,-0.967803955078125,13607.15059266667,-2.464120161513317,-0.05408706387949198,0.05022098445685187,0.189847856760025,0.01396020594984293,-0.0956999659538269,0.006554029881954193,0.01754611358046532,0.02860027551651001,XArbitraryZVertical,-0.01715547056255487,-0.0326549636399933,-0.9427588449786332,0.3314288359008373,-0.05399253591895103,-0.05019987747073174,-0.9972786903381348
2020-08-20 22:44:22.075 +0200,13607.189426125,-0.0365753173828125,-0.0929718017578125,-0.9707489013671875,13607.17063066667,-2.466042372450283,-0.0536662220448574,0.05619478393045622,0.272637814283371,0.00225667841732502,-0.1184161975979805,0.007473990321159363,0.002538587898015976,0.02164697647094727,XArbitraryZVertical,-0.01599727385018192,-0.03538431437830407,-0.9430321662193353,0.3304275651565218,-0.05355579406023026,-0.05616521462798119,-0.99698406457901
2020-08-20 22:44:22.095 +0200,13607.209464125,-0.05078125,-0.0980987548828125,-0.96612548828125,13607.190668125,-2.468261809638854,-0.053890814360963,0.06174956721418157,0.2341042757034302,-0.04727918282151222,-0.1333466768264771,0.01544039696455002,-0.0257389135658741,0.02482837438583374,XArbitraryZVertical,-0.01522363197080398,-0.03802218038671236,-0.9433439195279778,0.3292792619181819,-0.05376207083463669,-0.06171033158898354,-0.9966450929641724
2020-08-20 22:44:22.115 +0200,13607.229501125,-0.0488433837890625,-0.0944061279296875,-0.97039794921875,13607.210706125,-2.470614301955302,-0.05473918513234669,0.06528179020850571,0.104125902056694,-0.06289196014404297,-0.1293217688798904,0.007000215351581573,-0.03013882040977478,0.0212864875793457,XArbitraryZVertical,-0.01508626325839869,-0.03980912768216498,-0.9436869892627036,0.3280892072846792,-0.05459531024098396,-0.06523542851209641,-0.9963752627372742
2020-08-20 22:44:22.135 +0200,13607.249539125,-0.045379638671875,-0.0621795654296875,-0.9883575439453125,13607.230743125,-2.473089925562205,-0.05542798087984466,0.06550299634695113,-0.01674911752343178,-0.04773698002099991,-0.1207947358489037,0.002765767276287079,-0.02994038164615631,0.0296587347984314,XArbitraryZVertical,-0.01542432534147872,-0.04000736548860111,-0.9440846835143236,0.3269030252497088,-0.05528079718351364,-0.06545616686344147,-0.9963229894638062
2020-08-20 22:44:22.155 +0200,13607.269577125,-0.0576019287109375,-0.0170440673828125,-1.014892578125,13607.250781125,-2.47548429481908,-0.05617743837173867,0.06501186618019709,0.002612595446407795,-0.0719941183924675,-0.1136803403496742,0.007549192756414413,-0.01457620412111282,0.01484829187393188,XArbitraryZVertical,-0.01590655156162027,-0.0398791616011971,-0.9444748377913106,0.3257666935858221,-0.05602927878499031,-0.06496608257293701,-0.9963132739067078
2020-08-20 22:44:22.175 +0200,13607.289615125,-0.060455322265625,-0.0023040771484375,-1.020858764648438,13607.270819125,-2.478045550910687,-0.05732394312311875,0.0669312484786161,0.1662722229957581,-0.1040910631418228,-0.1447220742702484,0.0008507221937179565,0.03070440143346786,-0.01145988702774048,XArbitraryZVertical,-0.0161861187353286,-0.04095100007520712,-0.9448609598969492,0.3244976758382679,-0.0571642704308033,-0.06688128411769867,-0.9961220622062683
2020-08-20 22:44:22.195 +0200,13607.309653125,-0.0529937744140625,-0.05548095703125,-1.005081176757812,13607.290857125,-2.481312432454502,-0.05840970150360255,0.07330351615468368,0.402713805437088,-0.05507798492908478,-0.1936919689178467,-0.00526861846446991,0.07390646636486053,-0.0176282525062561,XArbitraryZVertical,-0.01573134036409143,-0.04410970205031663,-0.9453053472272361,0.3228074866120985,-0.05821972340345383,-0.07323788851499557,-0.995613694190979
2020-08-20 22:44:22.216 +0200,13607.329690125,-0.0480499267578125,-0.1183319091796875,-0.998260498046875,13607.310895125,-2.484607260222956,-0.05898857553462695,0.08449669763450018,0.5860418081283569,-0.03605662286281586,-0.1882581561803818,0.0004727095365524292,0.04895728826522827,-0.01704877614974976,XArbitraryZVertical,-0.01426822369954792,-0.04946551591281005,-0.9456755918069738,0.3210096600693597,-0.05874403938651085,-0.08439618349075317,-0.9946991801261902
2020-08-20 22:44:22.240 +0200,13607.349728125,-0.0564727783203125,-0.1519012451171875,-0.9875335693359375,13607.330932125,-2.487736131841137,-0.05942687722499799,0.09657765886837526,0.5463443398475647,-0.06316760182380676,-0.1908103376626968,0.007637381553649902,-0.007480025291442871,-0.01313972473144531,XArbitraryZVertical,-0.01260828693192242,-0.05522269241472786,-0.9459723113808389,0.3192614922086682,-0.05911513790488243,-0.09642759710550308,-0.9935829639434814
2020-08-20 22:44:22.256 +0200,13607.369766125,-0.05926513671875,-0.1224212646484375,-0.9947509765625,13607.350970125,-2.490449697559349,-0.06013774589161948,0.1050688868734742,0.4012896716594696,-0.04938893765211105,-0.129017174243927,0.003800578415393829,-0.04887737333774567,0.003205358982086182,XArbitraryZVertical,-0.01165787126937866,-0.05933215157048904,-0.9462381674353452,0.3177688494501992,-0.05977006629109383,-0.1048756763339043,-0.9926875829696655
2020-08-20 22:44:22.276 +0200,13607.389804125,-0.0539093017578125,-0.07476806640625,-0.998779296875,13607.371008125,-2.492388257002261,-0.06069995690127479,0.1095246217695003,0.330957442522049,-0.02189765870571136,-0.115350067615509,-0.003026649355888367,-0.02965031564235687,0.004756271839141846,XArbitraryZVertical,-0.0112688293741663,-0.06151624767610764,-0.9464507596862866,0.3167327809902378,-0.06029921025037766,-0.1093057841062546,-0.9921775460243225
2020-08-20 22:44:22.296 +0200,13607.409842125,-0.060577392578125,-0.0961761474609375,-1.002532958984375,13607.391046125,-2.494388295958797,-0.06091021202054913,0.1154424613338849,0.4801698625087738,-0.02889671176671982,-0.1338746249675751,0.003850027918815613,0.02714413404464722,-0.005007386207580566,XArbitraryZVertical,-0.01048610503824764,-0.06433613919083636,-0.9466368219235198,0.3156415429833964,-0.06046738103032112,-0.1151862144470215,-0.9915018081665039
2020-08-20 22:44:22.316 +0200,13607.429879125,-0.0552215576171875,-0.1553192138671875,-0.9929351806640625,13607.411084125,-2.496866867563497,-0.06101717543452786,0.1264138286887007,0.6743544936180115,-0.02875476703047752,-0.1780714690685272,0.00198248028755188,0.03906102478504181,-0.01613444089889526,XArbitraryZVertical,-0.008872956405354598,-0.06952788768394483,-0.9467653930702971,0.3142013626765113,-0.06049273163080215,-0.1260773986577988,-0.9901742935180664
2020-08-20 22:44:22.336 +0200,13607.449917125,-0.0443115234375,-0.1881866455078125,-0.98193359375,13607.431121125,-2.499678164161555,-0.06078926107135488,0.1409509307004762,0.6820485591888428,-0.02361859381198883,-0.1801532506942749,-2.839788794517517e-05,0.0007776916027069092,-0.007876813411712646,XArbitraryZVertical,-0.006561874777362912,-0.07635381750967517,-0.9468161739661864,0.3125159091451016,-0.06014934554696083,-0.1404846757650375,-0.9882540702819824
2020-08-20 22:44:22.356 +0200,13607.469955125,-0.056060791015625,-0.1918487548828125,-0.980987548828125,13607.451159125,-2.502493733075266,-0.06113220436676098,0.1542890595191096,0.6108478307723999,-0.03562572225928307,-0.1721567958593369,0.01139888912439346,-0.03508014976978302,0.008640170097351074,XArbitraryZVertical,-0.004729190585532514,-0.08270440132023288,-0.94685116427811,0.3108221550768865,-0.06036840006709099,-0.1536776423454285,-0.9862752556800842
2020-08-20 22:44:22.376 +0200,13607.489993125,-0.064788818359375,-0.1991424560546875,-0.985107421875,13607.471197125,-2.505077865023535,-0.0619583490277317,0.1639590867897518,0.5005974769592285,-0.07878411561250687,-0.1443047523498535,0.007975935935974121,-0.03049100935459137,0.005859792232513428,XArbitraryZVertical,-0.003708600710559803,-0.08739785687099119,-0.9469318248403545,0.3093023584562251,-0.06108831241726875,-0.1632254719734192,-0.9846957325935364
2020-08-20 22:44:22.396 +0200,13607.510031125,-0.072265625,-0.175323486328125,-0.990447998046875,13607.491235125,-2.506782299713287,-0.06304130267217474,0.170889251427015,0.3790480196475983,-0.08422468602657318,-0.08062632381916046,-0.00503922626376152,-0.03007087111473083,0.005869626998901367,XArbitraryZVertical,-0.003210150838198543,-0.09083767956392004,-0.9469517504111953,0.3082541463836482,-0.06208189949393272,-0.1700587123632431,-0.9834764003753662
2020-08-20 22:44:22.416 +0200,13607.530069125,-0.082977294921875,-0.1680908203125,-1.008102416992188,13607.511273125,-2.507410135927287,-0.06442732214951269,0.1765785847856423,0.3019801378250122,-0.07139703631401062,-0.02521727606654167,-0.009045250713825226,-0.01652836799621582,-0.002534687519073486,XArbitraryZVertical,-0.003004253132752049,-0.09373884820389509,-0.9468400583378017,0.307730170254731,-0.06338163465261459,-0.1756623983383179,-0.9824079871177673
2020-08-20 22:44:22.436 +0200,13607.550106125,-0.0815582275390625,-0.1911773681640625,-1.008102416992188,13607.531311125,-2.50741612286229,-0.06514007300552478,0.1820885938925182,0.253277450799942,-0.05145368725061417,0.005881101824343204,-0.01798135042190552,0.01014354825019836,-0.02244901657104492,XArbitraryZVertical,-0.0024792189940781,-0.09645175026461875,-0.9466334727308362,0.3075321775116727,-0.06401785463094711,-0.1810840368270874,-0.9813818335533142
2020-08-20 22:44:22.456 +0200,13607.570144125,-0.0689544677734375,-0.20391845703125,-0.997772216796875,13607.551348125,-2.50664027344298,-0.06529630076146774,0.1869727149718857,0.1723170727491379,-0.006900600623339415,0.04985715821385384,-0.02174999937415123,-0.005472123622894287,-0.02895492315292358,XArbitraryZVertical,-0.00175007531781993,-0.09878339229105766,-0.9463249894912308,0.3077461659994711,-0.06411270052194595,-0.1858852207660675,-0.9804775714874268
2020-08-20 22:44:22.476 +0200,13607.590182125,-0.0667266845703125,-0.1942901611328125,-0.98773193359375,13607.571386125,-2.505280396505765,-0.06547465393563957,0.1898564593327101,0.05206483229994774,0.01223154831677675,0.06436826288700104,-0.0100792720913887,-0.01956027746200562,-0.01749438047409058,XArbitraryZVertical,-0.001314259464767902,-0.1001733719804279,-0.9460013559357803,0.3082937493830641,-0.06425223499536514,-0.1887179315090179,-0.979927122592926
2020-08-20 22:44:22.496 +0200,13607.610220125,-0.0708160400390625,-0.1923980712890625,-0.98394775390625,13607.591424125,-2.503567229997907,-0.06578872409817073,0.1905950451696787,-0.007323392201215029,0.02913596108555794,0.08979825675487518,-0.005258355289697647,-0.01649300754070282,-0.007730662822723389,XArbitraryZVertical,-0.001260637117793152,-0.1005715273710148,-0.9457072137000778,0.3090657338820882,-0.06455080956220627,-0.1894432008266449,-0.9797675609588623
2020-08-20 22:44:22.516 +0200,13607.630258125,-0.061431884765625,-0.20751953125,-0.977264404296875,13607.611462125,-2.501568799405411,-0.06574645156166829,0.1895500836715932,-0.01520954538136721,0.05931756645441055,0.09398132562637329,-0.008398689329624176,-0.006973117589950562,-0.003447949886322021,XArbitraryZVertical,-0.001305240699307732,-0.1000732486462061,-0.9454395855411675,0.310044465926434,-0.06452236324548721,-0.188417062163353,-0.9799672961235046
2020-08-20 22:44:22.536 +0200,13607.650295125,-0.059478759765625,-0.2251129150390625,-0.9616851806640625,13607.631500125,-2.499539866786792,-0.06546307518473446,0.1884939599819649,-0.05547520890831947,0.07316973060369492,0.09378930926322937,-0.001773253083229065,-0.02056585252285004,0.002330899238586426,XArbitraryZVertical,-0.001237144200757453,-0.09953238540927545,-0.9451665882032202,0.3110496685315858,-0.06425764411687851,-0.1873797476291656,-0.9801835417747498
2020-08-20 22:44:22.556 +0200,13607.670333125,-0.0626068115234375,-0.21368408203125,-0.948272705078125,13607.651537125,-2.497835659507456,-0.06487715794179187,0.1873206954361331,-0.1042834967374802,0.06977340579032898,0.07125554233789444,0.00163654237985611,-0.04138076305389404,0.01258867979049683,XArbitraryZVertical,-0.001061875319857249,-0.09888884830873622,-0.9449476562768626,0.3119194185403426,-0.06369753926992416,-0.1862271279096603,-0.9804397225379944
2020-08-20 22:44:22.576 +0200,13607.690371125,-0.0697174072265625,-0.2087249755859375,-0.93621826171875,13607.671575125,-2.496797658311628,-0.06389567042415616,0.1857364345323389,-0.1196849569678307,0.07266533374786377,0.03708460181951523,-0.001306325197219849,-0.04291838407516479,0.02701646089553833,XArbitraryZVertical,-0.0007989004352688876,-0.09798913573562765,-0.9448479774616293,0.3125055537147986,-0.06275397539138794,-0.1846703588962555,-0.9807949662208557
2020-08-20 22:44:22.596 +0200,13607.710409125,-0.080108642578125,-0.2304840087890625,-0.9304656982421875,13607.691613125,-2.496604784731973,-0.06293843600829579,0.184058884909973,-0.1017076820135117,0.07277212291955948,-0.01338968425989151,-0.008544117212295532,-0.029851034283638,0.04182219505310059,XArbitraryZVertical,-0.0006041240152462647,-0.09704861375633779,-0.9448831861601188,0.312692991333258,-0.06183449551463127,-0.1830213963985443,-0.981162428855896
2020-08-20 22:44:22.616 +0200,13607.730447125,-0.0943756103515625,-0.2347259521484375,-0.9104156494140625,13607.711651125,-2.49757267061895,-0.06182954466623471,0.1823782140912539,-0.1650511026382446,0.04673945903778076,-0.06729666888713837,-0.0160183310508728,-0.04570254683494568,0.04761600494384766,XArbitraryZVertical,-0.0003940770504888326,-0.09608250954800911,-0.9450993079897779,0.3123382848989358,-0.06076537817716599,-0.1813688576221466,-0.9815359711647034
2020-08-20 22:44:22.637 +0200,13607.750484125,-0.115753173828125,-0.2209014892578125,-0.89288330078125,13607.731689125,-2.500026729031228,-0.06042835792405169,0.179360522551929,-0.2612201273441315,0.05852288007736206,-0.152569904923439,-0.03134090825915337,-0.06758873164653778,0.06428956985473633,XArbitraryZVertical,-0.0003270712911384526,-0.09443983831909759,-0.9455969509595525,0.3113316935617722,-0.05942278355360031,-0.1784003973007202,-0.9821619987487793
2020-08-20 22:44:22.656 +0200,13607.770522125,-0.131439208984375,-0.2298126220703125,-0.8577117919921875,13607.751726125,-2.504331260664744,-0.05878993006483695,0.1748008214047526,-0.3451783955097198,0.04556926339864731,-0.2358365654945374,-0.0523233599960804,-0.05383698642253876,0.08302682638168335,XArbitraryZVertical,-0.0004718582649110029,-0.09203167758360967,-0.9464354129928019,0.3094995824975246,-0.05786069855093956,-0.1739120036363602,-0.9830598831176758
2020-08-20 22:44:22.676 +0200,13607.790560125,-0.14459228515625,-0.2499542236328125,-0.8036041259765625,13607.771764125,-2.510336371653085,-0.05704589046279175,0.1682499047159826,-0.4830224215984344,0.05623628944158554,-0.3139136135578156,-0.07342223823070526,-0.06551788747310638,0.1162319779396057,XArbitraryZVertical,-0.0009422746979358811,-0.08866393900788376,-0.9475984063610634,0.3069120958515241,-0.05620986595749855,-0.1674572229385376,-0.9842756390571594
2020-08-20 22:44:22.696 +0200,13607.810598125,-0.14752197265625,-0.2623443603515625,-0.7230682373046875,13607.791802125,-2.518279868146017,-0.05517414946791303,0.1577161530459029,-0.7761415243148804,0.05561843514442444,-0.4091915786266327,-0.08819137513637543,-0.09158673882484436,0.1621890068054199,XArbitraryZVertical,-0.002026744284407265,-0.08338476265486053,-0.9491742765027649,0.3034981981059811,-0.05446171760559082,-0.1570631116628647,-0.9860857725143433
2020-08-20 22:44:22.716 +0200,13607.830636125,-0.13226318359375,-0.2741546630859375,-0.631591796875,13607.811840125,-2.52858510566604,-0.05232807965981986,0.1383143868297806,-1.244385957717896,0.07899300009012222,-0.5023820996284485,-0.09680607914924622,-0.1242932081222534,0.2390454411506653,XArbitraryZVertical,-0.00403933733257944,-0.0737336128212283,-0.9513352450820959,0.2991794173619068,-0.05180468782782555,-0.1378737986087799,-0.989094078540802
2020-08-20 22:44:22.739 +0200,13607.850673125,-0.0971527099609375,-0.243072509765625,-0.5409088134765625,13607.831878125,-2.541267206855285,-0.04890374926524588,0.1078210397725505,-1.871187090873718,0.1154341027140617,-0.6048334836959839,-0.09206510335206985,-0.1688935458660126,0.3317590951919556,XArbitraryZVertical,-0.007394784489218136,-0.0586783624011776,-0.9540049432863577,0.2938993324477743,-0.04860038682818413,-0.1076122522354126,-0.993004322052002
2020-08-20 22:44:22.756 +0200,13607.870711125,-0.071929931640625,-0.1744537353515625,-0.4843902587890625,13607.851915125,-2.55676226286782,-0.04494255312481645,0.06459445353230622,-2.508823871612549,0.1333313435316086,-0.731258749961853,-0.06603319942951202,-0.1979933679103851,0.4278680086135864,XArbitraryZVertical,-0.01219813456211352,-0.03738681738740217,-0.957018606763247,0.2873478845086464,-0.04483373090624809,-0.06454954296350479,-0.9969068765640259
2020-08-20 22:44:22.777 +0200,13607.890749125,-0.0673370361328125,-0.1100311279296875,-0.4263153076171875,13607.871953125,-2.575484324716629,-0.04225653886415289,0.009608947160473473,-3.0186767578125,0.05373771116137505,-0.905245840549469,-0.03439302369952202,-0.1866512298583984,0.5015478134155273,XArbitraryZVertical,-0.0189442335381019,-0.01051263970260669,-0.9600098380258698,0.2791265152662539,-0.04224201291799545,-0.0096087995916605,-0.9990612268447876
2020-08-20 22:44:22.796 +0200,13607.910787125,-0.0865936279296875,-0.061187744140625,-0.3759765625,13607.891991125,-2.598299764047256,-0.04312593776749203,-0.05366855679985985,-3.376980304718018,-0.1022185981273651,-1.110989928245544,-0.02492809668183327,-0.1795094907283783,0.5574607253074646,XArbitraryZVertical,-0.02796075517647735,0.02005796689586253,-0.9626045328020399,0.2687162237539618,-0.04305049777030945,0.05364279821515083,-0.9976317286491394
2020-08-20 22:44:22.817 +0200,13607.930825125,-0.122100830078125,-0.004119873046875,-0.312713623046875,13607.912029125,-2.626644174047982,-0.04946307903346264,-0.1227955562905272,-3.628961086273193,-0.2821502685546875,-1.399033188819885,-0.029994897544384,-0.1943988651037216,0.5970803499221802,XArbitraryZVertical,-0.0394884586299273,0.05303333056060647,-0.9645325128700418,0.255548656938255,-0.04907061159610748,0.1224871873855591,-0.9912562370300293
2020-08-20 22:44:22.837 +0200,13607.950862125,-0.169342041015625,0.0588531494140625,-0.272613525390625,13607.932067125,-2.66241384211302,-0.062504477439581,-0.1954395826248637,-3.784633636474609,-0.4503880143165588,-1.722584009170532,-0.05036117136478424,-0.2110863775014877,0.6485692858695984,XArbitraryZVertical,-0.05335085878915835,0.0873514934528902,-0.9656054298904713,0.2390178484631496,-0.06127462536096573,0.1941977739334106,-0.9790468215942383
2020-08-20 22:44:22.857 +0200,13607.970900125,-0.229522705078125,0.1098175048828125,-0.2548065185546875,13607.952104125,-2.70719344010829,-0.08395257414728438,-0.2685004619421591,-3.787147283554077,-0.6573385000228882,-2.097338914871216,-0.07599723339080811,-0.2166885435581207,0.6782277226448059,XArbitraryZVertical,-0.06942742423650326,0.1216257220437884,-0.9656553242016835,0.2188535325598341,-0.08084948360919952,0.2652859389781952,-0.9607740044593811
2020-08-20 22:44:22.877 +0200,13607.990938125,-0.3251190185546875,0.1591033935546875,-0.2637939453125,13607.972142125,-2.763267915284204,-0.1162925743938893,-0.3388787047795431,-3.730727672576904,-0.9165549278259277,-2.530254125595093,-0.1014430448412895,-0.2259491086006165,0.6875860095024109,XArbitraryZVertical,-0.08791445530311212,0.1545708926651418,-0.964618165744812,0.1946551018049191,-0.1094317361712456,0.3324297666549683,-0.9367578029632568
2020-08-20 22:44:22.897 +0200,13608.010976125,-0.437103271484375,0.255035400390625,-0.3646392822265625,13607.992180125,-2.833510031933711,-0.1640753034292096,-0.4044655861670564,-3.605901718139648,-1.28622567653656,-3.040690660476685,-0.141710638999939,-0.2364214062690735,0.6236042976379395,XArbitraryZVertical,-0.1100395451989967,0.1854943404453915,-0.9622398854755179,0.1660649233625882,-0.1501606702804565,0.3935275375843048,-0.9069662690162659
2020-08-20 22:44:22.917 +0200,13608.031014125,-0.622344970703125,0.4237213134765625,-0.4284820556640625,13608.012218125,-2.919107667646684,-0.2309202723322002,-0.4590876575608526,-3.287935495376587,-1.830964803695679,-3.512551069259644,-0.1972164660692215,-0.2182639241218567,0.5509811639785767,XArbitraryZVertical,-0.1365796343500968,0.212167683546273,-0.9583979667665287,0.1334322745784848,-0.2051752507686615,0.4431304037570953,-0.8726617693901062
2020-08-20 22:44:22.937 +0200,13608.051051125,-0.8607025146484375,0.8193511962890625,-0.7343902587890625,13608.032256125,-3.02086208923176,-0.3180878050106048,-0.4997832604929449,-2.986324310302734,-2.116715431213379,-4.061928749084473,-0.2949476540088654,-0.09885862469673157,0.4498519897460938,XArbitraryZVertical,-0.1679064258562321,0.2344753479745365,-0.9526050116606549,0.09681147455927459,-0.2744972109794617,0.4792353212833405,-0.8336575031280518
2020-08-20 22:44:22.957 +0200,13608.071089125,-1.061859130859375,1.072280883789062,-0.691619873046875,13608.052293125,-3.134048440413186,-0.4193144695636197,-0.5165098082819207,-2.198308944702148,-2.542541027069092,-4.530141830444336,-0.4333988130092621,0.1839765906333923,0.1318856477737427,XArbitraryZVertical,-0.2021634872312297,0.2490403784850728,-0.9454584014940421,0.05672049473227996,-0.3540229499340057,0.4938482642173767,-0.7942176461219788
2020-08-20 22:44:22.977 +0200,13608.091127125,-0.947723388671875,0.753814697265625,-0.685455322265625,13608.072331125,3.030575168383065,-0.532178890876839,-0.5076858858016479,-1.661710739135742,-2.839547157287598,-5.078933715820312,-0.5961595773696899,0.5886703729629517,0.07160043716430664,XArbitraryZVertical,-0.240699618618818,0.2560360580831633,-0.9361141920252969,0.01412203280521975,-0.4434131681919098,0.4861563146114349,-0.7530184388160706
2020-08-20 22:44:22.997 +0200,13608.111165125,-0.9346923828125,0.586700439453125,-0.6173248291015625,13608.092369125,2.92257101506544,-0.6416918871056789,-0.4687398839835571,-0.4127631783485413,-3.092363834381104,-4.833093643188477,-0.4849130511283875,0.4272796213626862,0.02621316909790039,XArbitraryZVertical,-0.2808242959509566,0.2525841797193508,-0.9255001253690021,-0.02807971673207613,-0.5339908003807068,0.4517624378204346,-0.7146778702735901
2020-08-20 22:44:23.017 +0200,13608.131203125,-1.165283203125,0.512847900390625,-0.5090789794921875,13608.112407125,2.842033233464876,-0.7464510580424235,-0.4173354158022283,-0.5446124076843262,-3.962672710418701,-4.040933132171631,-0.3022980690002441,0.220784455537796,0.02455037832260132,XArbitraryZVertical,-0.3239337262657219,0.2439641380610473,-0.9120292947528553,-0.06124536026626726,-0.6207574605941772,0.4053260087966919,-0.6710968613624573
2020-08-20 22:44:23.037 +0200,13608.151240125,-1.284530639648438,0.42864990234375,-0.4922332763671875,13608.132445125,2.770381997690056,-0.8579367009440765,-0.37377563842157,-1.036221623420715,-4.269922256469727,-3.73729419708252,-0.4165109395980835,0.1885888278484344,0.08141142129898071,XArbitraryZVertical,-0.3704894553217715,0.2414855603094172,-0.8924746869861871,-0.08894520706788678,-0.704262912273407,0.3651329874992371,-0.6088445782661438
2020-08-20 22:44:23.057 +0200,13608.171278125,-1.354354858398438,0.478302001953125,-0.5407867431640625,13608.152482125,2.709515535372633,-0.9647432753820347,-0.3324257304337274,-0.882724940776825,-4.282635688781738,-2.953741312026978,-0.5020999312400818,0.1209677755832672,0.06383931636810303,XArbitraryZVertical,-0.4154346880860198,0.241231459261852,-0.8698307226971651,-0.1123210883481613,-0.7769064903259277,0.3263369202613831,-0.5384427905082703
2020-08-20 22:44:23.077 +0200,13608.191316625,-1.392791748046875,0.519805908203125,-0.5258331298828125,13608.172520125,2.66690064897071,-1.064535416907113,-0.2951515054372342,-0.4984752535820007,-4.36060905456543,-2.412655591964722,-0.5275137424468994,0.1795651912689209,-0.04940611124038696,XArbitraryZVertical,-0.4581099449147807,0.2411725925921784,-0.8459442478420282,-0.1278648593730013,-0.8367459177970886,0.290884792804718,-0.4639421105384827
2020-08-20 22:44:23.097 +0200,13608.211354625,-1.381576538085938,0.4626617431640625,-0.424224853515625,13608.192558625,2.643695224638138,-1.157863193944559,-0.2575057578593251,0.159138023853302,-4.289345264434814,-1.912842631340027,-0.5307965278625488,0.2700294852256775,-0.1320310831069946,XArbitraryZVertical,-0.499393714826078,0.2378504734806373,-0.8218369177816309,-0.1364447047358702,-0.8857472538948059,0.2546693384647369,-0.3880661427974701
2020-08-20 22:44:23.117 +0200,13608.231392625,-1.378387451171875,0.3550872802734375,-0.297576904296875,13608.212596625,2.638276422986193,-1.243176400139282,-0.2249280061773692,0.4243181645870209,-4.057456493377686,-1.34134042263031,-0.4909406304359436,0.270761102437973,-0.1263104677200317,XArbitraryZVertical,-0.537702750442522,0.2324509754859158,-0.7986467326528374,-0.1378607805390639,-0.9229608178138733,0.2230361849069595,-0.3136845827102661
2020-08-20 22:44:23.137 +0200,13608.251429625,-1.353912353515625,0.2242279052734375,-0.2510223388671875,13608.232634625,2.635034479880753,-1.320069559982618,-0.2012935844221747,-0.1433195769786835,-3.529716491699219,-1.049842834472656,-0.46062171459198,0.1987780183553696,-0.05485802888870239,XArbitraryZVertical,-0.5706891557398134,0.2297055770389657,-0.7763349233090513,-0.1373076379808526,-0.9491724967956543,0.1999369561672211,-0.2430984675884247
2020-08-20 22:44:23.157 +0200,13608.271467625,-1.327957153320312,0.1209259033203125,-0.19549560546875,13608.252671625,2.6191047413619,-1.387896065843431,-0.1842362358875282,-1.079398989677429,-2.929579734802246,-0.9599591493606567,-0.4256835579872131,0.08432386815547943,-0.05605018138885498,XArbitraryZVertical,-0.5969921113082571,0.2328054028763633,-0.7546905046099244,-0.1408697889324707,-0.9666790366172791,0.1831957548856735,-0.1788041293621063
2020-08-20 22:44:23.177 +0200,13608.291505625,-1.280914306640625,0.1583099365234375,-0.12139892578125,13608.272709625,2.582980896551322,-1.446627641739609,-0.1711108794549312,-2.24605655670166,-2.291543006896973,-0.8621586561203003,-0.3888920545578003,-0.02408042550086975,-0.06694936752319336,XArbitraryZVertical,-0.6162364283058155,0.2433764035569476,-0.7335233790788226,-0.1515387965973466,-0.9778096079826355,0.1702771037817001,-0.122041180729866
2020-08-20 22:44:23.197 +0200,13608.311543625,-1.219589233398438,0.2966156005859375,-0.08258056640625,13608.292747625,2.523876876645731,-1.495576823467858,-0.1604697486781217,-3.410066604614258,-1.641472935676575,-0.7599876523017883,-0.3445705771446228,-0.02534900605678558,-0.03457528352737427,XArbitraryZVertical,-0.6278944195312582,0.2620248905867105,-0.7128209140752001,-0.1702290223138576,-0.9843610525131226,0.1597819328308105,-0.07418310642242432
2020-08-20 22:44:23.218 +0200,13608.331581625,-1.162948608398438,0.360504150390625,-0.13226318359375,13608.312785625,2.446397767157503,-1.534677783751282,-0.1503966131558895,-4.113179206848145,-1.089480042457581,-0.6459152102470398,-0.283884584903717,0.103227287530899,-0.02717995643615723,XArbitraryZVertical,-0.6324392821804212,0.2866513930718613,-0.6925682371974509,-0.1954503986533572,-0.9880669713020325,0.1498302817344666,-0.03570306673645973
2020-08-20 22:44:23.239 +0200,13608.351618625,-1.174896240234375,0.3009490966796875,-0.1746978759765625,13608.332823625,2.356923996957893,-1.565831872397331,-0.1404349144894685,-4.697832584381104,-0.7857063412666321,-0.5341472625732422,-0.2188558578491211,0.2277594804763794,-0.05358237028121948,XArbitraryZVertical,-0.6311348092819131,0.3149778919415951,-0.6723071258156235,-0.2246350522626592,-0.9901430010795593,0.1399737596511841,-0.004915560130029917
2020-08-20 22:44:23.257 +0200,13608.371656625,-1.211624145507812,0.3896636962890625,-0.0590057373046875,13608.352860625,2.259493279211294,-1.593153803539304,-0.1300837249195332,-4.897146701812744,-0.6182382702827454,-0.3896150588989258,-0.2035877108573914,0.1846644282341003,-0.1834226846694946,XArbitraryZVertical,-0.6257815416052728,0.34565999087334,-0.6507522926503542,-0.2558088415730229,-0.9913033246994019,0.129717156291008,0.02216673456132412
2020-08-20 22:44:23.278 +0200,13608.391694625,-1.186309814453125,0.48492431640625,-0.02178955078125,13608.372898625,2.155963942729643,-1.614703678983646,-0.12048858934469,-5.436583518981934,-0.209614023566246,-0.2227774113416672,-0.2415043711662292,0.2379783689975739,-0.0990300178527832,XArbitraryZVertical,-0.6156401857911945,0.3778553620181203,-0.6286131927457689,-0.2881979364870441,-0.9917933344841003,0.1201972663402557,0.04357502609491348
2020-08-20 22:44:23.298 +0200,13608.411732625,-1.115371704101562,0.551025390625,-0.01983642578125,13608.392936625,2.042927880070765,-1.626877861532505,-0.1109842813557334,-5.765089988708496,0.2671887278556824,-0.1679253876209259,-0.2422642707824707,0.3492753803730011,-0.04369747638702393,XArbitraryZVertical,-0.598895188775203,0.4113127712383254,-0.6060679657688338,-0.3237715183133432,-0.9922850728034973,0.1107565835118294,0.05570728704333305
2020-08-20 22:44:23.318 +0200,13608.431770625,-1.049530029296875,0.619659423828125,0.026885986328125,13608.412974625,1.92614732120167,-1.630931590345227,-0.1010461504774423,-5.801668643951416,0.5364615321159363,-0.1517137438058853,-0.1731457114219666,0.4337324202060699,-0.04638576507568359,XArbitraryZVertical,-0.5771580573482171,0.443604343225173,-0.5830617208312113,-0.3607531180126579,-0.9931008219718933,0.1008742824196815,0.05979247391223907
2020-08-20 22:44:23.338 +0200,13608.451808625,-0.9766845703125,0.6703033447265625,0.038818359375,13608.433012625,1.811734109951698,-1.628366171644406,-0.09173855356661821,-5.609349250793457,0.8164774775505066,-0.07613954693078995,-0.1094208955764771,0.5095956325531006,-0.01465702056884766,XArbitraryZVertical,-0.5522271116632876,0.4729622264804872,-0.5602233871966584,-0.3968648606185266,-0.9941452741622925,0.09160993248224258,0.05729610100388527
2020-08-20 22:44:23.358 +0200,13608.471845625,-0.9187164306640625,0.707183837890625,-0.013580322265625,13608.453050625,1.702848462796468,-1.61926525249844,-0.08505963323405895,-5.163356781005859,1.007704615592957,-0.03296943381428719,-0.03633373975753784,0.5724325776100159,0.03074324131011963,XArbitraryZVertical,-0.5248162144845633,0.4987036530752658,-0.5386689785938307,-0.4309273053808574,-0.9952144622802734,0.08495710045099258,0.04827478528022766
2020-08-20 22:44:23.382 +0200,13608.491883625,-0.9153900146484375,0.7324981689453125,-0.06005859375,13608.473087625,1.607566941235988,-1.607011369712141,-0.0806045625454859,-4.257003784179688,0.9631555676460266,0.002863398054614663,0.03262317180633545,0.6187839508056641,0.005277633666992188,XArbitraryZVertical,-0.4984108293355236,0.5192604658808626,-0.5195268337090596,-0.4604857640488975,-0.9960997104644775,0.08051730692386627,0.03608957305550575
2020-08-20 22:44:23.398 +0200,13608.511921625,-0.9449005126953125,0.729248046875,-0.0737457275390625,13608.493125625,1.534081629885683,-1.595075267042537,-0.07930681380179351,-3.025225877761841,0.7974308133125305,0.08512486517429352,0.05547171831130981,0.65027916431427,-0.03674036264419556,XArbitraryZVertical,-0.4763326180254556,0.5340480902257095,-0.504788766288598,-0.4827920975416946,-0.9965630769729614,0.07922370731830597,0.02420025132596493
2020-08-20 22:44:23.418 +0200,13608.531959625,-0.9714202880859375,0.6956939697265625,-0.0440521240234375,13608.513163625,1.486630883034336,-1.584339762732954,-0.08110216265760885,-1.687978863716125,0.6662453413009644,0.191640704870224,0.02934426069259644,0.657412052154541,-0.05546355247497559,XArbitraryZVertical,-0.460394179288474,0.5429424022331977,-0.4961273124619557,-0.4970999281146443,-0.9966214895248413,0.08101328462362289,0.01349850464612246
2020-08-20 22:44:23.438 +0200,13608.551997625,-0.9875335693359375,0.63812255859375,-0.032562255859375,13608.533201625,1.466060964581378,-1.573770020082153,-0.08581511894764211,-0.3753706514835358,0.5532721877098083,0.2977959811687469,-0.0002335309982299805,0.6261625289916992,-0.02583944797515869,XArbitraryZVertical,-0.4509026612746627,0.5460477662907671,-0.4945777522582643,-0.5038962531949605,-0.9963157176971436,0.0857098326086998,0.002962745958939195
2020-08-20 22:44:23.458 +0200,13608.572034625,-1.032318115234375,0.569244384765625,-0.0391998291015625,13608.553239625,1.470144626058591,-1.563861731794679,-0.09263875899417834,0.7486701011657715,0.3819179832935333,0.389547199010849,-0.01820564270019531,0.5677793025970459,0.008554577827453613,XArbitraryZVertical,-0.4476899162906482,0.5441703191912177,-0.4995480403838732,-0.5038890806904445,-0.9956881999969482,0.09250631183385849,-0.006904805079102516
2020-08-20 22:44:23.480 +0200,13608.592072625,-1.07586669921875,0.4788970947265625,-0.018280029296875,13608.573276625,1.494524394706859,-1.556251501083226,-0.1012672556257852,1.60068142414093,0.1506504118442535,0.5172807574272156,-0.05260109901428223,0.4957295656204224,0.004662871360778809,XArbitraryZVertical,-0.4500113892572946,0.5387530496337468,-0.5094957608822901,-0.4976435483870886,-0.9947717785835266,0.1010942608118057,-0.01446980237960815
2020-08-20 22:44:23.498 +0200,13608.612110625,-1.072174072265625,0.4061279296875,-0.0096893310546875,13608.593314625,1.532546305874167,-1.550276670898719,-0.1127669549194494,2.120720863342285,0.05442054569721222,0.6861523985862732,-0.1033903360366821,0.3980059325695038,0.02929776906967163,XArbitraryZVertical,-0.4555152758328003,0.5313302969706359,-0.5229788961826007,-0.4865050407104864,-0.9934394955635071,0.11252810806036,-0.02038789726793766
2020-08-20 22:44:23.518 +0200,13608.632148625,-1.051605224609375,0.3628692626953125,3.0517578125e-05,13608.613352625,1.579349229707587,-1.544134073148842,-0.1270831619871776,2.445327997207642,-0.007772785611450672,0.8615157604217529,-0.1195456981658936,0.302306592464447,0.0452161431312561,XArbitraryZVertical,-0.4623635001433686,0.5224920464485818,-0.5389451802041392,-0.4719747236579242,-0.9915832281112671,0.1267413645982742,-0.02644411101937294
2020-08-20 22:44:23.538 +0200,13608.652186625,-1.055892944335938,0.3253631591796875,-0.0004730224609375,13608.633390625,1.630538746464512,-1.538310330830631,-0.1447281846702917,2.525460481643677,-0.09727923572063446,1.038702726364136,-0.0982358455657959,0.2357150912284851,0.05820775032043457,XArbitraryZVertical,-0.4693379566869655,0.5134700865444601,-0.556114387901296,-0.4547605176447836,-0.9890230298042297,0.1442234665155411,-0.03214070573449135
2020-08-20 22:44:23.558 +0200,13608.672223625,-1.052719116210938,0.29974365234375,0.00347900390625,13608.653428625,1.681743445332351,-1.533123120794669,-0.1650946110676112,2.427149772644043,-0.1510875970125198,1.16785454750061,-0.1009007692337036,0.1776913702487946,0.06926965713500977,XArbitraryZVertical,-0.4755713839890481,0.5052284397504442,-0.5730959260187759,-0.4360471200262916,-0.9857028722763062,0.1643456518650055,-0.03715216368436813
2020-08-20 22:44:23.582 +0200,13608.692261625,-1.036697387695312,0.284515380859375,0.002471923828125,13608.673465625,1.730361715944628,-1.527287822687462,-0.1876847991839909,2.248019933700562,-0.1154939234256744,1.26834499835968,-0.1065477728843689,0.1248356997966766,0.07837843894958496,XArbitraryZVertical,-0.4802126613851865,0.4980264243798533,-0.5894448485138832,-0.417037490794966,-0.9815091490745544,0.186584860086441,-0.04273096099495888
2020-08-20 22:44:23.600 +0200,13608.712299625,-1.02099609375,0.2724609375,-0.0013275146484375,13608.693503625,1.7756162633669,-1.520208764444301,-0.2115689919299497,2.058971166610718,-0.06998928636312485,1.314517617225647,-0.09827530384063721,0.08508366346359253,0.08084362745285034,XArbitraryZVertical,-0.4831642680746958,0.491765227782021,-0.6049629614364259,-0.3984207414102566,-0.9764519333839417,0.2099941670894623,-0.04943850263953209
2020-08-20 22:44:23.619 +0200,13608.732337625,-1.003677368164062,0.261688232421875,0.000640869140625,13608.713541625,1.817413492086422,-1.511907064116544,-0.2358599120980098,1.874163031578064,-0.01965048536658287,1.322281360626221,-0.08628910779953003,0.05087822675704956,0.08568161725997925,XArbitraryZVertical,-0.4846534998128246,0.4863107122277712,-0.6195110806248062,-0.3805508199946229,-0.9706283211708069,0.2336791753768921,-0.05722575262188911
2020-08-20 22:44:23.638 +0200,13608.752375625,-0.9806976318359375,0.2509613037109375,0.0001983642578125,13608.733579625,1.855783099488711,-1.502105998209215,-0.2597485293455951,1.683764219284058,0.06282388418912888,1.289481639862061,-0.07704848051071167,0.01800674200057983,0.09552145004272461,XArbitraryZVertical,-0.4848160120802543,0.4814420958387799,-0.6330957607232387,-0.3638085025893812,-0.9641754031181335,0.2568375170230865,-0.06633388251066208
2020-08-20 22:44:23.659 +0200,13608.772412625,-0.9576568603515625,0.2418060302734375,0.003814697265625,13608.753617625,1.890660066774848,-1.490615344765286,-0.2826388088206314,1.491212248802185,0.1494133770465851,1.233616232872009,-0.06052601337432861,-0.01524448394775391,0.1062552928924561,XArbitraryZVertical,-0.4837264101711166,0.4770222096003168,-0.6457471340590295,-0.3485242043437835,-0.9572374820709229,0.2788907289505005,-0.0769171416759491
2020-08-20 22:44:23.684 +0200,13608.792450625,-0.9524383544921875,0.2378997802734375,-0.00030517578125,13608.773654625,1.92197517056197,-1.477723307531255,-0.3040235712462472,1.305573105812073,0.227553978562355,1.149528861045837,-0.04529094696044922,-0.04485812783241272,0.1220341324806213,XArbitraryZVertical,-0.4815876178672917,0.4730064623517187,-0.6574098822676598,-0.3348887771108348,-0.9500100016593933,0.2993616759777069,-0.08867650479078293
2020-08-20 22:44:23.700 +0200,13608.812488625,-0.9451904296875,0.2300567626953125,0.003692626953125,13608.793692625,1.949873741346194,-1.46408182086271,-0.3234778414966767,1.141458034515381,0.2829077839851379,1.042326211929321,-0.03908240795135498,-0.06806653738021851,0.1298481225967407,XArbitraryZVertical,-0.4787605411682869,0.4693552960330205,-0.6679996762018029,-0.3229092657719776,-0.9427421092987061,0.3178659379482269,-0.1009879037737846
2020-08-20 22:44:23.719 +0200,13608.832526625,-0.93634033203125,0.224700927734375,-0.004547119140625,13608.813730625,1.974533302039609,-1.449408920518018,-0.3408117020800746,0.972545325756073,0.3746041357517242,0.9361778497695923,-0.04313206672668457,-0.09030798077583313,0.1459686756134033,XArbitraryZVertical,-0.4752498390831013,0.4659132294143239,-0.6776935535833474,-0.3127203227053551,-0.9355486035346985,0.3342522084712982,-0.1141249090433121
2020-08-20 22:44:23.752 +0200,13608.852564625,-0.9557342529296875,0.230010986328125,-0.0069427490234375,13608.833768625,1.995936291246439,-1.434369977639732,-0.3558228739775546,0.841492235660553,0.3867359161376953,0.8087834715843201,-0.03752648830413818,-0.1113221049308777,0.156460165977478,XArbitraryZVertical,-0.4713363025995149,0.4627093499771727,-0.6864024803592049,-0.3042921551696599,-0.928650438785553,0.3483618199825287,-0.1274842917919159
2020-08-20 22:44:23.771 +0200,13608.872601625,-0.9803619384765625,0.2290191650390625,-0.0126953125,13608.853806625,2.015133182798179,-1.419915084391125,-0.3682202412625579,0.7540836930274963,0.3831132054328918,0.6766404509544373,-0.05418092012405396,-0.1210656762123108,0.1589001417160034,XArbitraryZVertical,-0.4676776508309261,0.4595221087376589,-0.6941184079380535,-0.2971811526369139,-0.9223699569702148,0.3599555492401123,-0.1402340978384018
2020-08-20 22:44:23.783 +0200,13608.892639625,-1.003707885742188,0.232666015625,-0.0139312744140625,13608.873843625,2.032229914888184,-1.405994348184453,-0.3779085279504906,0.6764408349990845,0.3739151954650879,0.5253452658653259,-0.08427894115447998,-0.1268546581268311,0.1691080331802368,XArbitraryZVertical,-0.4643221137688387,0.4562505227557259,-0.7009371845599766,-0.2914232622930605,-0.9168453216552734,0.3689773976802826,-0.1524808704853058
2020-08-20 22:44:23.800 +0200,13608.912677625,-1.02386474609375,0.2355499267578125,-0.006072998046875,13608.893881625,2.048021476655204,-1.392706239678972,-0.384547632427184,0.6419469118118286,0.3558589518070221,0.3776978552341461,-0.113406777381897,-0.1309588551521301,0.1766200661659241,XArbitraryZVertical,-0.4615827985147767,0.4525870292047694,-0.7069844775914654,-0.2868436225183043,-0.9123071432113647,0.3751398324966431,-0.1642125993967056
2020-08-20 22:44:23.819 +0200,13608.932715625,-1.042922973632812,0.2441864013671875,-0.000518798828125,13608.913919625,2.062119998446852,-1.380579498238907,-0.3884788033927801,0.5656430721282959,0.3251670897006989,0.2523919939994812,-0.1383230686187744,-0.1324849426746368,0.1915941834449768,XArbitraryZVertical,-0.4594837622641672,0.4487571564200596,-0.7121754152555657,-0.2833686873992408,-0.9087935090065002,0.3787810206413269,-0.1749833673238754
2020-08-20 22:44:23.839 +0200,13608.952753625,-1.066162109375,0.253448486328125,0.004913330078125,13608.933957625,2.074045985123004,-1.370005863630961,-0.3898915119953444,0.4989420473575592,0.2701129019260406,0.1028204634785652,-0.157349705696106,-0.1272805631160736,0.2084282636642456,XArbitraryZVertical,-0.4580236116176803,0.4449454948152636,-0.71641781347452,-0.2810397533490571,-0.906367301940918,0.3800880610942841,-0.1844757497310638
2020-08-20 22:44:23.859 +0200,13608.972790625,-1.075149536132812,0.255645751953125,-0.01300048828125,13608.953995625,2.083864394390002,-1.361650840218014,-0.3887696864568804,0.4097945988178253,0.1990648061037064,-0.01950285583734512,-0.1832189559936523,-0.113656759262085,0.2218353748321533,XArbitraryZVertical,-0.4574745313366539,0.4411936818994441,-0.7196031556547585,-0.2797079557895932,-0.9052109718322754,0.3790501952171326,-0.192130371928215
2020-08-20 22:44:23.884 +0200,13608.992828625,-1.05908203125,0.2697601318359375,-0.034271240234375,13608.974032625,2.091605318120628,-1.355240434809329,-0.3859116260047358,0.3661952018737793,0.1408734172582626,-0.1034713014960289,-0.198896050453186,-0.1107439398765564,0.2184258699417114,XArbitraryZVertical,-0.457563217332941,0.4376709585983768,-0.7218931878211845,-0.2791958392127049,-0.9050153493881226,0.3764038681983948,-0.1981600672006607
2020-08-20 22:44:23.900 +0200,13609.012866625,-1.030410766601562,0.280548095703125,-0.0696868896484375,13608.994070625,2.096816607096122,-1.357644482995703,-0.3783000396116324,0.3780385553836823,0.02710450440645218,-0.1165709272027016,-0.1847659349441528,-0.09310340881347656,0.1958433389663696,XArbitraryZVertical,-0.4614146392808561,0.4345163238088637,-0.7213832149330124,-0.279102895930906,-0.908263087272644,0.369341254234314,-0.1965841948986053
2020-08-20 22:44:23.919 +0200,13609.032904625,-1.002044677734375,0.2823486328125,-0.1072540283203125,13609.014108625,2.103593353954943,-1.361967553629931,-0.3709291675045208,0.4999828338623047,-0.1201936006546021,-0.0961654856801033,-0.158600389957428,-0.07344692945480347,0.1611027121543884,XArbitraryZVertical,-0.4662151505905667,0.4313188186165005,-0.7206548114198627,-0.2779643684282089,-0.9117429256439209,0.362481564283371,-0.1932150274515152
2020-08-20 22:44:23.939 +0200,13609.052942625,-0.9680633544921875,0.2689056396484375,-0.14703369140625,13609.034146625,2.116037454947816,-1.361528281421116,-0.3670789881397427,0.7229205965995789,-0.2782285213470459,-0.0392095260322094,-0.1272009015083313,-0.06667464971542358,0.1242940425872803,XArbitraryZVertical,-0.4696462882337428,0.4271772052059381,-0.722128136215714,-0.2747416626370437,-0.9130163192749023,0.358890563249588,-0.1939039975404739
2020-08-20 22:44:23.959 +0200,13609.072979625,-0.964111328125,0.254364013671875,-0.1561126708984375,13609.054184625,2.13394720659809,-1.362200809882857,-0.3634703662380488,1.002646327018738,-0.4305290877819061,0.03161519020795822,-0.0952143669128418,-0.0678977370262146,0.08175212144851685,XArbitraryZVertical,-0.4745425252058127,0.42193715762422,-0.7240837583911067,-0.2692231591721143,-0.9144075512886047,0.3555200099945068,-0.1935568600893021
2020-08-20 22:44:23.984 +0200,13609.093017625,-1.001937866210938,0.2328643798828125,-0.1377410888671875,13609.074221625,2.158433544588945,-1.363563670278583,-0.3599257950508817,1.28969419002533,-0.5689665675163269,0.08059833198785782,-0.07187521457672119,-0.08513510227203369,0.06813061237335205,XArbitraryZVertical,-0.48098422937749,0.4151745421947611,-0.7266981525546898,-0.2611399149171404,-0.9158979654312134,0.3522047698497772,-0.1925685405731201
2020-08-20 22:44:24.000 +0200,13609.113055625,-1.017166137695312,0.1987457275390625,-0.1000213623046875,13609.094259625,2.188561106663048,-1.365157444980306,-0.3555366164011911,1.549512028694153,-0.6171244978904724,0.06288804113864899,-0.09851950407028198,-0.09793961048126221,0.06496125459671021,XArbitraryZVertical,-0.4887529928545576,0.406705438249458,-0.7298052641924745,-0.2511883012068847,-0.9177083373069763,0.3480934798717499,-0.1914224028587341
2020-08-20 22:44:24.021 +0200,13609.133093625,-0.9748687744140625,0.164825439453125,-0.0927276611328125,13609.114297625,2.222731657512774,-1.364624296196672,-0.3499850280589111,1.661048412322998,-0.4900603294372559,0.0464116744697094,-0.1307365894317627,-0.1227270066738129,0.1068459749221802,XArbitraryZVertical,-0.4966501030111178,0.39646756799482,-0.7336969176359674,-0.2405016333716586,-0.919483482837677,0.3428837358951569,-0.1923042833805084
2020-08-20 22:44:24.039 +0200,13609.153131625,-0.9102630615234375,0.1420440673828125,-0.1097412109375,13609.134335625,2.256866376934042,-1.361172521178129,-0.3439583001782753,1.571931600570679,-0.3327314257621765,0.02604560740292072,-0.1018408536911011,-0.1530985236167908,0.1282745599746704,XArbitraryZVertical,-0.5033534885390685,0.3855950569691971,-0.7381280126953284,-0.2304750594718963,-0.9208186864852905,0.3372161686420441,-0.1959034353494644
2020-08-20 22:44:24.060 +0200,13609.173168625,-0.8718414306640625,0.11004638671875,-0.1192474365234375,13609.154373625,2.287160407742048,-1.356606635495035,-0.3379167597330225,1.330945730209351,-0.2374123781919479,-0.01976091600954533,-0.03606212139129639,-0.1725804209709167,0.123526930809021,XArbitraryZVertical,-0.5086950171126197,0.3754488243106191,-0.74228379646327,-0.2219962495642227,-0.9218885898590088,0.3315223753452301,-0.2005351185798645
2020-08-20 22:44:24.086 +0200,13609.19320679167,-0.8753204345703125,0.0780487060546875,-0.1298675537109375,13609.174410625,2.311694856601842,-1.353030416384469,-0.3319734160257581,1.035066246986389,-0.2184248268604279,-0.0660010427236557,0.0139586329460144,-0.1945664584636688,0.1126147508621216,XArbitraryZVertical,-0.5131343512197658,0.3668333857506009,-0.7454816935821745,-0.2153683684254016,-0.9230731725692749,0.3259093165397644,-0.2042528092861176
2020-08-20 22:44:24.100 +0200,13609.21324479167,-0.8884735107421875,0.06243896484375,-0.13653564453125,13609.19444879167,2.329000637020353,-1.351658698952495,-0.3265057375793648,0.6738842725753784,-0.1982439309358597,-0.1139807775616646,0.02281856536865234,-0.2212807536125183,0.1038058996200562,XArbitraryZVertical,-0.5168655999427135,0.3604142074407929,-0.7473255563887301,-0.210846068671743,-0.9245175719261169,0.3207353353500366,-0.205903097987175
2020-08-20 22:44:24.119 +0200,13609.23328279167,-0.9010467529296875,0.070831298828125,-0.1557159423828125,13609.21448679167,2.338841328727784,-1.351834694267202,-0.3216741675612048,0.3358654081821442,-0.1389417201280594,-0.1574342101812363,0.01110869646072388,-0.2419781088829041,0.09681552648544312,XArbitraryZVertical,-0.5196496555278831,0.3562680680846986,-0.7480054806811551,-0.2086267493417948,-0.9260556697845459,0.3161552846431732,-0.206074595451355
2020-08-20 22:44:24.139 +0200,13609.25332079167,-0.9255218505859375,0.080963134765625,-0.19366455078125,13609.23452479167,2.341744519497034,-1.353354406840805,-0.3170155324190606,0.04413260892033577,-0.1101939678192139,-0.2420208007097244,0.001410067081451416,-0.2364295125007629,0.08344471454620361,XArbitraryZVertical,-0.5216464097297331,0.3541097920477345,-0.7476173787485478,-0.2087094470672397,-0.927795946598053,0.3117322027683258,-0.2049825638532639
2020-08-20 22:44:24.160 +0200,13609.27335779167,-0.95892333984375,0.0923004150390625,-0.1873016357421875,13609.25456279167,2.339145958291499,-1.35657341824272,-0.3114333822550342,-0.1383281499147415,-0.1311722099781036,-0.3662551939487457,-0.01553440093994141,-0.2185949087142944,0.04552215337753296,XArbitraryZVertical,-0.523478656484423,0.3532552373012615,-0.7461431708202974,-0.2108343696269142,-0.9301367402076721,0.3064233660697937,-0.202361673116684
2020-08-20 22:44:24.179 +0200,13609.29339579167,-0.997894287109375,0.1063385009765625,-0.171234130859375,13609.27459979167,2.333314903653228,-1.360972081776108,-0.3038732383157223,-0.2471766024827957,-0.1293098628520966,-0.4943804740905762,-0.04423666000366211,-0.2038529515266418,0.02981412410736084,XArbitraryZVertical,-0.5255616417105984,0.352721343347446,-0.7438642607195548,-0.2145660547745163,-0.9332571029663086,0.2992182374000549,-0.1987452358007431
2020-08-20 22:44:24.199 +0200,13609.31343379167,-0.9992523193359375,0.114837646484375,-0.120208740234375,13609.29463779167,2.324763395612341,-1.365674536932501,-0.2938292716559127,-0.3347353339195251,-0.07395420223474503,-0.6451523303985596,-0.0805627703666687,-0.1770283579826355,0.03995561599731445,XArbitraryZVertical,-0.5277570777413659,0.3521279277036976,-0.7409936046622118,-0.2200156084590482,-0.9370765089988708,0.289619505405426,-0.1949567794799805
2020-08-20 22:44:24.221 +0200,13609.33347179167,-0.9928436279296875,0.1100006103515625,-0.09588623046875,13609.31467579167,2.313775114312303,-1.369034265536321,-0.2815526605185631,-0.4644760191440582,0.03146942332386971,-0.7728580832481384,-0.0919497013092041,-0.1551950871944427,0.0830078125,XArbitraryZVertical,-0.5294587060614033,0.3513129263252679,-0.737968564335881,-0.2272776718028618,-0.9411389231681824,0.2778474986553192,-0.192505419254303
2020-08-20 22:44:24.239 +0200,13609.35350979167,-1.017822265625,0.1179351806640625,-0.1096343994140625,13609.33471379167,2.299432467834813,-1.373679066443132,-0.2610777790313151,-0.612163245677948,0.01942075043916702,-0.9302595257759094,-0.07520365715026855,-0.13698410987854,0.1167863607406616,XArbitraryZVertical,-0.5326415394882986,0.3488405228739042,-0.7334420454836672,-0.2380462630650351,-0.9474037885665894,0.2581219673156738,-0.1892065554857254
2020-08-20 22:44:24.259 +0200,13609.37354679167,-1.014236450195312,0.12310791015625,-0.175506591796875,13609.35475179167,2.282175163390522,-1.378714476961023,-0.2383699912771833,-0.7178307771682739,-0.01001836359500885,-1.0749831199646,-0.08652299642562866,-0.1161869466304779,0.1145302057266235,XArbitraryZVertical,-0.535890558781788,0.3465095229531803,-0.7280318200931569,-0.2504437622334164,-0.9538530707359314,0.2361190170049667,-0.1855049133300781
2020-08-20 22:44:24.279 +0200,13609.39358479167,-0.968475341796875,0.1351776123046875,-0.2584991455078125,13609.37478879167,2.262708120431271,-1.383807532291319,-0.2189693342523389,-0.7468483448028564,-0.07153924554586411,-1.173953175544739,-0.09257632493972778,-0.0890902578830719,0.05469316244125366,XArbitraryZVertical,-0.5381344205508756,0.3459484343270088,-0.7223567848139021,-0.2625484483034509,-0.9591065645217896,0.2172236889600754,-0.1814620494842529
2020-08-20 22:44:24.299 +0200,13609.41362279167,-0.9315948486328125,0.141326904296875,-0.32427978515625,13609.39482679167,2.24383956128684,-1.391031461201215,-0.1974195734775087,-0.6660641431808472,-0.2851181030273438,-1.278144001960754,-0.05170369148254395,-0.05941718816757202,-0.0318906307220459,XArbitraryZVertical,-0.5416599325625613,0.3448795317891852,-0.7157056585296807,-0.2746416751159347,-0.9647747278213501,0.1961396783590317,-0.1753252446651459
2020-08-20 22:44:24.319 +0200,13609.43366079167,-0.93853759765625,0.1446380615234375,-0.342010498046875,13609.41486479167,2.226887050038403,-1.403034161225935,-0.1731219707605354,-0.5531541109085083,-0.5995780229568481,-1.402194976806641,0.001733720302581787,-0.02641040086746216,-0.118958055973053,XArbitraryZVertical,-0.5477195386791744,0.3431663330500908,-0.7074290416093609,-0.2859795494526446,-0.9712225198745728,0.1722584813833237,-0.1644803434610367
2020-08-20 22:44:24.339 +0200,13609.45369879167,-0.95361328125,0.13861083984375,-0.297210693359375,13609.43490279167,2.21184364745581,-1.420553509601727,-0.1455920362038058,-0.4849176406860352,-0.8953137993812561,-1.546013832092285,0.01358026266098022,0.00457155704498291,-0.163278341293335,XArbitraryZVertical,-0.5565821229438168,0.3408357610371527,-0.6971874670203537,-0.2966090721661183,-0.9782741069793701,0.1450782269239426,-0.148094654083252
2020-08-20 22:44:24.360 +0200,13609.47373579167,-0.991241455078125,0.0985107421875,-0.3195343017578125,13609.45494079167,2.19720876420118,-1.442021058818437,-0.1155748980530665,-0.6448450088500977,-1.003484487533569,-1.591316938400269,0.003560066223144531,0.02898767590522766,-0.1671026945114136,XArbitraryZVertical,-0.5671934460322311,0.3383934602312189,-0.6851694445303939,-0.3071226850985056,-0.9851038455963135,0.1153177693486214,-0.1275629252195358
2020-08-20 22:44:24.379 +0200,13609.49377379167,-0.977325439453125,0.231536865234375,-0.3627166748046875,13609.47497779167,2.176955635862151,-1.461835818967017,-0.08579973760849714,-0.8785262107849121,-0.7406405806541443,-1.612346529960632,-0.02009361982345581,0.01614627242088318,-0.1577683687210083,XArbitraryZVertical,-0.5760449481039307,0.3376384385943854,-0.6722960306400945,-0.3196725007882096,-0.9904128909111023,0.08569450676441193,-0.1083450019359589
2020-08-20 22:44:24.399 +0200,13609.51381179167,-0.9503173828125,0.2906036376953125,-0.35223388671875,13609.49501579167,2.15882384885639,-1.475962103286573,-0.05529956618415537,-0.5603095889091492,-0.5655446648597717,-1.600687146186829,-0.02135050296783447,0.1320395171642303,-0.2261183857917786,XArbitraryZVertical,-0.583313090797536,0.3353686640551535,-0.6608194526435822,-0.3325528728821494,-0.9939848780632019,0.05527138710021973,-0.09454739093780518
2020-08-20 22:44:24.420 +0200,13609.53384979167,-0.9575042724609375,0.184783935546875,-0.2891387939453125,13609.51505379167,2.147154891514686,-1.488417555167246,-0.02412875119578232,-0.3839737474918365,-0.6620627045631409,-1.613118767738342,0.007871091365814209,0.2716570198535919,-0.2536979913711548,XArbitraryZVertical,-0.5910901452655981,0.3308800394093177,-0.6504001294179352,-0.3436721405162262,-0.9963186979293823,0.02412641048431396,-0.08226168155670166
2020-08-20 22:44:24.439 +0200,13609.55388779167,-0.9893951416015625,0.202239990234375,-0.23907470703125,13609.53509179167,2.138088223829496,-1.502562449928245,0.006842379015940293,-0.3050538897514343,-0.7214301228523254,-1.486759185791016,0.01372170448303223,0.2189805209636688,-0.2162901163101196,XArbitraryZVertical,-0.5996411974114403,0.3260993123761691,-0.6396086357653505,-0.3535399169378365,-0.997649610042572,-0.006842325441539288,-0.06817934662103653
2020-08-20 22:44:24.459 +0200,13609.57392479167,-1.001693725585938,0.237579345703125,-0.194793701171875,13609.55512979167,2.130176463087297,-1.516457627245454,0.03366545812647197,-0.2978906631469727,-0.6689618825912476,-1.238670468330383,-0.009981930255889893,0.216132789850235,-0.1647266149520874,XArbitraryZVertical,-0.6074011471675113,0.3223712959364524,-0.6294791178785671,-0.3617964003932638,-0.997958242893219,-0.03365910053253174,-0.05428118631243706
2020-08-20 22:44:24.480 +0200,13609.59396279167,-0.9869232177734375,0.2072601318359375,-0.1505126953125,13609.57516679167,2.123858398299959,-1.527701338559241,0.05572618887822984,-0.2459821701049805,-0.4673430323600769,-0.9766899943351746,-0.03695577383041382,0.2890271246433258,-0.1364185214042664,XArbitraryZVertical,-0.6136335483994381,0.3192905924822967,-0.6210424819770853,-0.3685289017337011,-0.9975206255912781,-0.05569735169410706,-0.0430147722363472
2020-08-20 22:44:24.500 +0200,13609.61400079167,-0.962249755859375,0.1764068603515625,-0.123870849609375,13609.59520479167,2.117712368956425,-1.534346817083704,0.07207241263464206,-0.3133138120174408,-0.2483526319265366,-0.6780937314033508,-0.03081327676773071,0.2900944352149963,-0.09544920921325684,XArbitraryZVertical,-0.6174286020493736,0.3171884362313626,-0.6149265574032217,-0.3742175351949359,-0.9967414140701294,-0.07201003283262253,-0.03634683415293694
2020-08-20 22:44:24.520 +0200,13609.63403879167,-0.9481048583984375,0.1832275390625,-0.127777099609375,13609.61524279167,2.109665406171474,-1.53671518226536,0.08207204360674676,-0.4564230144023895,-0.06132682412862778,-0.3401578366756439,-0.005766510963439941,0.2619653940200806,-0.06582331657409668,XArbitraryZVertical,-0.6185293490216103,0.3169250978577884,-0.6108523838107871,-0.3792615833965711,-0.9960553050041199,-0.08197993785142899,-0.03395985439419746
2020-08-20 22:44:24.540 +0200,13609.65407679167,-0.9442596435546875,0.194793701171875,-0.147064208984375,13609.63528079167,2.09918310616221,-1.535417188462235,0.08517200364635621,-0.5621306896209717,0.09713658690452576,-0.01133494079113007,0.01241779327392578,0.2591881155967712,-0.05701214075088501,XArbitraryZVertical,-0.6169803200794503,0.3189255626584903,-0.6086805121709794,-0.383575130717899,-0.9957516193389893,-0.08506906777620316,-0.03524354100227356
2020-08-20 22:44:24.560 +0200,13609.67411379167,-0.95111083984375,0.189666748046875,-0.177154541015625,13609.65531879167,2.087511200830413,-1.531367404922998,0.08187272165230845,-0.6107603907585144,0.1999599039554596,0.2966784238815308,0.01963341236114502,0.2700738608837128,-0.07247686386108398,XArbitraryZVertical,-0.6133230022752343,0.3227871790994826,-0.6082933014671131,-0.3868107349747657,-0.9958756566047668,-0.08178128302097321,-0.03928666561841965
2020-08-20 22:44:24.580 +0200,13609.69415179167,-0.9581298828125,0.177215576171875,-0.1772918701171875,13609.67535579167,2.075078812631632,-1.525668422231222,0.07270574926379998,-0.6711344122886658,0.2644025385379791,0.557124137878418,0.01653009653091431,0.2624161243438721,-0.09275466203689575,XArbitraryZVertical,-0.6079980599886782,0.3283925321155828,-0.6093355418843045,-0.3888533739103338,-0.9963427186012268,-0.07264170795679092,-0.04499340802431107
2020-08-20 22:44:24.600 +0200,13609.71418979167,-0.945159912109375,0.1844635009765625,-0.1650238037109375,13609.69539379167,2.061254659228843,-1.518759617713693,0.05861662272039663,-0.7682850360870361,0.3455685079097748,0.7748547196388245,0.006739020347595215,0.2377283573150635,-0.09780985116958618,XArbitraryZVertical,-0.6011249344716491,0.3356886430608023,-0.6113586818976081,-0.3901313748584322,-0.996931254863739,-0.05858306214213371,-0.05192389711737633
2020-08-20 22:44:24.620 +0200,13609.73422779167,-0.9180450439453125,0.194427490234375,-0.181488037109375,13609.71543179167,2.045202004051821,-1.509473508408103,0.03714184538975943,-0.8936861157417297,0.4245839416980743,0.943062961101532,0.01402914524078369,0.2162917852401733,-0.07374382019042969,XArbitraryZVertical,-0.5916560927229324,0.3454301745358357,-0.6149719185875347,-0.3904236146413199,-0.9974319338798523,-0.03713330626487732,-0.06124212592840195
2020-08-20 22:44:24.640 +0200,13609.75426579167,-0.910400390625,0.2055816650390625,-0.2227630615234375,13609.73546979167,2.027443042925996,-1.498726155200991,0.009387055323723113,-0.9253359436988831,0.4285789728164673,1.068982243537903,0.03913646936416626,0.2006156444549561,-0.07235783338546753,XArbitraryZVertical,-0.5799932750579722,0.3572190988425004,-0.6197326615007617,-0.3897869360198286,-0.9973602294921875,-0.00938691757619381,-0.07200463116168976
2020-08-20 22:44:24.660 +0200,13609.77430279167,-0.935150146484375,0.278961181640625,-0.261932373046875,13609.75550779167,2.011888677458278,-1.490564107409634,-0.01439702393965869,-0.7166093587875366,0.378091037273407,1.158181428909302,0.05720043182373047,0.1862124800682068,-0.09455931186676025,XArbitraryZVertical,-0.5699894964373203,0.3674820301718587,-0.6233406866058649,-0.389249695116773,-0.9966798424720764,0.01439652685075998,-0.08013786375522614
2020-08-20 22:44:24.680 +0200,13609.79434079167,-0.9729156494140625,0.303314208984375,-0.263916015625,13609.77554479167,2.006837881743344,-1.483608570474828,-0.03778123540950069,0.09681059420108795,0.3356567323207855,1.119559288024902,0.03685379028320312,0.2181788086891174,-0.1349292397499084,XArbitraryZVertical,-0.5621727286421413,0.3747722301047129,-0.6284811009829332,-0.3853818032729356,-0.9954906702041626,0.03777224943041801,-0.08701519668102264
2020-08-20 22:44:24.700 +0200,13609.81437879167,-0.9725494384765625,-0.0113677978515625,-0.22259521484375,13609.79558279167,2.021959160346969,-1.47618226414482,-0.05594793828927801,1.103050708770752,0.3203180134296417,0.7549962997436523,0.001613795757293701,0.2674297392368317,-0.1554862856864929,XArbitraryZVertical,-0.5589532756148773,0.374711438377308,-0.6365817233725474,-0.3767310880103017,-0.9939697980880737,0.05591875687241554,-0.09432514756917953
2020-08-20 22:44:24.720 +0200,13609.83441679167,-0.9380950927734375,-0.164825439453125,-0.2132110595703125,13609.81562079167,2.04625259809997,-1.467478062877801,-0.06685219562753969,1.161948084831238,0.4386451840400696,0.7058054804801941,-0.01820278167724609,0.03484746813774109,-0.09775793552398682,XArbitraryZVertical,-0.5584648752788098,0.3696821628877064,-0.6453509090063454,-0.3673883956608548,-0.9924455285072327,0.06680241227149963,-0.1029041633009911
2020-08-20 22:44:24.740 +0200,13609.85445479167,-0.9622802734375,-0.0988311767578125,-0.20843505859375,13609.83565879167,2.070832788421206,-1.456803365190439,-0.0821064011777444,0.9873558282852173,0.3925871551036835,1.064236402511597,0.01169204711914062,-0.2357076704502106,-0.07364058494567871,XArbitraryZVertical,-0.5564254407924646,0.3656626883620506,-0.6552189719911751,-0.3568888596697459,-0.9901629090309143,0.08201418071985245,-0.1133630573749542
2020-08-20 22:44:24.760 +0200,13609.87449179167,-1.041091918945312,-0.0499420166015625,-0.22320556640625,13609.85569679167,2.084894770795219,-1.449129023557685,-0.1047678854357239,0.1205693259835243,0.2474975883960724,1.348629593849182,0.00856095552444458,-0.2179989218711853,-0.0503767728805542,XArbitraryZVertical,-0.5518795289923853,0.3675296463361857,-0.6632916915674836,-0.346980066952818,-0.9871651530265808,0.1045763269066811,-0.1207018867135048
2020-08-20 22:44:24.780 +0200,13609.89452979167,-1.093704223632812,0.02783203125,-0.2349090576171875,13609.87573379167,2.083553295554105,-1.445743122634491,-0.1338934185542882,-0.5551204681396484,0.1589991599321365,1.519973993301392,-0.06443041563034058,-0.194037139415741,-0.07148599624633789,XArbitraryZVertical,-0.5445119527432112,0.3764321323487318,-0.668282910598466,-0.339416430104377,-0.9833105802536011,0.1334937214851379,-0.1236111670732498
2020-08-20 22:44:24.800 +0200,13609.91456779167,-1.112075805664062,0.1009979248046875,-0.22674560546875,13609.89577179167,2.072181731537602,-1.4438598895874,-0.1673230796713784,-0.9236137866973877,0.1830043494701385,1.624704241752625,-0.1356360912322998,-0.1608312427997589,-0.0795397162437439,XArbitraryZVertical,-0.5346455729061386,0.3895384555975439,-0.6716533859171629,-0.3336100112144337,-0.9781008958816528,0.1665434092283249,-0.1248278096318245
2020-08-20 22:44:24.820 +0200,13609.93460579167,-1.114593505859375,0.1534881591796875,-0.2115936279296875,13609.91580979167,2.056510704825658,-1.443163661275638,-0.2018312899372921,-1.008060812950134,0.1908114105463028,1.589230060577393,-0.1664290428161621,-0.1118055880069733,-0.07953882217407227,XArbitraryZVertical,-0.5237848577651214,0.4041015917638109,-0.6740410803195915,-0.3286639152655944,-0.9717322587966919,0.2004637867212296,-0.1247026547789574
2020-08-20 22:44:24.840 +0200,13609.95464379167,-1.104843139648438,0.1884307861328125,-0.203826904296875,13609.93584779167,2.041676103608977,-1.441789587395141,-0.2346196430117352,-0.7939790487289429,0.2700766623020172,1.454730868339539,-0.1818639039993286,-0.08609157800674438,-0.06213200092315674,XArbitraryZVertical,-0.5129085938306138,0.4175673399548465,-0.6764210185163744,-0.3240631846773919,-0.9645206928253174,0.2324730604887009,-0.1251245886087418
2020-08-20 22:44:24.860 +0200,13609.97468079167,-1.091293334960938,0.173797607421875,-0.181854248046875,13609.95588579167,2.033831123262292,-1.437463924382186,-0.2631284753624994,-0.3179775476455688,0.3552895784378052,1.265999436378479,-0.1814590096473694,-0.07026723027229309,-0.04865217208862305,XArbitraryZVertical,-0.5032152125141238,0.4273094801983809,-0.6800148961321307,-0.3189997037786689,-0.9570108652114868,0.2601026296615601,-0.1283621191978455
2020-08-20 22:44:24.880 +0200,13609.99471879167,-1.053451538085938,0.115509033203125,-0.1625823974609375,13609.97592279167,2.035652171179616,-1.428725511198535,-0.2866405005672519,0.154036208987236,0.4731078147888184,1.095909237861633,-0.1800291538238525,-0.08893889188766479,-0.02639091014862061,XArbitraryZVertical,-0.4951080794121996,0.4323885649764501,-0.6854703317992491,-0.3131110977081125,-0.9495351314544678,0.2827313840389252,-0.1358162313699722
2020-08-20 22:44:24.901 +0200,13610.01475679167,-1.022048950195312,0.0647430419921875,-0.152587890625,13609.99596079167,2.045117639146101,-1.415424434759387,-0.3064801701002426,0.3951756954193115,0.5708492994308472,1.001706719398499,-0.1526753902435303,-0.1567603945732117,0.006821215152740479,XArbitraryZVertical,-0.4878709482839652,0.4338360114555868,-0.6926093649179025,-0.3066928542493041,-0.9419167637825012,0.3017047047615051,-0.147536501288414
2020-08-20 22:44:24.921 +0200,13610.03479479167,-0.999114990234375,0.0457916259765625,-0.1403656005859375,13610.01599879167,2.057375195720265,-1.399305812571927,-0.3239936445263154,0.4385603368282318,0.6575663685798645,0.9174889922142029,-0.1261414289474487,-0.2311525046825409,0.03091776371002197,XArbitraryZVertical,-0.4807358692683908,0.4335974900720296,-0.7003791484871515,-0.3005916027998304,-0.9340662956237793,0.3183549642562866,-0.1617724746465683
2020-08-20 22:44:24.941 +0200,13610.05483279167,-0.993133544921875,0.0180511474609375,-0.1111297607421875,13610.03603679167,2.068611003048442,-1.381892817598966,-0.3400475565016327,0.2830621004104614,0.701093316078186,0.8501130342483521,-0.1081022620201111,-0.2721359431743622,0.06093132495880127,XArbitraryZVertical,-0.473188663482546,0.4331025144786946,-0.7079367835350159,-0.2955337878828839,-0.9259681701660156,0.33353191614151,-0.1770294010639191
2020-08-20 22:44:24.961 +0200,13610.07486979167,-0.993316650390625,0.0093841552734375,-0.0900421142578125,13610.05607479167,2.074583868841516,-1.365649278581746,-0.3555730611096913,-0.05590477958321571,0.7209011316299438,0.7779077291488647,-0.1050180792808533,-0.3103899955749512,0.09676444530487061,XArbitraryZVertical,-0.4649613545101842,0.4339662814380716,-0.7142025961860362,-0.2922307953283916,-0.9177898168563843,0.3481276333332062,-0.1909684091806412
2020-08-20 22:44:24.981 +0200,13610.09490779167,-0.9656219482421875,0.0391845703125,-0.086395263671875,13610.07611179167,2.072552041362224,-1.351514183304591,-0.3711102133744333,-0.4503651261329651,0.7652398347854614,0.6881123185157776,-0.1155467629432678,-0.3426222801208496,0.1344478726387024,XArbitraryZVertical,-0.455670679244788,0.4370398559257252,-0.7186628101939982,-0.2913488874364654,-0.909609317779541,0.3626503050327301,-0.2027207911014557
2020-08-20 22:44:25.001 +0200,13610.11494579167,-0.886505126953125,0.0740203857421875,-0.0914764404296875,13610.09614979167,2.062203385076783,-1.339350820486722,-0.386330919235445,-0.8100396990776062,0.8328953385353088,0.5732723474502563,-0.1053875684738159,-0.3380939960479736,0.1517370939254761,XArbitraryZVertical,-0.4452592723536312,0.4421593614039197,-0.7213104836609873,-0.2931730839166111,-0.9015988111495972,0.376792311668396,-0.2124785631895065
2020-08-20 22:44:25.021 +0200,13610.13498379167,-0.808746337890625,0.09423828125,-0.0833892822265625,13610.11618779167,2.044125114972928,-1.329189394114199,-0.4010411810040841,-1.1601722240448,0.8580470085144043,0.4669046103954315,-0.05003678798675537,-0.3124269545078278,0.1540699005126953,XArbitraryZVertical,-0.4338690099076353,0.4490192078761909,-0.7222179220618845,-0.2975579153964584,-0.8939144015312195,0.3903771340847015,-0.2202788591384888
2020-08-20 22:44:25.041 +0200,13610.15502179167,-0.7760009765625,0.1157073974609375,-0.0596466064453125,13610.13622579167,2.017496880105299,-1.323159671365046,-0.4154861788393602,-1.544079661369324,0.7953370213508606,0.305976539850235,0.03043746948242188,-0.3051808774471283,0.1597695350646973,XArbitraryZVertical,-0.421950198171414,0.4580703267084067,-0.7208170692105156,-0.3042243243224096,-0.8870100975036621,0.403634786605835,-0.2242592126131058
2020-08-20 22:44:25.061 +0200,13610.17505879167,-0.767913818359375,0.1402587890625,-0.0439910888671875,13610.15626379167,1.9836739425843,-1.321820062007036,-0.4267614634408065,-1.658174514770508,0.7229661345481873,0.03346334397792816,0.07049906253814697,-0.2903775572776794,0.1813197731971741,XArbitraryZVertical,-0.4106774638722266,0.4681754763808711,-0.7169195987394825,-0.3133401139625644,-0.8822417855262756,0.413924902677536,-0.2243114858865738
2020-08-20 22:44:25.081 +0200,13610.195096875,-0.7842254638671875,0.1660003662109375,-0.019134521484375,13610.17630079167,1.947622893692947,-1.323418134146795,-0.4338933373483881,-1.704400897026062,0.6131312847137451,-0.1492636948823929,0.08503556251525879,-0.2761292457580566,0.1974987983703613,XArbitraryZVertical,-0.4008082476994789,0.4777722728824125,-0.7115403302349943,-0.3237233001347852,-0.8797144889831543,0.4204065501689911,-0.222172811627388
2020-08-20 22:44:25.101 +0200,13610.215134875,-0.8150634765625,0.194091796875,-0.00933837890625,13610.196338875,1.908303544391253,-1.32880916339945,-0.4375547897080437,-1.837353467941284,0.5143746137619019,-0.382723867893219,0.07423222064971924,-0.2516326606273651,0.21399986743927,XArbitraryZVertical,-0.3922246932527649,0.48747453753331,-0.7043647623851543,-0.3352592178486218,-0.8793991804122925,0.4237258732318878,-0.2170567363500595
2020-08-20 22:44:25.121 +0200,13610.235172875,-0.847198486328125,0.2159881591796875,-0.005035400390625,13610.216376875,1.865345494846711,-1.337154105225995,-0.4353496996551115,-1.859162926673889,0.4626370668411255,-0.7595066428184509,0.05008518695831299,-0.2225984334945679,0.2236073017120361,XArbitraryZVertical,-0.3851914482472722,0.4966530828544549,-0.6951562292006516,-0.3488855503995033,-0.8820866346359253,0.4217275083065033,-0.2099265307188034
2020-08-20 22:44:25.141 +0200,13610.255210875,-0.90478515625,0.2563629150390625,-0.0013885498046875,13610.236414875,1.82101030551991,-1.347312226860681,-0.4254610618915812,-1.849933862686157,0.3585687279701233,-1.100311279296875,0.0245518684387207,-0.1914070844650269,0.2218198776245117,XArbitraryZVertical,-0.3804095331536981,0.504334835115327,-0.6841467511268455,-0.364524637966354,-0.8881968259811401,0.4127407968044281,-0.2018699198961258
2020-08-20 22:44:25.161 +0200,13610.275247875,-0.990020751953125,0.29791259765625,-0.0073089599609375,13610.256452875,1.774909112852779,-1.360326102202898,-0.408470853258326,-1.900190114974976,0.2093326300382614,-1.472822785377502,-0.01343017816543579,-0.1416395008563995,0.2155913114547729,XArbitraryZVertical,-0.378009624048035,0.511119187148838,-0.6709097402700411,-0.3817670419634312,-0.8974776268005371,0.3972064554691315,-0.191731795668602
2020-08-20 22:44:25.181 +0200,13610.295285875,-1.08197021484375,0.3338623046875,-0.004974365234375,13610.276489875,1.727043034485691,-1.375907036516476,-0.3834716514233901,-1.900212049484253,0.07314230501651764,-1.854841351509094,-0.07953464984893799,-0.07521361112594604,0.2013980746269226,XArbitraryZVertical,-0.3781512935057778,0.5169189423345335,-0.6551004020267881,-0.4007990868656585,-0.9098154306411743,0.3741422295570374,-0.1795928180217743
2020-08-20 22:44:25.201 +0200,13610.315323875,-1.161880493164062,0.3542022705078125,0.01629638671875,13610.296527875,1.67945956264194,-1.392956119420103,-0.3506509989312335,-1.849425077438354,-0.06133188679814339,-2.186748027801514,-0.158326268196106,-0.01090556383132935,0.1848494410514832,XArbitraryZVertical,-0.3809291994455246,0.5213666568585086,-0.6370385299402919,-0.4210126611094206,-0.9243370890617371,0.3435092568397522,-0.1661395132541656
2020-08-20 22:44:25.221 +0200,13610.335361875,-1.220382690429688,0.3741302490234375,0.041412353515625,13610.316565875,1.632760832356529,-1.410555388844461,-0.3108012625507318,-1.830871343612671,-0.1671187728643417,-2.459235191345215,-0.227832555770874,0.05374696850776672,0.186242938041687,XArbitraryZVertical,-0.3859539107767481,0.5244843259592495,-0.6168618659011423,-0.4420827755669764,-0.9398914575576782,0.3058215975761414,-0.1519115418195724
2020-08-20 22:44:25.241 +0200,13610.355399875,-1.2625732421875,0.401123046875,0.03594970703125,13610.336603875,1.58697788465688,-1.42782683805519,-0.2657286901046652,-1.831288456916809,-0.2571000456809998,-2.638155937194824,-0.2816174030303955,0.1128804683685303,0.2022877931594849,XArbitraryZVertical,-0.3924048890043699,0.5265713753518918,-0.5948317966947915,-0.4635904812413162,-0.9550567865371704,0.2626124620437622,-0.1374819725751877
2020-08-20 22:44:25.261 +0200,13610.375436875,-1.272415161132812,0.44464111328125,0.0042572021484375,13610.356641875,1.542414077636387,-1.444695498887687,-0.21732091536831,-1.776071429252625,-0.3649905622005463,-2.723458528518677,-0.3149246573448181,0.1835402846336365,0.1904481053352356,XArbitraryZVertical,-0.3997603177765325,0.5280031672714525,-0.5712584517727377,-0.4848382834867736,-0.9687252044677734,0.2156143337488174,-0.1228086873888969
2020-08-20 22:44:25.281 +0200,13610.395474875,-1.24530029296875,0.49322509765625,-0.0233612060546875,13610.376678875,1.501863757382235,-1.461164613608076,-0.1671275769113657,-1.550932168960571,-0.4993323981761932,-2.697496175765991,-0.322223961353302,0.2676238417625427,0.1545037627220154,XArbitraryZVertical,-0.4082801702814787,0.5285484127080108,-0.5471271851603333,-0.5045748017514421,-0.9801467657089233,0.1663506329059601,-0.1078877523541451
2020-08-20 22:44:25.301 +0200,13610.415512875,-1.15277099609375,0.5096282958984375,-0.058929443359375,13610.396716875,1.468602694633599,-1.476644892556277,-0.1173181859569989,-1.205361247062683,-0.5645747780799866,-2.574172019958496,-0.3061655759811401,0.367628276348114,0.1064795851707458,XArbitraryZVertical,-0.4180272547184264,0.5277974360970938,-0.5240190022424237,-0.5216197208801231,-0.9887275695800781,0.1170492544770241,-0.09336616098880768
2020-08-20 22:44:25.321 +0200,13610.435550875,-1.059463500976562,0.472198486328125,-0.0621337890625,13610.416754875,1.444086274421194,-1.491387964848579,-0.06952743535688889,-0.7968708872795105,-0.6842390894889832,-2.362168788909912,-0.2209994196891785,0.4424505233764648,0.05609506368637085,XArbitraryZVertical,-0.4289894861255837,0.5257388924002779,-0.5029264902041787,-0.5353797872449547,-0.9944403171539307,0.06947143375873566,-0.07913327217102051
2020-08-20 22:44:25.341 +0200,13610.455588875,-0.9857177734375,0.393096923828125,-0.0865936279296875,13610.436792875,1.429656773209223,-1.507021783619494,-0.02619808971803059,-0.3223547041416168,-0.7975779175758362,-2.037940979003906,-0.1211912631988525,0.4633494019508362,0.03252696990966797,XArbitraryZVertical,-0.4412342667534113,0.5229317327321795,-0.4847687552880026,-0.5448430386768396,-0.9976245760917664,0.0261950921267271,-0.06370945274829865
2020-08-20 22:44:25.362 +0200,13610.475625875,-0.9516754150390625,0.3469085693359375,-0.045501708984375,13610.456830875,1.425576533192973,-1.524074625322683,0.01034237642770435,0.11053466796875,-0.8880953192710876,-1.604525566101074,-0.03606116771697998,0.4286369681358337,-0.007878541946411133,XArbitraryZVertical,-0.4543061790716397,0.5198603582382124,-0.4703773046461058,-0.5496328723415327,-0.9988552927970886,-0.01034219190478325,-0.04670220613479614
2020-08-20 22:44:25.381 +0200,13610.495663875,-0.9457244873046875,0.3475799560546875,-0.021759033203125,13610.476867875,1.429208699022269,-1.54195359491733,0.03774787191062377,0.3149110972881317,-0.8593645691871643,-1.118536710739136,0.008983612060546875,0.3930255174636841,0.002045273780822754,XArbitraryZVertical,-0.4667929309682864,0.5173927563735106,-0.4599968515152278,-0.5502835966676172,-0.9988720417022705,-0.03773890808224678,-0.02881819009780884
2020-08-20 22:44:25.401 +0200,13610.515701875,-0.9465484619140625,0.3511505126953125,-0.020660400390625,13610.496905875,1.43488989543329,-1.55812225084682,0.05598030614044727,0.2645239531993866,-0.7156345844268799,-0.7130573391914368,0.02036821842193604,0.4001735746860504,0.01476281881332397,XArbitraryZVertical,-0.4767645389894509,0.5161091283303609,-0.4528327196829675,-0.5488802437327653,-0.9983533620834351,-0.0559510737657547,-0.01265388447791338
2020-08-20 22:44:25.421 +0200,13610.535739875,-0.9279022216796875,0.359405517578125,-0.0306549072265625,13610.516943875,1.438527094120749,-1.570288469163964,0.0673867500033974,0.1030099093914032,-0.4697811603546143,-0.4462373852729797,0.02014648914337158,0.4175425469875336,0.01363861560821533,XArbitraryZVertical,-0.4834054384484981,0.5158156934329249,-0.4478022985708062,-0.5474728101418757,-0.9977302551269531,-0.06733576208353043,-0.000506704964209348
2020-08-20 22:44:25.442 +0200,13610.555777875,-0.9136810302734375,0.4255218505859375,-0.0218963623046875,13610.536981875,1.439775981298349,-1.577444860283216,0.07428325765295672,0.03766152635216713,-0.253752201795578,-0.2389672994613647,0.0272667407989502,0.42342409491539,-0.001586198806762695,XArbitraryZVertical,-0.4870968044401715,0.5158020727761633,-0.4445153944363546,-0.5468921982646472,-0.9972203373908997,-0.07421495765447617,0.006630150135606527
2020-08-20 22:44:25.462 +0200,13610.575814875,-0.9228363037109375,0.4742889404296875,-0.0057830810546875,13610.557019875,1.439782646066874,-1.580995207853735,0.07715912527237909,-0.04437435418367386,-0.09758869558572769,-0.06571102142333984,0.05118203163146973,0.4755165278911591,-0.003638386726379395,XArbitraryZVertical,-0.488621398020139,0.5160749069770876,-0.4428587484450515,-0.5466186739917555,-0.9969728589057922,-0.07708258926868439,0.01016836054623127
2020-08-20 22:44:25.482 +0200,13610.595852875,-0.9366912841796875,0.4600982666015625,0.0090789794921875,13610.577056875,1.438621259246768,-1.58104358639852,0.07797329102038858,-0.06245375424623489,0.08847465366125107,-0.02775032259523869,0.04606980085372925,0.5399925708770752,0.011452317237854,XArbitraryZVertical,-0.4885402130600506,0.5161748087910615,-0.442304645457317,-0.5470453829185481,-0.9969093203544617,-0.07789430767297745,0.01021594647318125
2020-08-20 22:44:25.502 +0200,13610.615890875,-0.964508056640625,0.4457855224609375,0.0240325927734375,13610.597094875,1.43816349068767,-1.577661790724936,0.07846096458546938,0.03453071415424347,0.2284788936376572,-0.01430573500692844,0.03335022926330566,0.5451934337615967,0.03017348051071167,XArbitraryZVertical,-0.4877984121307625,0.5152425190849748,-0.4428701587388827,-0.5481276137204812,-0.9969000220298767,-0.07838048785924911,0.006844288669526577
2020-08-20 22:44:25.522 +0200,13610.635928875,-1.017364501953125,0.449188232421875,0.0336151123046875,13610.617132875,1.439823682687581,-1.572658901696887,0.07807451015562492,0.1023333296179771,0.2810347676277161,0.06808356940746307,0.01147371530532837,0.5220695734024048,0.04794114828109741,XArbitraryZVertical,-0.4870164286478817,0.5135595858620801,-0.4446511619087942,-0.5489598678026342,-0.9969520568847656,-0.07799521833658218,0.001856900053098798
2020-08-20 22:44:25.542 +0200,13610.655966875,-1.069412231445312,0.441680908203125,0.0216217041015625,13610.637170875,1.441514589933192,-1.566753814078367,0.07568012717314773,0.05433717370033264,0.3201587498188019,0.1742027997970581,-0.03411555290222168,0.5227797031402588,0.06897610425949097,XArbitraryZVertical,-0.4855187149188719,0.5121094728783803,-0.4472081574504072,-0.5495637513674768,-0.9971294403076172,-0.07560790330171585,-0.00403093034401536
2020-08-20 22:44:25.562 +0200,13610.676003875,-1.093643188476562,0.4380950927734375,0.0176544189453125,13610.657208875,1.440921279580285,-1.559644939230795,0.0606415872992897,-0.01061931997537613,0.3480694890022278,0.308134526014328,-0.08867239952087402,0.5026398897171021,0.06951689720153809,XArbitraryZVertical,-0.479877999887488,0.5139569781607489,-0.4528587081924659,-0.548164547445981,-0.9980998635292053,-0.06060442700982094,-0.01113065984100103
2020-08-20 22:44:25.582 +0200,13610.696041875,-1.08331298828125,0.441070556640625,0.015167236328125,13610.677245875,1.439643764083892,-1.552276386227084,0.04421493681206568,-0.03164377808570862,0.3714006245136261,0.5002596378326416,-0.1247948408126831,0.4803051352500916,0.06690144538879395,XArbitraryZVertical,-0.4735729556727638,0.5162153271879835,-0.4586982816547118,-0.5466683566889626,-0.9988513588905334,-0.04420053213834763,-0.01850078254938126
2020-08-20 22:44:25.602 +0200,13610.716079875,-1.058517456054688,0.43212890625,0.01007080078125,13610.697283875,1.439526309793154,-1.545186178977657,0.03217516369560481,0.01048529893159866,0.3249718844890594,0.7009388208389282,-0.1211289167404175,0.4718929827213287,0.07196760177612305,XArbitraryZVertical,-0.468725558567083,0.5172033490951197,-0.4635553465393674,-0.5458144521502408,-0.9991546273231506,-0.03216961398720741,-0.02559409290552139
2020-08-20 22:44:25.622 +0200,13610.736117875,-1.031906127929688,0.4129638671875,-0.001495361328125,13610.717321875,1.441447797483164,-1.539421530996416,0.01614769323128339,0.1352386921644211,0.2526713311672211,0.909335196018219,-0.09865087270736694,0.452353447675705,0.07242834568023682,XArbitraryZVertical,-0.4636037225278209,0.5190267902000413,-0.4696657594412227,-0.5432281819556007,-0.9993775486946106,-0.01614699140191078,-0.03136555850505829
2020-08-20 22:44:25.642 +0200,13610.756155875,-1.004776000976562,0.4166259765625,-0.00286865234375,13610.737359875,1.446667289062162,-1.535052693218148,-0.003760601365805187,0.3311557173728943,0.1831566840410233,1.09136700630188,-0.07479333877563477,0.4128938317298889,0.07083010673522949,XArbitraryZVertical,-0.4585710698640446,0.5213872715413802,-0.4772920973723092,-0.5385724140849844,-0.9993543028831482,0.003760592546314001,-0.03573577478528023
2020-08-20 22:44:25.662 +0200,13610.776192875,-1.00518798828125,0.409942626953125,-0.0002593994140625,13610.757397875,1.456222488820147,-1.532125882810218,-0.02683319702486031,0.5445910692214966,0.09844153374433517,1.236806273460388,-0.04313570261001587,0.3896299302577972,0.06733107566833496,XArbitraryZVertical,-0.454108108289395,0.5238915753281916,-0.4864614494324485,-0.5316753040509957,-0.998892605304718,0.02682997658848763,-0.0386468879878521
2020-08-20 22:44:25.682 +0200,13610.796230875,-1.019180297851562,0.3897247314453125,0.0157928466796875,13610.777434875,1.471140078369409,-1.530218632660628,-0.05188534374677461,0.8420950174331665,0.03903892636299133,1.320817470550537,-0.03711283206939697,0.3631842732429504,0.0651390552520752,XArbitraryZVertical,-0.4507228169911974,0.5259210560624813,-0.4971621423466543,-0.522576174567695,-0.9978322982788086,0.05186206847429276,-0.04051196947693825
2020-08-20 22:44:25.702 +0200,13610.816268875,-1.018768310546875,0.35150146484375,0.02935791015625,13610.797472875,1.492757273646981,-1.52788178952123,-0.07799598055588249,1.207664847373962,0.06159216910600662,1.371712327003479,-0.05297529697418213,0.3219240605831146,0.08264529705047607,XArbitraryZVertical,-0.4486765414194432,0.5265965172440524,-0.509733198683375,-0.5114269268639309,-0.9960419535636902,0.07791692763566971,-0.04277093708515167
2020-08-20 22:44:25.722 +0200,13610.836306875,-1.06097412109375,0.3307037353515625,0.017852783203125,13610.817510875,1.521929497035751,-1.523649237067096,-0.1049331169456905,1.567634224891663,0.07562090456485748,1.448092937469482,-0.05567562580108643,0.2616394460201263,0.1052449941635132,XArbitraryZVertical,-0.4478709855940762,0.5253345448669593,-0.52452095189732,-0.4983101289647388,-0.9933944940567017,0.1047406569123268,-0.0468703918159008
2020-08-20 22:44:25.742 +0200,13610.856344875,-1.12567138671875,0.3499603271484375,0.015625,13610.837548875,1.558083135952908,-1.517726303825098,-0.1330256805751512,1.865344285964966,0.1033795699477196,1.531575679779053,-0.08512461185455322,0.2049887776374817,0.1018272042274475,XArbitraryZVertical,-0.4480683836031351,0.5224428100547581,-0.5412341985712746,-0.4830670415726668,-0.9897696971893311,0.132633700966835,-0.0525764673948288
2020-08-20 22:44:25.762 +0200,13610.876381875,-1.176742553710938,0.371673583984375,0.0095672607421875,13610.857586875,1.598292609029205,-1.508936283560658,-0.1621081478564315,1.889499545097351,0.2019609957933426,1.588250041007996,-0.1502872705459595,0.1860373020172119,0.1093659400939941,XArbitraryZVertical,-0.4481610153540659,0.5183113573147,-0.5592118446348868,-0.4666767232997322,-0.9850015640258789,0.1613990664482117,-0.06101008132100105
2020-08-20 22:44:25.782 +0200,13610.896419875,-1.1614990234375,0.370941162109375,0.034881591796875,13610.877623875,1.638188608067984,-1.496286197155308,-0.1917436491456277,1.804407596588135,0.3554570972919464,1.622346043586731,-0.2157773971557617,0.1795556247234344,0.1091001033782959,XArbitraryZVertical,-0.4467679668896034,0.5136729558795825,-0.5774529920901084,-0.4506512581920259,-0.9789497256278992,0.1905708760023117,-0.07307695597410202
2020-08-20 22:44:25.802 +0200,13610.916457875,-1.1494140625,0.412139892578125,0.03948974609375,13610.897661875,1.676982844669121,-1.479350887980231,-0.2217674982313932,1.727933287620544,0.5230532884597778,1.684662461280823,-0.2342529892921448,0.1582665741443634,0.1494507789611816,XArbitraryZVertical,-0.4435171225610729,0.5086764371395764,-0.5958089490305353,-0.4353763911852617,-0.9714343547821045,0.219954177737236,-0.08908168971538544
2020-08-20 22:44:25.822 +0200,13610.936495875,-1.215850830078125,0.4698333740234375,0.03228759765625,13610.917699875,1.714605423581052,-1.459926542510786,-0.2525819080542924,1.610094428062439,0.5264541506767273,1.735111474990845,-0.2114548683166504,0.1541436314582825,0.1748443841934204,XArbitraryZVertical,-0.4387400305705328,0.5039257045583396,-0.6139140844513996,-0.4203279559178228,-0.9623255133628845,0.2499047815799713,-0.1071321368217468
2020-08-20 22:44:25.842 +0200,13610.956533875,-1.233795166015625,0.49969482421875,0.018341064453125,13610.937737875,1.753197262404948,-1.438536193764107,-0.2833065440991262,1.730040907859802,0.6026498675346375,1.760546445846558,-0.2728546857833862,0.1805616617202759,0.1886881589889526,XArbitraryZVertical,-0.4333380580340136,0.4989079981670644,-0.6319005326137649,-0.4049823789923985,-0.9517509937286377,0.2795318961143494,-0.1266178786754608
2020-08-20 22:44:25.862 +0200,13610.976570875,-1.173980712890625,0.4979095458984375,-0.0101470947265625,13610.957775875,1.795859848335794,-1.413014609230213,-0.3139670454260637,1.853906869888306,0.6838520169258118,1.868552327156067,-0.3255258202552795,0.1972537934780121,0.2033421397209167,XArbitraryZVertical,-0.4273289761185783,0.4926119519767662,-0.6507836859494989,-0.3888496751045992,-0.9393014311790466,0.3088341653347015,-0.1494468152523041
2020-08-20 22:44:25.882 +0200,13610.996608875,-1.077407836914062,0.5038604736328125,-0.0460968017578125,13610.977812875,1.841466062474004,-1.384311981951838,-0.3457973051059475,1.822420001029968,0.6981135606765747,1.995384097099304,-0.3071455955505371,0.1744803190231323,0.2016186714172363,XArbitraryZVertical,-0.4202981820718035,0.4859364671366595,-0.6701673292969423,-0.3716059314145017,-0.9244939684867859,0.3389469087123871,-0.1744303703308105
2020-08-20 22:44:25.902 +0200,13611.016646875,-1.001922607421875,0.5550079345703125,-0.0909271240234375,13610.997850875,1.888438940665592,-1.354367461013385,-0.3790047902701249,1.834632158279419,0.6077897548675537,2.127046823501587,-0.2287015914916992,0.1392951905727386,0.1903082728385925,XArbitraryZVertical,-0.412402242112042,0.4797630727107965,-0.6892067470955557,-0.3531937922433075,-0.9073594808578491,0.3699960708618164,-0.1995035707950592
2020-08-20 22:44:25.922 +0200,13611.036684875,-0.9816436767578125,0.6255340576171875,-0.1204833984375,13611.017888875,1.940415189912944,-1.323090848131127,-0.4132820785921139,2.035919666290283,0.4969165027141571,2.307258605957031,-0.1610814332962036,0.1445108652114868,0.1743975877761841,XArbitraryZVertical,-0.4045582517911792,0.4733536825740666,-0.70834665420509,-0.3324363736738339,-0.8878549337387085,0.4016172289848328,-0.2245378196239471
2020-08-20 22:44:25.942 +0200,13611.056722875,-0.9727935791015625,0.623260498046875,-0.1095733642578125,13611.037926875,1.998872154861509,-1.290287893039358,-0.4488472348997536,2.150167226791382,0.3561724126338959,2.501965522766113,-0.1436475515365601,0.1904873251914978,0.1550766825675964,XArbitraryZVertical,-0.3969615135677455,0.4665945125337891,-0.7276144258286857,-0.3086880553234785,-0.8657341599464417,0.4339272379875183,-0.2494222372770309
2020-08-20 22:44:25.962 +0200,13611.076759875,-0.9474639892578125,0.6385955810546875,-0.1082916259765625,13611.057964875,2.063184250791084,-1.254628299153511,-0.4856404637188148,2.269721984863281,0.3272206485271454,2.681208610534668,-0.1643134355545044,0.1762052178382874,0.1860560178756714,XArbitraryZVertical,-0.3889646488391921,0.4595849874453001,-0.7468217692628676,-0.2823923479380521,-0.8405411243438721,0.4667748808860779,-0.2749762833118439
2020-08-20 22:44:25.983 +0200,13611.096797875,-0.926666259765625,0.6955718994140625,-0.12750244140625,13611.078001875,2.134767582916104,-1.213150851968565,-0.5220363324997559,2.42746639251709,0.3578283488750458,2.810317277908325,-0.171202540397644,0.1457325220108032,0.2195796966552734,XArbitraryZVertical,-0.3801374880941688,0.4514137035734294,-0.7662698437034318,-0.2540701027748861,-0.8119572401046753,0.4986462891101837,-0.3034423291683197
2020-08-20 22:44:26.003 +0200,13611.116835875,-0.89324951171875,0.6887664794921875,-0.1198272705078125,13611.098039875,2.212847837113045,-1.165942553629514,-0.5564412398828565,2.491420269012451,0.3481863737106323,2.855571985244751,-0.1787565946578979,0.1715662479400635,0.231711745262146,XArbitraryZVertical,-0.370595426769918,0.4420718534522551,-0.7854351910414695,-0.2243280764087958,-0.7804956436157227,0.5281676650047302,-0.3344630002975464
2020-08-20 22:44:26.023 +0200,13611.136873875,-0.8693695068359375,0.70574951171875,-0.1235198974609375,13611.118077875,2.295062469468505,-1.114286502615756,-0.5885539453985622,2.417628288269043,0.3535654544830322,2.934157848358154,-0.1821185946464539,0.1575214266777039,0.2658295631408691,XArbitraryZVertical,-0.3602597267700043,0.4323065860458393,-0.8035944107427909,-0.1938038672214782,-0.7465707659721375,0.5551588535308838,-0.3666478991508484
2020-08-20 22:44:26.043 +0200,13611.156911875,-0.8293914794921875,0.793304443359375,-0.15386962890625,13611.138115875,2.379043339275472,-1.059394337700796,-0.6191877051099608,2.283560276031494,0.3796921074390411,2.966185808181763,-0.1867260932922363,0.1257717609405518,0.3030393123626709,XArbitraryZVertical,-0.3488586127329191,0.4231146913430594,-0.8201931265744284,-0.1629566526757092,-0.710161566734314,0.5803738832473755,-0.3985432386398315
2020-08-20 22:44:26.063 +0200,13611.176948875,-0.7398223876953125,0.8571929931640625,-0.2407379150390625,13611.158153875,2.465283727174807,-0.999779489513729,-0.6469500438421453,2.243231534957886,0.4725746512413025,2.980242729187012,-0.1975939869880676,0.1811917424201965,0.30511873960495,XArbitraryZVertical,-0.3361851676181272,0.4139382970394988,-0.8355393890641007,-0.1323198317179126,-0.6713364124298096,0.6027555465698242,-0.4312692284584045
2020-08-20 22:44:26.083 +0200,13611.196987,-0.638153076171875,0.85272216796875,-0.3274383544921875,13611.178190875,2.555180961547684,-0.9349022390052396,-0.6697997545289213,2.296209096908569,0.4708443880081177,2.92921257019043,-0.1636598110198975,0.2456806898117065,0.2740828990936279,XArbitraryZVertical,-0.3226116336277918,0.4038936909992569,-0.8499461607221811,-0.1018976988236194,-0.6307167410850525,0.6208290457725525,-0.4655832350254059
2020-08-20 22:44:26.103 +0200,13611.217025,-0.579833984375,0.7984619140625,-0.3521881103515625,13611.198229,2.647296755821905,-0.8689665227068407,-0.6880016900845759,2.14574146270752,0.3143783509731293,2.951238870620728,-0.09336179494857788,0.245333731174469,0.2073436975479126,XArbitraryZVertical,-0.3093982502274663,0.3935710385799325,-0.8627265319047197,-0.07125707812915343,-0.5899416208267212,0.6349947452545166,-0.4987491071224213
2020-08-20 22:44:26.124 +0200,13611.237063,-0.4890899658203125,0.7941131591796875,-0.4099884033203125,13611.218267,2.738934631507304,-0.8052873523198646,-0.7052135124015654,1.903541564941406,0.1902042031288147,3.005362510681152,-0.06402909755706787,0.1877838969230652,0.2055765390396118,XArbitraryZVertical,-0.2967792211809576,0.3848482160547242,-0.873045498678155,-0.0400694783018114,-0.5490448474884033,0.6481963992118835,-0.5276278853416443
2020-08-20 22:44:26.143 +0200,13611.257101,-0.41680908203125,0.760650634765625,-0.452484130859375,13611.238305,2.831278190644186,-0.7434111793141246,-0.7194374049828902,1.942083716392517,-0.05975769087672234,3.007104158401489,-0.03237992525100708,0.1479586958885193,0.1559815406799316,XArbitraryZVertical,-0.2851913260455826,0.3765676294203632,-0.8813576905789292,-0.008450374363556713,-0.509075403213501,0.6589615941047668,-0.5537254810333252
2020-08-20 22:44:26.163 +0200,13611.277138,-0.390838623046875,0.7557830810546875,-0.5286102294921875,13611.258343,2.925389339698567,-0.6848808112659474,-0.7316437684851592,1.767139673233032,-0.3083169162273407,3.090933084487915,0.0250173807144165,0.1358528137207031,0.1659180521965027,XArbitraryZVertical,-0.2753837769602343,0.3688115172962801,-0.8874350425801731,0.02451324249306847,-0.4706889092922211,0.6680936217308044,-0.5762836933135986
2020-08-20 22:44:26.183 +0200,13611.297176,-0.4043121337890625,0.8533935546875,-0.5739593505859375,13611.27838,3.021468530647421,-0.628706006896967,-0.7398966402409118,1.939496517181396,-0.5448963642120361,3.028956174850464,0.02351370453834534,0.08450460433959961,0.1010794639587402,XArbitraryZVertical,-0.2671228585699841,0.3605336584372483,-0.8917698104431304,0.05837298195895502,-0.4343333542346954,0.6742115616798401,-0.5973217487335205
2020-08-20 22:44:26.203 +0200,13611.317214,-0.4622802734375,0.9167022705078125,-0.6134796142578125,13611.298418,3.119381205806001,-0.5762598050016915,-0.7406913242285224,2.102421045303345,-0.8070260286331177,2.960657119750977,-0.004425853490829468,0.1664561629295349,0.084308922290802,XArbitraryZVertical,-0.2610241975571634,0.3499378851260284,-0.8948611640321529,0.09291595505608713,-0.402131199836731,0.6747982501983643,-0.6188197135925293
2020-08-20 22:44:26.223 +0200,13611.337252,-0.4845428466796875,0.8341064453125,-0.6441802978515625,13611.318456,-3.065064315650786,-0.5278306402965541,-0.7342170784079872,2.299313068389893,-0.9522972106933594,2.923313856124878,-0.08498337864875793,0.2649215459823608,0.04449349641799927,XArbitraryZVertical,-0.2565575198247831,0.3369230140981179,-0.8968108231330983,0.1280292694059112,-0.3738951086997986,0.6700061559677124,-0.6413222551345825
2020-08-20 22:44:26.243 +0200,13611.35729,-0.441009521484375,0.7115631103515625,-0.5845489501953125,13611.338494,-2.964682843093477,-0.4807617411375592,-0.7183215684183981,2.748149633407593,-1.021626710891724,2.851009607315063,-0.1450268030166626,0.2373029589653015,0.03156721591949463,XArbitraryZVertical,-0.2521678733035173,0.3203585204095322,-0.8983270312994217,0.1636775752492918,-0.3481874167919159,0.6581218838691711,-0.6675635576248169
2020-08-20 22:44:26.263 +0200,13611.377327,-0.389892578125,0.6750030517578125,-0.546295166015625,13611.358532,-2.862661701780654,-0.4348816375469907,-0.688687749207359,3.303492307662964,-0.984980046749115,2.831668853759766,-0.1442539691925049,0.1286401748657227,0.1034295558929443,XArbitraryZVertical,-0.2469187976515142,0.2982003451398873,-0.9000839535352615,0.1998913731953969,-0.3252799510955811,0.635524570941925,-0.7002153396606445
2020-08-20 22:44:26.284 +0200,13611.397365,-0.39453125,0.6624298095703125,-0.505706787109375,13611.378569,-2.759976759986018,-0.3905248433668486,-0.6474005116993649,3.651822328567505,-0.949863612651825,2.879107713699341,-0.1065883636474609,0.09455513954162598,0.1943069696426392,XArbitraryZVertical,-0.2397865617369263,0.2714833361872714,-0.9014652156545474,0.2369803036366832,-0.3036460876464844,0.6031149625778198,-0.7375984191894531
2020-08-20 22:44:26.304 +0200,13611.417403,-0.4281005859375,0.6250152587890625,-0.4922027587890625,13611.398607,-2.66058793863448,-0.350713614074488,-0.5982578274243724,3.776430606842041,-0.8333659768104553,2.836115121841431,-0.1139125525951385,0.1212907433509827,0.2591648101806641,XArbitraryZVertical,-0.2310295554235544,0.2421078662900523,-0.9016115821160362,0.2740541728261557,-0.2838965058326721,0.563203752040863,-0.7760182619094849
2020-08-20 22:44:26.323 +0200,13611.437441,-0.4372711181640625,0.5421600341796875,-0.57330322265625,13611.418645,-2.569700398514012,-0.3155760064759686,-0.5458667317035241,3.583251237869263,-0.5486581325531006,2.637034177780151,-0.1597698926925659,0.1350601315498352,0.3324187994003296,XArbitraryZVertical,-0.2202616741601212,0.2127179282657271,-0.900458098297197,0.308886917845075,-0.2652612328529358,0.5191590785980225,-0.8124717473983765
2020-08-20 22:44:26.343 +0200,13611.457479,-0.4063262939453125,0.4421844482421875,-0.6530914306640625,13611.438683,-2.491320332799067,-0.2838099990924715,-0.4953456034130115,3.260776281356812,-0.1551079154014587,2.363139390945435,-0.202483206987381,0.1128943562507629,0.3111768364906311,XArbitraryZVertical,-0.2074523646627769,0.1861701143517324,-0.8983819564501809,0.3394321394848004,-0.2463586777448654,0.4753357470035553,-0.8446084260940552
2020-08-20 22:44:26.364 +0200,13611.477516,-0.3477325439453125,0.3596038818359375,-0.681182861328125,13611.458721,-2.424228950907405,-0.2526881908991244,-0.4458075763909373,3.126201391220093,0.2012933492660522,2.09201192855835,-0.1998855173587799,0.0586799681186676,0.2399947047233582,XArbitraryZVertical,-0.192053307575605,0.1622046452675956,-0.896137122569071,0.3657095536018241,-0.2255726158618927,0.4311866760253906,-0.8736103773117065
2020-08-20 22:44:26.383 +0200,13611.497554,-0.304168701171875,0.29022216796875,-0.75592041015625,13611.478758,-2.364204309618043,-0.2210611973741057,-0.3945770405804268,3.095751762390137,0.4836499392986298,2.015783309936523,-0.1684236228466034,0.005964189767837524,0.2303714752197266,XArbitraryZVertical,-0.1739283368229444,0.1392900191433147,-0.8937218771354999,0.3893692426224982,-0.2024166136980057,0.3844177722930908,-0.9006944298744202
2020-08-20 22:44:26.404 +0200,13611.517592,-0.266143798828125,0.18646240234375,-0.83782958984375,13611.498796,-2.310604240486609,-0.1899901678772418,-0.3441844102087594,2.872148513793945,0.6912718415260315,1.842368006706238,-0.1445966213941574,-0.007689833641052246,0.1986907124519348,XArbitraryZVertical,-0.1543097255276636,0.1182468326859689,-0.8907819908570063,0.4107477180081511,-0.1777734160423279,0.3374290466308594,-0.9244123697280884
2020-08-20 22:44:26.423 +0200,13611.53763,-0.227264404296875,0.097869873046875,-0.874114990234375,13611.518834,-2.262597225498606,-0.1591663789947273,-0.2952008826614087,2.651790142059326,0.8620973825454712,1.784810066223145,-0.1300407350063324,-0.06579571962356567,0.1363124251365662,XArbitraryZVertical,-0.1335377129467755,0.09920966470504787,-0.8873179362933095,0.4301070341448104,-0.1516392678022385,0.2909320592880249,-0.9446502327919006
2020-08-20 22:44:26.444 +0200,13611.557667,-0.16229248046875,0.0838775634765625,-0.8478240966796875,13611.538872,-2.220000875646202,-0.1281777028484105,-0.2525036954218556,2.145011186599731,1.113547801971436,1.643278956413269,-0.1215250641107559,-0.1212804466485977,0.08761924505233765,XArbitraryZVertical,-0.1127837661654626,0.08430026701836461,-0.8831597268228319,0.4474395772529988,-0.1237736120820045,0.249829038977623,-0.9603465795516968
2020-08-20 22:44:26.464 +0200,13611.577705,-0.1055450439453125,0.1333770751953125,-0.8163604736328125,13611.558909,-2.183963929097731,-0.0952995382208655,-0.2182922125123002,1.657496452331543,1.293128967285156,1.441512823104858,-0.09588925540447235,-0.1307170987129211,0.1174519658088684,XArbitraryZVertical,-0.09215343271015709,0.07475512162302214,-0.8788685844651755,0.4620708195617979,-0.0928971916437149,0.2165626734495163,-0.9718388319015503
2020-08-20 22:44:26.484 +0200,13611.597743,-0.0620574951171875,0.1644744873046875,-0.8641204833984375,13611.578947,-2.154564425959068,-0.06341572579903923,-0.190479511128914,1.389037609100342,1.258457779884338,1.198358297348022,-0.0620124489068985,-0.06631314754486084,0.1566665172576904,XArbitraryZVertical,-0.07281956825827281,0.06875610419638875,-0.8748136692626886,0.4739948152963794,-0.0622270330786705,0.1893297582864761,-0.9799398183822632
