loggingTime(txt),accelerometerTimestamp_sinceReboot(s),accelerometerAccelerationX(G),accelerometerAccelerationY(G),accelerometerAccelerationZ(G),motionTimestamp_sinceReboot(s),motionYaw(rad),motionRoll(rad),motionPitch(rad),motionRotationRateX(rad/s),motionRotationRateY(rad/s),motionRotationRateZ(rad/s),motionUserAccelerationX(G),motionUserAccelerationY(G),motionUserAccelerationZ(G),motionAttitudeReferenceFrame(txt),motionQuaternionX(R),motionQuaternionY(R),motionQuaternionZ(R),motionQuaternionW(R),motionGravityX(G),motionGravityY(G),motionGravityZ(G)
2020-08-20 22:37:57.213 +0200,13238.8986665,-0.1877288818359375,-0.056060791015625,-0.9489288330078125,13238.8786295,-1.462770335030795,-0.1387455141261197,0.05181872973595868,-0.1899980008602142,-0.6621460318565369,0.1178592666983604,-0.026018887758255,-0.06875099241733551,-0.05931514501571655,XArbitraryZVertical,-0.02704694240050922,-0.06883329411223164,-0.6674075345396734,0.7410112247650079,-0.1381151527166367,-0.05179554224014282,-0.9890608787536621
2020-08-20 22:37:57.215 +0200,13238.9187035,-0.159515380859375,-0.090240478515625,-0.9540557861328125,13238.8986665,-1.463538555672737,-0.1476068465416485,0.05171286549705735,0.01969331130385399,-0.223582848906517,-0.08208493888378143,0.007214084267616272,-0.02690695971250534,0.03372079133987427,XArbitraryZVertical,-0.03007075570945615,-0.07206906654880875,-0.6675636203038539,0.7404462063825455,-0.1468748152256012,-0.05168981850147247,-0.98780357837677
2020-08-20 22:37:57.216 +0200,13238.9387405,-0.094879150390625,-0.059906005859375,-1.00927734375,13238.9187035,-1.463962547067761,-0.1477572249085643,0.05268232296678119,0.03800014778971672,0.145964041352272,0.002796781016513705,-0.04994601011276245,-0.02482496947050095,0.04779583215713501,XArbitraryZVertical,-0.02977615063782087,-0.07244062886934551,-0.6677364839844173,0.7402660127313274,-0.1470159143209457,-0.05265795812010765,-0.9877314567565918
2020-08-20 22:37:57.218 +0200,13238.9587775,-0.1201324462890625,-0.01043701171875,-1.02777099609375,13238.9387405,-1.463749913867554,-0.1456243328510552,0.05172148889060223,-0.1085062026977539,0.0461152121424675,0.02109463885426521,0.04050397872924805,-0.03037763759493828,-0.0042991042137146,XArbitraryZVertical,-0.0294133437451124,-0.07133481508972073,-0.6676715090432959,0.74044650978847,-0.1449161320924759,-0.05169843137264252,-0.9880924224853516
2020-08-20 22:37:57.218 +0200,13238.9788135,-0.107025146484375,-0.015869140625,-1.03741455078125,13238.9587775,-1.463621231587551,-0.1445407819468288,0.04973880353744201,-0.0682234913110733,0.07914187014102936,0.02040107361972332,0.02345927059650421,0.02475732564926147,-0.03006750345230103,XArbitraryZVertical,-0.02978362346340268,-0.07027637759120341,-0.667603220595735,0.740594483807769,-0.1438598781824112,-0.04971829801797867,-0.9883483052253723
2020-08-20 22:37:57.219 +0200,13238.9988505,-0.11834716796875,-0.063079833984375,-1.015457153320312,13238.9788135,-1.463632814902048,-0.1426711350645604,0.05100225089176142,0.04053760692477226,0.09515279531478882,-0.0191276166588068,0.02433097362518311,0.04517488181591034,-0.047615647315979,XArbitraryZVertical,-0.02869053556401242,-0.07000393617536825,-0.6676579482582001,0.740614032088341,-0.1420027166604996,-0.05098014324903488,-0.9885526299476624
2020-08-20 22:37:57.233 +0200,13239.0188875,-0.1259002685546875,-0.076904296875,-0.990692138671875,13238.9988505,-1.463733853595689,-0.1426295166380627,0.05246396196990204,0.04547590762376785,0.07858074456453323,-0.004436707124114037,0.02702729403972626,0.000949520617723465,-0.03794723749160767,XArbitraryZVertical,-0.02813713580377439,-0.07047307002859271,-0.6677220872759402,0.7405329632309534,-0.1419508308172226,-0.05243989825248718,-0.9884836673736572
2020-08-20 22:37:57.253 +0200,13239.0389245,-0.118072509765625,-0.06396484375,-0.978912353515625,13239.0188875,-1.463344691894008,-0.14043707790123,0.05388486249803721,0.01099303085356951,0.1115554720163345,0.03345273435115814,0.008713066577911377,-0.02361633628606796,-0.009369730949401855,XArbitraryZVertical,-0.02686357599450339,-0.07013890948090548,-0.6676328933555411,0.7406924595386449,-0.1397727429866791,-0.05385879054665565,-0.9887177348136902
2020-08-20 22:37:57.273 +0200,13239.0589615,-0.115997314453125,-0.0606689453125,-0.9766387939453125,13239.0389245,-1.462525185138603,-0.1374790592006569,0.05341241828097968,0.001244929153472185,0.1053828001022339,0.0451519601047039,0.01174283027648926,-0.01578769832849503,0.007576048374176025,XArbitraryZVertical,-0.02602346721777305,-0.06889694466670511,-0.6673604499178091,0.741084313422459,-0.1368509531021118,-0.05338702350854874,-0.9891519546508789
2020-08-20 22:37:57.293 +0200,13239.0789985,-0.12005615234375,-0.05291748046875,-0.98480224609375,13239.0589615,-1.461692254322634,-0.1350564383928704,0.05221086774799872,0.02307699248194695,0.08530629426240921,0.0368095338344574,0.01504519581794739,-0.01043422520160675,0.01088488101959229,XArbitraryZVertical,-0.02563362729111201,-0.06761053886026666,-0.6670631424768211,0.7414839604682505,-0.134462758898735,-0.05218714848160744,-0.9895434379577637
2020-08-20 22:37:57.313 +0200,13239.0990355,-0.1166839599609375,-0.063690185546875,-0.9801483154296875,13239.0789985,-1.460988518595685,-0.1327285028920746,0.05238708528932406,0.04455231875181198,0.07464618980884552,0.02641205862164497,0.009577929973602295,-0.001734133809804916,0.004722118377685547,XArbitraryZVertical,-0.02476811878111562,-0.06681469788076624,-0.6668343701826746,0.7417912442089377,-0.1321575790643692,-0.05236312747001648,-0.9898446798324585
2020-08-20 22:37:57.332 +0200,13239.1190715,-0.1176300048828125,-0.04351806640625,-0.981231689453125,13239.0990355,-1.460195888458884,-0.1311807848046132,0.05389056210999629,0.04506777971982956,0.05492415279150009,0.04501012712717056,0.008465543389320374,-0.009237051010131836,0.00760418176651001,XArbitraryZVertical,-0.02366622158941007,-0.06674937799808241,-0.6665826893815653,0.7420592791615689,-0.1306149810552597,-0.0538644827902317,-0.9899688363075256
2020-08-20 22:37:57.353 +0200,13239.1391085,-0.1245880126953125,-0.0456695556640625,-0.974578857421875,13239.1190715,-1.459048546234258,-0.1303413794218979,0.05513427372112358,0.04125213250517845,0.02540034800767899,0.05831562355160713,0.008445724844932556,0.002036437392234802,0.008041679859161377,XArbitraryZVertical,-0.02288516913167723,-0.06686395372173341,-0.666185649031959,0.742429898681838,-0.1297751367092133,-0.05510634556412697,-0.9900109767913818
2020-08-20 22:37:57.373 +0200,13239.1591455,-0.1288909912109375,-0.0577545166015625,-0.9634857177734375,13239.1391085,-1.457751903628263,-0.1297626193002215,0.05663018647550062,0.06766616553068161,-0.004413207992911339,0.05844052508473396,0.003302738070487976,0.0151100791990757,0.01183348894119263,XArbitraryZVertical,-0.02209174664558573,-0.06715971602278656,-0.66573303172079,0.7428330710966958,-0.1291913241147995,-0.05659992247819901,-0.9900030493736267
2020-08-20 22:37:57.393 +0200,13239.1791825,-0.13970947265625,-0.0431365966796875,-0.9696807861328125,13239.1591455,-1.45642923550311,-0.1297260892484811,0.0575507145173774,0.04419492557644844,-0.02991856634616852,0.0686231255531311,-0.00267454981803894,0.002129863947629929,0.02129381895065308,XArbitraryZVertical,-0.02169194114924239,-0.06746565149492753,-0.6652555558969813,0.7432448711204928,-0.1291483640670776,-0.05751895159482956,-0.9899556636810303
2020-08-20 22:37:57.413 +0200,13239.1992195,-0.13995361328125,-0.059783935546875,-0.9762725830078125,13239.1791825,-1.454856092153347,-0.1300180632177947,0.05840272462626496,0.0467800572514534,-0.0329846665263176,0.07167860120534897,-0.01120512187480927,0.003380857408046722,0.02255266904830933,XArbitraryZVertical,-0.02141799553502063,-0.06787322887884072,-0.6646800369353794,0.7437304527386391,-0.1294310092926025,-0.05836952850222588,-0.9898689985275269
2020-08-20 22:37:57.433 +0200,13239.2192565,-0.142425537109375,-0.0732269287109375,-0.978240966796875,13239.1992195,-1.453475605437336,-0.1304466353147084,0.0593501539228298,0.04478228837251663,-0.04946270957589149,0.05683920532464981,-0.01395986974239349,0.01197196543216705,0.01638758182525635,XArbitraryZVertical,-0.02115973435313194,-0.06836073148027465,-0.6641757474455335,0.7441436213118413,-0.1298479735851288,-0.05931531637907028,-0.9897581338882446
2020-08-20 22:37:57.453 +0200,13239.2392925,-0.136810302734375,-0.05181884765625,-0.9833984375,13239.2192565,-1.452031152796466,-0.1313786481528096,0.05884061049684995,-0.01270244549959898,-0.04841848462820053,0.0859563872218132,-0.0124218761920929,-0.01809215545654297,0.01458984613418579,XArbitraryZVertical,-0.02160997528818617,-0.06855465480773348,-0.6636207116272862,0.7446078484408117,-0.1307743191719055,-0.05880666151642799,-0.9896665215492249
2020-08-20 22:37:57.473 +0200,13239.2593295,-0.1321258544921875,-0.0572967529296875,-0.9901885986328125,13239.2392925,-1.450467764565176,-0.1326143994576416,0.05792189550406621,-0.008380134589970112,-0.03641881048679352,0.07140262424945831,-0.0141451507806778,-0.0005630031228065491,0.007617592811584473,XArbitraryZVertical,-0.02230949699404888,-0.06872867613088106,-0.6630111144657423,0.7451140395195947,-0.1320042908191681,-0.05788951367139816,-0.9895573258399963
2020-08-20 22:37:57.493 +0200,13239.2793665,-0.133514404296875,-0.0427703857421875,-0.9993896484375,13239.2593295,-1.449082564184702,-0.1339000813108487,0.05775782902694228,-0.002786297351121902,-0.03631867840886116,0.07012274861335754,-0.003420963883399963,-0.00307147204875946,0.005706787109375,XArbitraryZVertical,-0.0227491324854559,-0.06916927389732305,-0.6624779020616434,0.7455341338730112,-0.1332776993513107,-0.05772572010755539,-0.9893961548805237
2020-08-20 22:37:57.513 +0200,13239.2994035,-0.1290435791015625,-0.0621795654296875,-1.004806518554688,13239.2793665,-1.447802509058933,-0.1351674842522859,0.05732250289122962,0.02017347887158394,-0.03479534760117531,0.0539565235376358,-0.005041509866714478,0.01353646442294121,-0.00668632984161377,XArbitraryZVertical,-0.02328728174421062,-0.06951306418027782,-0.6619792105637214,0.7459284301369422,-0.134534940123558,-0.05729111656546593,-0.9892512559890747
2020-08-20 22:37:57.533 +0200,13239.3194405,-0.1318511962890625,-0.0526123046875,-0.9977264404296875,13239.2994035,-1.446764274464299,-0.1362191525887154,0.05782407476642991,-0.008808236569166183,-0.03732535243034363,0.05049913376569748,0.001729995012283325,-0.001359447836875916,-0.01066625118255615,XArbitraryZVertical,-0.02341128504227669,-0.07008272921199322,-0.6615876014952345,0.7462186055139023,-0.135571300983429,-0.05779185518622398,-0.9890806674957275
2020-08-20 22:37:57.553 +0200,13239.3394775,-0.1321258544921875,-0.0757293701171875,-0.9967498779296875,13239.3194405,-1.445752384129377,-0.1374676359811756,0.05780432593396112,0.003961486741900444,-0.02011121064424515,0.0443740151822567,0.001812025904655457,0.00235985592007637,-0.01194369792938232,XArbitraryZVertical,-0.02379596876850974,-0.0705540801304015,-0.6611949278020037,0.7465100396207125,-0.1368062049150467,-0.05777214094996452,-0.9889117479324341
2020-08-20 22:37:57.573 +0200,13239.3595135,-0.130615234375,-0.06622314453125,-0.99835205078125,13239.3394775,-1.444929097694115,-0.1379120073371135,0.05787476654637429,-0.002446212340146303,-0.0003132717683911324,0.04318711906671524,8.557736873626709e-05,-0.01275453343987465,-0.005674183368682861,XArbitraryZVertical,-0.02388737177604242,-0.07075296487478817,-0.6608834295306405,0.7467640435291807,-0.1372450739145279,-0.05784246325492859,-0.9888468384742737
2020-08-20 22:37:57.593 +0200,13239.3795505,-0.1299285888671875,-0.0664825439453125,-1.00091552734375,13239.3595135,-1.444089829258671,-0.137842888719972,0.05706715820321055,-0.01630317233502865,0.0135759124532342,0.03807365894317627,0.001841336488723755,-0.01345907151699066,-0.01077800989151001,XArbitraryZVertical,-0.02413756988250829,-0.07047162520161095,-0.6605576155229304,0.7470708332801882,-0.1371830999851227,-0.05703618749976158,-0.9889022707939148
2020-08-20 22:37:57.613 +0200,13239.3995875,-0.1311187744140625,-0.05194091796875,-0.991607666015625,13239.3795505,-1.443535432075732,-0.1373714069598564,0.0562809349935797,-0.035415880382061,0.007635464891791344,0.02807676047086716,0.003257289528846741,-0.0147838220000267,-0.00896376371383667,XArbitraryZVertical,-0.02425713827734854,-0.07004370977396379,-0.6603432683414886,0.7472966600043337,-0.1367229372262955,-0.05625122785568237,-0.9890109300613403
2020-08-20 22:37:57.634 +0200,13239.4196245,-0.115997314453125,-0.070953369140625,-0.96746826171875,13239.3995875,-1.443053295405001,-0.1367036819447799,0.05558434270814624,-0.0329991914331913,0.02448395267128944,0.02755310758948326,2.890825271606445e-05,-0.0007631406188011169,-0.007419109344482422,XArbitraryZVertical,-0.02428107642930783,-0.0695710709150269,-0.6601597227435977,0.7475021372517001,-0.1360678225755692,-0.05555572360754013,-0.9891405701637268
2020-08-20 22:37:57.654 +0200,13239.4396615,-0.118743896484375,-0.065582275390625,-0.949920654296875,13239.4196245,-1.44257895656704,-0.1359826680520078,0.05490495233355359,-0.07594706118106842,0.02137897536158562,0.04032844305038452,0.01225206255912781,-0.01075846329331398,0.01376873254776001,XArbitraryZVertical,-0.02428147619321432,-0.06908405053818414,-0.6599799811714986,0.7477059801087805,-0.1353596895933151,-0.05487737059593201,-0.9892756342887878
2020-08-20 22:37:57.674 +0200,13239.4596985,-0.1192626953125,-0.051666259765625,-0.941558837890625,13239.4396615,-1.441868516090121,-0.1356516605339196,0.05353573398678616,-0.1090159341692924,0.006784851662814617,0.05362655594944954,0.01333317160606384,-0.01467651128768921,0.03428429365158081,XArbitraryZVertical,-0.02466147789109445,-0.06851913092043396,-0.6596957236272033,0.747996343214959,-0.1350422650575638,-0.0535101629793644,-0.9893938899040222
2020-08-20 22:37:57.694 +0200,13239.4797355,-0.1352386474609375,-0.064453125,-0.91534423828125,13239.4596985,-1.441077504164976,-0.1359291259384396,0.05173353856221603,-0.1049771159887314,-0.03912298381328583,0.05352897197008133,0.01074278354644775,-0.0127573236823082,0.04524898529052734,XArbitraryZVertical,-0.02540225451457402,-0.06804094087224064,-0.6593660526570918,0.7483057810056508,-0.1353296339511871,-0.05171046406030655,-0.9894503355026245
2020-08-20 22:37:57.714 +0200,13239.4997715,-0.134613037109375,-0.1013031005859375,-0.89215087890625,13239.4797355,-1.440898921517763,-0.1371914072694401,0.05020025217687151,-0.1186623051762581,-0.06898128241300583,-0.02364197745919228,0.009688973426818848,0.002498593181371689,0.05974513292312622,XArbitraryZVertical,-0.02638776067648349,-0.06801210414096155,-0.6592564488126458,0.7483709362018627,-0.1365891695022583,-0.05017916858196259,-0.9893561005592346
2020-08-20 22:37:57.734 +0200,13239.5198085,-0.1322479248046875,-0.0990447998046875,-0.85101318359375,13239.4997715,-1.441329155727189,-0.1388670802691322,0.04718089173571582,-0.2579106092453003,-0.1358306258916855,-0.003557559568434954,0.008079171180725098,-0.05552147328853607,0.08224606513977051,XArbitraryZVertical,-0.02808781051508328,-0.06764169540788892,-0.6593405933614063,0.748268396786676,-0.1382671594619751,-0.04716338962316513,-0.989271342754364
2020-08-20 22:37:57.753 +0200,13239.5398455,-0.131072998046875,-0.1254425048828125,-0.7989501953125,13239.5198085,-1.442781625399806,-0.141172411065671,0.04210841736399634,-0.3428595662117004,-0.1494380384683609,-0.05462797358632088,0.002032741904258728,-0.05817065015435219,0.1201004981994629,XArbitraryZVertical,-0.0307993747019369,-0.06681576109092273,-0.6597539720630162,0.7478715623632107,-0.1405792385339737,-0.04209597408771515,-0.9891741275787354
2020-08-20 22:37:57.774 +0200,13239.5598825,-0.12139892578125,-0.1567230224609375,-0.7873077392578125,13239.5398455,-1.446073085846984,-0.1441317206237646,0.03532027682350049,-0.4572708308696747,-0.1904030591249466,-0.163729727268219,0.002767398953437805,-0.07818257808685303,0.1654927134513855,XArbitraryZVertical,-0.03442821630752575,-0.06563395651883548,-0.6607975702268027,0.7468958607462716,-0.1435436308383942,-0.03531293198466301,-0.9890137910842896
2020-08-20 22:37:57.794 +0200,13239.5799195,-0.1664276123046875,-0.044342041015625,-0.8464508056640625,13239.5598825,-1.451778570524764,-0.1483105476349496,0.02526196767232564,-0.5829771161079407,-0.2916463017463684,-0.2514370083808899,0.02164375782012939,-0.1305062025785446,0.2206151485443115,XArbitraryZVertical,-0.03975468538890575,-0.06376738254728533,-0.6626235891779031,0.7451733342455237,-0.1477202922105789,-0.02525928057730198,-0.9887065887451172
2020-08-20 22:37:57.813 +0200,13239.5999565,-0.2105255126953125,0.0330352783203125,-0.838470458984375,13239.5799195,-1.460270479243603,-0.1567473564429519,0.01451089064849884,-0.5244472026824951,-0.5621174573898315,-0.4413534104824066,0.004175439476966858,-0.07745454460382462,0.179768443107605,XArbitraryZVertical,-0.04682877600924614,-0.06315796217814353,-0.6653287868396253,0.7423986406649999,-0.1560898423194885,-0.01451038103550673,-0.9876362681388855
2020-08-20 22:37:57.834 +0200,13239.6199925,-0.225128173828125,-0.1051483154296875,-0.7831268310546875,13239.5999565,-1.471382186387207,-0.1691983656714492,0.009865194097416232,-0.1426085084676743,-0.6447542905807495,-0.5741297602653503,-0.03074762225151062,0.03860640525817871,0.1254675984382629,XArbitraryZVertical,-0.05306232418824516,-0.06594191737785768,-0.6690004274903676,0.7384270190584139,-0.1683840155601501,-0.009865034371614456,-0.9856721162796021
2020-08-20 22:37:57.854 +0200,13239.6400295,-0.1797332763671875,-0.168731689453125,-0.776824951171875,13239.6199925,-1.484594443578264,-0.1813377791220664,0.008494403739724852,-0.3179269433021545,-0.5712901949882507,-0.6598601341247559,-0.05806457996368408,-0.0352308377623558,0.1777662634849548,XArbitraryZVertical,-0.05808911377882977,-0.06958262376914169,-0.6734832000241744,0.733624160464838,-0.1803390681743622,-0.008494301699101925,-0.9835678339004517
2020-08-20 22:37:57.874 +0200,13239.6600665,-0.166290283203125,0.0562896728515625,-0.9647064208984375,13239.6400295,-1.498340560349412,-0.1920327601113085,0.0001121588815122605,-0.73702472448349,-0.5210666656494141,-0.5129912495613098,-0.0135333240032196,-0.1656781136989594,0.2239434719085693,XArbitraryZVertical,-0.06524887186733191,-0.07023843136438894,-0.6778985121965612,0.7288777157251055,-0.1908546835184097,-0.0001121588793466799,-0.9816182851791382
2020-08-20 22:37:57.894 +0200,13239.6801035,-0.206634521484375,0.2200469970703125,-0.9925994873046875,13239.6600665,-1.510321153431985,-0.2047728370380464,-0.01405668707130815,-0.7880443334579468,-0.7787520289421082,-0.4410949647426605,0.03574398159980774,-0.07487661391496658,0.07981640100479126,XArbitraryZVertical,-0.07514287246898715,-0.06962982082383913,-0.6812762831283592,0.7248226720449498,-0.2033246606588364,0.01405622437596321,-0.9790104627609253
2020-08-20 22:37:57.914 +0200,13239.7001405,-0.2432861328125,0.08380126953125,-1.032470703125,13239.6801035,-1.523782847510279,-0.2217727899240138,-0.02281057152369599,-0.3566373288631439,-0.8346294164657593,-0.6823608875274658,0.0226844996213913,0.1898253560066223,-0.01825696229934692,XArbitraryZVertical,-0.08458339783883655,-0.07223585130467332,-0.6850939217194979,0.7199124288215027,-0.2199021130800247,0.02280859276652336,-0.9752552509307861
2020-08-20 22:37:57.934 +0200,13239.7201775,-0.2697296142578125,0.0881195068359375,-1.085784912109375,13239.7001405,-1.538100949381694,-0.2386672946411514,-0.02418554413216174,-0.1739716380834579,-0.8192192912101746,-0.620013952255249,-0.003817111253738403,0.09938282519578934,-0.05502462387084961,XArbitraryZVertical,-0.09141559584534689,-0.07719016532796535,-0.6894223613044963,0.7144100371613771,-0.2363387644290924,0.02418318577110767,-0.971369743347168
2020-08-20 22:37:57.954 +0200,13239.7402145,-0.2965545654296875,0.1138153076171875,-1.093612670898438,13239.7201775,-1.549637645895608,-0.2546751335433265,-0.02545686258937174,-0.2144779115915298,-0.7732999920845032,-0.4818838536739349,-0.01316428184509277,0.04740127176046371,-0.07670646905899048,XArbitraryZVertical,-0.09785710020166773,-0.08190342570635374,-0.6927112415908878,0.7098358742196035,-0.2518494129180908,0.02545411325991154,-0.9674316048622131
2020-08-20 22:37:57.974 +0200,13239.760248375,-0.29010009765625,0.042999267578125,-1.051361083984375,13239.7402145,-1.559577435822666,-0.2696217430259075,-0.02898463387241012,-0.3690049052238464,-0.6560080051422119,-0.3798224925994873,-0.03320991992950439,0.09652211517095566,-0.1323191523551941,XArbitraryZVertical,-0.1047037530803688,-0.08546161400418947,-0.6952914150505162,0.705906065377919,-0.2662549912929535,0.02898057550191879,-0.9634668827056885
2020-08-20 22:37:57.994 +0200,13239.780285375,-0.29608154296875,0.0736541748046875,-1.07257080078125,13239.760248375,-1.567612595161765,-0.2813249702013469,-0.03599689346173363,-0.5608166456222534,-0.4904491603374481,-0.200980544090271,-0.02574148774147034,0.0299355685710907,-0.1095200777053833,XArbitraryZVertical,-0.1115822404303001,-0.08669695815096781,-0.6971072884843467,0.7029043430489168,-0.2774489223957062,0.03598912060260773,-0.9600660800933838
2020-08-20 22:37:58.014 +0200,13239.800322375,-0.3364410400390625,0.1900482177734375,-1.038299560546875,13239.780285375,-1.574161061400058,-0.2906834387035987,-0.04771341467122774,-0.6941516995429993,-0.4603320062160492,-0.1126122549176216,-0.009787768125534058,-0.01066748797893524,-0.0882992148399353,XArbitraryZVertical,-0.1192153188007864,-0.08549128730662038,-0.698189198722432,0.7007216075763903,-0.2862808704376221,0.04769531264901161,-0.9569578766822815
2020-08-20 22:37:58.034 +0200,13239.820359375,-0.318084716796875,0.0866851806640625,-0.9497528076171875,13239.800322375,-1.580192564803433,-0.2992166536338278,-0.05892433393008778,-0.4737037420272827,-0.3624722957611084,-0.1633639335632324,-0.04101604223251343,0.1111050546169281,-0.1095163822174072,XArbitraryZVertical,-0.1263431133836402,-0.08415927590364307,-0.6990903474563613,0.6987326482687454,-0.294260174036026,0.05889024212956429,-0.9539092779159546
2020-08-20 22:37:58.054 +0200,13239.840396375,-0.284820556640625,0.0115509033203125,-0.860260009765625,13239.820359375,-1.586289724962272,-0.3052280131519124,-0.06559717949449043,-0.4366305470466614,-0.2178701013326645,-0.1949716210365295,-0.04167702794075012,0.07850179076194763,-0.03519833087921143,XArbitraryZVertical,-0.1310074290344553,-0.08350737223924795,-0.7004047277198866,0.6966324871463574,-0.2998643517494202,0.06555014848709106,-0.9517271518707275
2020-08-20 22:37:58.074 +0200,13239.860433375,-0.285003662109375,0.01837158203125,-0.7479705810546875,13239.840396375,-1.59299903700764,-0.309340040590861,-0.07505640050034364,-0.6573020815849304,-0.1610568761825562,-0.1558336168527603,0.001053273677825928,-0.05205038189888,0.05954420566558838,XArbitraryZVertical,-0.1359785754337079,-0.0811379535910112,-0.7018397388809455,0.6945124583879591,-0.3035729825496674,0.07498595118522644,-0.9498529434204102
2020-08-20 22:37:58.094 +0200,13239.880469375,-0.25823974609375,-0.002716064453125,-0.6508026123046875,13239.860433375,-1.600874440574648,-0.3120388620096896,-0.08835298723506479,-0.9118042588233948,-0.0563214123249054,-0.1910548359155655,0.01210802793502808,-0.0677223801612854,0.1540912389755249,XArbitraryZVertical,-0.1417871294061082,-0.07679655058876855,-0.7034732043203721,0.6921880464029948,-0.305802196264267,0.08823808282613754,-0.9479973912239075
2020-08-20 22:37:58.114 +0200,13239.900506375,-0.215576171875,-0.0233917236328125,-0.548095703125,13239.880469375,-1.611716054280313,-0.3131048842929172,-0.1068109573840299,-1.18055522441864,0.06120068579912186,-0.2831695973873138,0.02739694714546204,-0.1017020493745804,0.2563356757164001,XArbitraryZVertical,-0.148832970924361,-0.06977636990366394,-0.7058231621175478,0.6890527497114893,-0.3062587082386017,0.1066079810261726,-0.9459599852561951
2020-08-20 22:37:58.134 +0200,13239.920543375,-0.194549560546875,-0.0342559814453125,-0.417999267578125,13239.900506375,-1.627360259068597,-0.3134816584812257,-0.1307371498376185,-1.560766220092773,0.05875297635793686,-0.4647440314292908,0.06461519002914429,-0.1434623450040817,0.3548694252967834,XArbitraryZVertical,-0.1575291441208366,-0.0600894648536609,-0.709373123420683,0.6843709491366977,-0.3057408630847931,0.1303650438785553,-0.9431476593017578
2020-08-20 22:37:58.155 +0200,13239.940580375,-0.2163238525390625,-0.0421142578125,-0.2736358642578125,13239.920543375,-1.649571873530774,-0.3161487527899158,-0.1605799864000354,-1.981717348098755,-0.008995975367724895,-0.6906688809394836,0.0980183482170105,-0.1825236678123474,0.4718548655509949,XArbitraryZVertical,-0.1689916524772168,-0.04832942441755882,-0.7143407197507263,0.6773651434120435,-0.3069085776805878,0.1598907560110092,-0.9382121562957764
2020-08-20 22:37:58.174 +0200,13239.960617375,-0.2666015625,-0.02056884765625,-0.1766204833984375,13239.940580375,-1.67904198562093,-0.3217069102903638,-0.1977087692346025,-2.447993040084839,0.0155338691547513,-0.9220088720321655,0.09882566332817078,-0.2380905300378799,0.6004480719566345,XArbitraryZVertical,-0.1836879202208536,-0.03392470374621224,-0.7205717518610754,0.6677456490017469,-0.3100267946720123,0.1964232474565506,-0.9302157163619995
2020-08-20 22:37:58.194 +0200,13239.980654375,-0.325927734375,0.0034027099609375,-0.332672119140625,13239.960617375,-1.720249188472323,-0.3275659134907792,-0.2446103676512009,-3.329913377761841,0.3035720586776733,-1.400120615959167,0.0495474636554718,-0.2557443976402283,0.7286142110824585,XArbitraryZVertical,-0.2011787284827854,-0.01434145550237473,-0.7292184052131526,0.6538822918949166,-0.3121617138385773,0.2421783059835434,-0.9186428785324097
2020-08-20 22:37:58.214 +0200,13240.000691375,-0.487152099609375,0.298004150390625,-0.813232421875,13239.980654375,-1.779047913322931,-0.3340362104912826,-0.3052760301949206,-4.143999576568604,0.6309489011764526,-1.972994446754456,0.004093945026397705,-0.3023465573787689,0.6843209266662598,XArbitraryZVertical,-0.2220546640768981,0.0129822658021392,-0.7411389079179308,0.6334321571171226,-0.312699943780899,0.3005564510822296,-0.9010463953018188
2020-08-20 22:37:58.234 +0200,13240.020727375,-0.5733184814453125,0.7524566650390625,-0.82928466796875,13240.000691375,-1.849567627750731,-0.3481055472376632,-0.3656791634102791,-3.568686962127686,0.02028681337833405,-2.231498956680298,-0.1261683404445648,-0.2095483243465424,0.1754081845283508,XArbitraryZVertical,-0.2437786188652357,0.04047499712539811,-0.7543620912201359,0.6081707026166391,-0.3185632824897766,0.3575836420059204,-0.8778675198554993
2020-08-20 22:37:58.255 +0200,13240.040764375,-0.497314453125,0.6447906494140625,-0.835540771484375,13240.020727375,-1.923544562514872,-0.3840561974593468,-0.4025350416262123,-2.188834190368652,-0.6563771367073059,-2.969135284423828,-0.2231208980083466,0.2376322150230408,0.01161479949951172,XArbitraryZVertical,-0.2656373810005304,0.05397960347173494,-0.7670521325940354,0.5815101688619632,-0.3447360694408417,0.3917520046234131,-0.8530459403991699
2020-08-20 22:37:58.275 +0200,13240.060801375,-0.4129638671875,0.1576385498046875,-0.64642333984375,13240.040764375,-2.002326522431093,-0.4294682523162936,-0.4047508909128823,-1.086763620376587,-0.9348500370979309,-3.455893516540527,-0.167071670293808,0.379915326833725,0.02468717098236084,XArbitraryZVertical,-0.2816914268918734,0.05279413896159326,-0.7828683863814677,0.5522497969905241,-0.3827435076236725,0.3937897980213165,-0.8357254266738892
2020-08-20 22:37:58.294 +0200,13240.080838375,-0.48394775390625,-0.2137451171875,-0.477813720703125,13240.060801375,-2.079898373850577,-0.4853282996424868,-0.3924280083520006,-1.034202337265015,-1.701473951339722,-3.46454381942749,-0.0160239040851593,-0.02449154853820801,0.08345681428909302,XArbitraryZVertical,-0.2990524859090415,0.04388541973004809,-0.7973325990765696,0.5224006526676355,-0.431037038564682,0.3824329674243927,-0.8172833323478699
2020-08-20 22:37:58.314 +0200,13240.100875375,-0.85626220703125,-0.07220458984375,-0.37860107421875,13240.080838375,-2.156647283617851,-0.5619832309814824,-0.3819150352399089,-1.82931923866272,-3.285407066345215,-3.124098539352417,0.06147819757461548,-0.4885900318622589,0.2731979489326477,XArbitraryZVertical,-0.3261320251856412,0.0319554734455497,-0.8063339607812924,0.4923844055994169,-0.4944739043712616,0.3726982176303864,-0.7852334976196289
2020-08-20 22:37:58.343 +0200,13240.120912375,-1.096267700195312,0.28936767578125,-0.19036865234375,13240.100875375,-2.234066040135199,-0.6539373555693767,-0.3866373087666812,-2.271569490432739,-2.881689548492432,-2.488598585128784,-0.1356605887413025,-0.5528272390365601,0.4347051382064819,XArbitraryZVertical,-0.3630477856416167,0.02536268008985985,-0.8082821251723539,0.4628532375600716,-0.5634116530418396,0.3770760893821716,-0.7351060509681702
2020-08-20 22:37:58.355 +0200,13240.140948375,-1.091278076171875,0.1880340576171875,-0.27789306640625,13240.140948375,-2.436847826053595,-0.8332377554898814,-0.4232219047973024,-5.141801357269287,-2.060903787612915,-3.285296201705933,-0.4649246335029602,-0.1252613365650177,0.3872008323669434,XArbitraryZVertical,-0.4376224661821158,0.04372102229802231,-0.8097958886303511,0.3883370202097413,-0.6748127937316895,0.4107002317905426,-0.6131501197814941
2020-08-20 22:37:58.375 +0200,13240.160985375,-1.181610107421875,0.1127471923828125,-0.1510162353515625,13240.140948375,-2.436847826053595,-0.8332377554898814,-0.4232219047973024,-5.141801357269287,-2.060903787612915,-3.285296201705933,-0.4649246335029602,-0.1252613365650177,0.3872008323669434,XArbitraryZVertical,-0.4376224661821158,0.04372102229802231,-0.8097958886303511,0.3883370202097413,-0.6748127937316895,0.4107002317905426,-0.6131501197814941
2020-08-20 22:37:58.395 +0200,13240.181022375,-1.438827514648438,0.256011962890625,-0.0504608154296875,13240.160985375,-2.574953900577361,-0.9346470000129455,-0.4422484904993295,-5.74630880355835,-2.211124897003174,-3.213215589523315,-0.4043592214584351,-0.3121699094772339,0.3298345804214478,XArbitraryZVertical,-0.4767441104865033,0.06513551236684897,-0.8086928924396896,0.3383612437665845,-0.7270004749298096,0.4279727041721344,-0.5369448065757751
2020-08-20 22:37:58.415 +0200,13240.201059375,-1.629425048828125,0.528167724609375,-0.1071014404296875,13240.181022375,-2.725711249907568,-1.041097943274737,-0.4529909192124458,-6.070858955383301,-1.834015965461731,-3.363239049911499,-0.5932934284210205,-0.2396390438079834,0.4089441895484924,XArbitraryZVertical,-0.5144329132466223,0.09056824070935561,-0.8041198650502545,0.2838089268873671,-0.7759233117103577,0.4376567602157593,-0.4543123543262482
2020-08-20 22:37:58.435 +0200,13240.221096375,-1.691299438476562,0.835906982421875,0.0604400634765625,13240.201059375,-2.878063005914637,-1.140838075663181,-0.4471788457237942,-5.714401721954346,-1.531724810600281,-3.463058948516846,-0.768490731716156,-0.01189941167831421,0.3188247680664062,XArbitraryZVertical,-0.5464986736951548,0.1158284225218703,-0.7978785439823751,0.2265234044042,-0.819603443145752,0.4324235022068024,-0.3758459389209747
2020-08-20 22:37:58.455 +0200,13240.241133375,-1.619522094726562,0.676513671875,0.157440185546875,13240.221096375,-3.022932108709242,-1.231062535654442,-0.4231888816712617,-5.709205627441406,-1.273445606231689,-3.721005201339722,-0.849562406539917,0.3579833507537842,0.3066166043281555,XArbitraryZVertical,-0.5736892772965775,0.1376986856507592,-0.7896625163028432,0.1683830724242907,-0.85966956615448,0.4106701016426086,-0.3038393557071686
2020-08-20 22:37:58.475 +0200,13240.261170375,-1.60125732421875,0.552734375,0.2061767578125,13240.241133375,3.114425198623846,-1.310244083672683,-0.3841470661470917,-5.885615825653076,-0.9626600742340088,-3.806013584136963,-0.7881492972373962,0.4210110604763031,0.3989564180374146,XArbitraryZVertical,-0.5959407766418455,0.1594840192261154,-0.7798992212828275,0.1057198824214,-0.8958262205123901,0.3747684955596924,-0.2388388812541962
2020-08-20 22:37:58.495 +0200,13240.281206375,-1.53717041015625,0.68963623046875,0.0837554931640625,13240.261170375,2.972421752839495,-1.377959370957689,-0.3415347982649049,-6.032832145690918,-0.7347995042800903,-3.281450986862183,-0.699901282787323,0.229959100484848,0.4056875705718994,XArbitraryZVertical,-0.613180596049941,0.1836356644989123,-0.7670756096429742,0.04338750994652395,-0.9247767925262451,0.3349336385726929,-0.1805749982595444
2020-08-20 22:37:58.515 +0200,13240.301243375,-1.414260864257812,0.8212890625,-0.1092529296875,13240.281206375,2.839959082949686,-1.432764551291833,-0.3008093013367961,-5.531287670135498,-0.6078644394874573,-2.786950588226318,-0.6633749008178711,0.3458558619022369,0.308748185634613,XArbitraryZVertical,-0.6248987214052283,0.2092697667646768,-0.7519906788315883,-0.01475804191011029,-0.9460128545761108,0.2962932586669922,-0.1314155012369156
2020-08-20 22:37:58.535 +0200,13240.321280375,-1.367294311523438,0.9156951904296875,-0.138275146484375,13240.301243375,2.730068697233131,-1.477486905224763,-0.2613550195404983,-4.398155212402344,-0.8687176108360291,-2.378653526306152,-0.5208518505096436,0.5252937078475952,0.07725858688354492,XArbitraryZVertical,-0.6338523333018815,0.2307081372932294,-0.735476218126945,-0.06387205629397594,-0.9618382453918457,0.258389800786972,-0.09000995010137558
2020-08-20 22:37:58.555 +0200,13240.341317375,-1.311874389648438,0.89739990234375,-0.115509033203125,13240.321280375,2.653454011751927,-1.515947374158045,-0.2211207730252314,-2.622344732284546,-1.063247680664062,-2.224732875823975,-0.4345386028289795,0.6740585565567017,-0.06269574165344238,XArbitraryZVertical,-0.6436407633776194,0.2428646361042812,-0.718733690094967,-0.1008223486301955,-0.9741849899291992,0.2193232476711273,-0.05348667129874229
2020-08-20 22:37:58.575 +0200,13240.361354375,-1.203781127929688,0.788177490234375,-0.0406036376953125,13240.341317375,2.617931533393512,-1.543577739388662,-0.1783881237429321,-0.6771788597106934,-0.968475878238678,-2.175820350646973,-0.3903629779815674,0.7510240077972412,-0.06672066450119019,XArbitraryZVertical,-0.6544466591865098,0.2414702808801212,-0.7055674553029457,-0.1247646646830109,-0.9837664365768433,0.1774435043334961,-0.02678334712982178
2020-08-20 22:37:58.595 +0200,13240.381391375,-1.151931762695312,0.6318359375,0.0369720458984375,13240.361354375,2.62102486959552,-1.561456280011193,-0.136096703706298,0.9510961771011353,-0.8496618866920471,-2.034157752990723,-0.2850515842437744,0.7028034329414368,-0.04431414604187012,XArbitraryZVertical,-0.6660854937304094,0.2273836879775884,-0.6971998671948201,-0.1361587970430537,-0.9907100200653076,0.1356769502162933,-0.009253546595573425
2020-08-20 22:37:58.615 +0200,13240.401427375,-1.11224365234375,0.4755401611328125,0.0323486328125,13240.381391375,2.649201781055839,-1.573208992256846,-0.09672958186721743,1.749979615211487,-0.6185951232910156,-1.898777484893799,-0.2009796500205994,0.5991117358207703,0.05003547668457031,XArbitraryZVertical,-0.6774875012066921,0.2054540779495239,-0.6924981079586752,-0.1387289885623208,-0.9953225255012512,0.09657880663871765,0.002401384990662336
2020-08-20 22:37:58.635 +0200,13240.421464375,-1.034210205078125,0.32818603515625,0.0273284912109375,13240.401427375,2.687477111687237,-1.579765007089332,-0.06038901206435522,1.930190682411194,-0.3568477034568787,-1.72907817363739,-0.1628382205963135,0.474389523267746,0.06519079208374023,XArbitraryZVertical,-0.6869405898702479,0.1805234944311414,-0.6903754755008052,-0.1374978239853831,-0.9981370568275452,0.06035231426358223,0.008952212519943714
2020-08-20 22:37:58.656 +0200,13240.441501375,-0.97955322265625,0.2300567626953125,0.0044708251953125,13240.421464375,2.722138217923815,-1.584394961859775,-0.0289042670856055,1.365560412406921,-0.2595296502113342,-1.409026861190796,-0.09786838293075562,0.3524135649204254,0.04484307765960693,XArbitraryZVertical,-0.6941132533854973,0.1581235562969208,-0.6889641692154536,-0.136132458017413,-0.9994898438453674,0.02890024334192276,0.01359253469854593
2020-08-20 22:37:58.675 +0200,13240.461538375,-0.938507080078125,0.199310302734375,0.0132598876953125,13240.441501375,2.739721020509129,-1.589906929518294,-0.005044636327806206,0.3132950961589813,-0.3544420599937439,-0.9992485642433167,-0.03475844860076904,0.2518284618854523,0.01604795455932617,XArbitraryZVertical,-0.6991141235586752,0.1442013856615022,-0.6865848687897622,-0.1380092015546752,-0.9998046159744263,0.005044614896178246,0.01910919509828091
2020-08-20 22:37:58.696 +0200,13240.481575375,-0.921722412109375,0.2584991455078125,0.0342254638671875,13240.461538375,2.73455315082395,-1.596847468335944,0.01050066017710354,-0.8576368689537048,-0.3553523123264313,-0.5473857522010803,0.01811856031417847,0.2136602401733398,0.01831698417663574,XArbitraryZVertical,-0.7022052131268476,0.1411779624399885,-0.6826645580446487,-0.1447261043311523,-0.9996054768562317,-0.01050046738237143,0.0260467566549778
2020-08-20 22:37:58.722 +0200,13240.501612375,-0.8833770751953125,0.3392181396484375,0.0269927978515625,13240.481575375,2.708387815000786,-1.602984269457423,0.01889001365597272,-1.704309582710266,-0.2907653450965881,-0.2412960082292557,0.03963100910186768,0.2438633888959885,0.02559471130371094,XArbitraryZVertical,-0.7029890540020917,0.1479686149938292,-0.6778922769168338,-0.1561208184240991,-0.9993036389350891,-0.01888889074325562,0.03217664361000061
2020-08-20 22:37:58.736 +0200,13240.521649375,-0.8538055419921875,0.4157867431640625,-0.0235443115234375,13240.501612375,2.6684897379652,-1.606597772277603,0.02309877379303157,-2.236919641494751,-0.1575548201799393,-0.04168862476944923,0.06518334150314331,0.3374922275543213,0.03627634048461914,XArbitraryZVertical,-0.7014422598284962,0.1608442719252126,-0.6730076847428426,-0.1707878150513216,-0.9990925192832947,-0.02309671975672245,0.03578424826264381
2020-08-20 22:37:58.757 +0200,13240.541685375,-0.8361053466796875,0.4786834716796875,-0.01812744140625,13240.521649375,2.622427798090742,-1.607220999943885,0.02453011868437274,-2.286238431930542,-0.04427087679505348,0.06656312942504883,0.1046490073204041,0.4102891087532043,-0.004883289337158203,XArbitraryZVertical,-0.6978821342541197,0.1765314662786619,-0.6685408398793881,-0.1866824176748014,-0.9990360736846924,-0.024527657777071,0.03640566393733025
2020-08-20 22:37:58.776 +0200,13240.561722375,-0.8390655517578125,0.4739532470703125,-0.028717041015625,13240.541685375,2.578863580202205,-1.606865297856613,0.02366536988961175,-2.030902862548828,-0.003045408520847559,0.1582003682851791,0.1264560222625732,0.4828466773033142,-0.0308917760848999,XArbitraryZVertical,-0.6936737579398239,0.1919433372340463,-0.6645295167476446,-0.2009353706024018,-0.9990698099136353,-0.02366316132247448,0.03605105355381966
2020-08-20 22:37:58.796 +0200,13240.581759375,-0.881744384765625,0.4559173583984375,-0.011627197265625,13240.561722375,2.54165043502646,-1.606007271254429,0.02146387726952608,-1.638583779335022,-0.02718456834554672,0.2059661746025085,0.1301803588867188,0.5038933753967285,-0.03322184085845947,XArbitraryZVertical,-0.6894816220601118,0.2054577153911613,-0.6612141468484727,-0.2125983607526444,-0.9991499781608582,-0.02146223001182079,0.03519555926322937
2020-08-20 22:37:58.816 +0200,13240.601796375,-0.95697021484375,0.4549407958984375,-0.0241241455078125,13240.581759375,2.513704745583929,-1.606503532182256,0.0171894541171295,-1.141557574272156,-0.08126138150691986,0.3148944973945618,0.1109562516212463,0.4767748415470123,-0.006818771362304688,XArbitraryZVertical,-0.6862627444601214,0.2165424177856385,-0.6584973262319866,-0.2203046983900757,-0.9992150068283081,-0.01718860678374767,0.03569434583187103
2020-08-20 22:37:58.849 +0200,13240.621833375,-1.0469970703125,0.4166259765625,0.00048828125,13240.601796375,2.495518121111406,-1.608793424137435,0.01027712930819846,-0.654609203338623,-0.1632049828767776,0.4409662783145905,0.03958600759506226,0.4643440842628479,-0.02689123153686523,XArbitraryZVertical,-0.6842717887027508,0.2253111047229215,-0.6564889185480929,-0.2236724064948246,-0.9992254376411438,-0.01027694810181856,0.03798595070838928
2020-08-20 22:37:58.872 +0200,13240.641870375,-1.127349853515625,0.35552978515625,0.0571136474609375,13240.621833375,2.484933463508542,-1.61290572182028,0.0005250958017959663,-0.3829113841056824,-0.2620527446269989,0.5763009786605835,-0.04667359590530396,0.4361622035503387,-0.03410720825195312,XArbitraryZVertical,-0.6833365795333656,0.2325931924160319,-0.6550337161626303,-0.2233437161749131,-0.9991134405136108,-0.0005250957910902798,0.04209694638848305
2020-08-20 22:37:58.876 +0200,13240.661907375,-1.164642333984375,0.318145751953125,0.0155181884765625,13240.641870375,2.477845980434281,-1.617850241396482,-0.01258180823627055,-0.284538209438324,-0.2080416977405548,0.7752929329872131,-0.1329314708709717,0.3673322200775146,0.0355297327041626,XArbitraryZVertical,-0.6826360153724985,0.2398426251395541,-0.654080765750104,-0.2205944403419521,-0.9988140463829041,0.01258147601038218,0.04703282937407494
2020-08-20 22:37:58.896 +0200,13240.681943375,-1.17022705078125,0.3006591796875,-0.0251007080078125,13240.661907375,2.472127873792042,-1.621462671071588,-0.02993427859493379,-0.193941742181778,-0.157290905714035,0.9840522408485413,-0.1892604231834412,0.2985600531101227,0.01529967784881592,XArbitraryZVertical,-0.6810998847269734,0.2478183569143379,-0.6542203527610246,-0.2160665594409725,-0.9982693195343018,0.02992980740964413,0.05062198266386986
2020-08-20 22:37:58.920 +0200,13240.701980375,-1.127899169921875,0.2487335205078125,-0.060028076171875,13240.681943375,2.46806686237883,-1.62462340880871,-0.05123125483230495,-0.1197567284107208,-0.1476712971925735,1.163141489028931,-0.2091920375823975,0.261015385389328,-0.03316640853881836,XArbitraryZVertical,-0.6790599473326896,0.2564036717374344,-0.6551172128280001,-0.2096575357838421,-0.9972416162490845,0.05120884627103806,0.05373051017522812
2020-08-20 22:37:58.939 +0200,13240.722017375,-1.063308715820312,0.18280029296875,-0.0675811767578125,13240.701980375,2.464016688512376,-1.628079038094874,-0.07605118746283557,-0.1542152315378189,-0.1884224563837051,1.329148054122925,-0.183651328086853,0.2002544403076172,-0.06546902656555176,XArbitraryZVertical,-0.6765685359615627,0.2660788758450943,-0.6562593627916307,-0.2019422973724101,-0.9954740405082703,0.07597789913415909,0.05708590522408485
2020-08-20 22:37:58.956 +0200,13240.742054375,-1.016357421875,0.1555633544921875,-0.0843963623046875,13240.722017375,2.458581225539871,-1.633307928380147,-0.1042524037639995,-0.2019902169704437,-0.2774929404258728,1.511050224304199,-0.1236021518707275,0.1049856394529343,-0.09589898586273193,XArbitraryZVertical,-0.6738886178655981,0.2773805882912967,-0.6569674563833819,-0.1932043155672687,-0.9926280379295349,0.1040636599063873,0.06213172152638435
2020-08-20 22:37:58.976 +0200,13240.76209304167,-0.9693450927734375,0.1879730224609375,-0.0984649658203125,13240.742054375,2.453142742700919,-1.640284886591398,-0.1355224401387128,-0.09840669482946396,-0.3614035546779633,1.633283615112305,-0.07602250576019287,0.02914482355117798,-0.1099059581756592,XArbitraryZVertical,-0.6711804346981178,0.2896805737823721,-0.6573373840948954,-0.1830564101976639,-0.9884397387504578,0.1351079791784286,0.06879602372646332
2020-08-20 22:37:58.996 +0200,13240.78213004167,-0.9402923583984375,0.252532958984375,-0.0903167724609375,13240.76209304167,2.451471639497421,-1.648916917959911,-0.1689461979582133,0.1901184469461441,-0.481975257396698,1.694109678268433,-0.03275936841964722,0.007314160466194153,-0.1386576890945435,XArbitraryZVertical,-0.6690634391569743,0.3013621334449108,-0.6576084098713586,-0.1705465351288124,-0.9827560186386108,0.1681436449289322,0.07693003863096237
2020-08-20 22:37:59.020 +0200,13240.80216604167,-0.943389892578125,0.3033599853515625,-0.0612335205078125,13240.78213004167,2.455874841734957,-1.659199451500197,-0.2030053459693452,0.5365720987319946,-0.617895781993866,1.636756539344788,-0.004509449005126953,0.03247171640396118,-0.1473675966262817,XArbitraryZVertical,-0.6681521387085196,0.3111434318143977,-0.6577297248374659,-0.1554157258897752,-0.9756402373313904,0.2016138732433319,0.08647502958774567
2020-08-20 22:37:59.038 +0200,13240.82220304167,-0.946685791015625,0.3110504150390625,0.0051727294921875,13240.80216604167,2.468054713767039,-1.669619541156398,-0.2352793109561052,0.9439775943756104,-0.6694977283477783,1.435128688812256,-0.002108633518218994,0.06397701799869537,-0.1356329917907715,XArbitraryZVertical,-0.668664570426287,0.3175843339978076,-0.6579745949870615,-0.138193531487884,-0.9677047729492188,0.2331146150827408,0.09594423323869705
2020-08-20 22:37:59.056 +0200,13240.84224004167,-0.9461669921875,0.3000946044921875,0.0769500732421875,13240.82220304167,2.489307590262196,-1.677470088278214,-0.2638843053312443,1.39556622505188,-0.607733428478241,1.180638670921326,-0.01554495096206665,0.0591067373752594,-0.09373593330383301,XArbitraryZVertical,-0.6702913771001506,0.3195347345410193,-0.6590176505794622,-0.1195940368196913,-0.9598966240882874,0.2608323693275452,0.1027859523892403
2020-08-20 22:37:59.076 +0200,13240.86227704167,-0.9290618896484375,0.280364990234375,0.089599609375,13240.84224004167,2.519655285918466,-1.67979317343237,-0.2878131169593608,1.742850422859192,-0.4427615404129028,0.8782985210418701,-0.02550101280212402,0.03055363893508911,-0.01427638530731201,XArbitraryZVertical,-0.6722430383367175,0.3166111494306226,-0.6616263310180274,-0.1004849160881821,-0.9531766772270203,0.2838559746742249,0.1043066456913948
2020-08-20 22:37:59.096 +0200,13240.88231404167,-0.90911865234375,0.2565155029296875,0.076263427734375,13240.86227704167,2.55718663311131,-1.676232288521132,-0.3064213192164326,2.003264188766479,-0.3182446360588074,0.5860975384712219,-0.01865953207015991,-0.004652231931686401,0.02418899536132812,XArbitraryZVertical,-0.6741302784102526,0.3093826680052863,-0.6656900911353242,-0.08177748724072395,-0.9481247663497925,0.3016485869884491,0.1003385335206985
2020-08-20 22:37:59.120 +0200,13240.90235104167,-0.868194580078125,0.2245330810546875,0.049896240234375,13240.88231404167,2.600586748612258,-1.668617692930826,-0.3196591615890992,2.219158887863159,-0.2706219851970673,0.3134515881538391,-0.003366410732269287,-0.03932538628578186,0.02363419532775879,XArbitraryZVertical,-0.6762290448091616,0.2984514271430346,-0.6705208854040471,-0.06358261639085748,-0.9448040127754211,0.3142430186271667,0.09271795302629471
2020-08-20 22:37:59.138 +0200,13240.92238804167,-0.8342437744140625,0.1924591064453125,0.0563507080078125,13240.90235104167,2.648280959992415,-1.659289152810149,-0.3280589240491217,2.331201791763306,-0.3354326784610748,0.1156841143965721,0.02724725008010864,-0.07412147521972656,0.009178400039672852,XArbitraryZVertical,-0.6788445583286659,0.2846087667579295,-0.6753287199288286,-0.04581525215251483,-0.9429652690887451,0.3222060799598694,0.083664171397686
2020-08-20 22:37:59.157 +0200,13240.94242404167,-0.8568115234375,0.153533935546875,0.0821685791015625,13240.92238804167,2.697338387967128,-1.651426277659434,-0.3325600686271331,2.294916868209839,-0.4889508783817291,-0.06057979539036751,0.06996500492095947,-0.1106393039226532,0.008555769920349121,XArbitraryZVertical,-0.6823599279288446,0.2691649320787232,-0.6790542998019609,-0.02864420240369457,-0.9421389102935791,0.326463907957077,0.07612966746091843
2020-08-20 22:37:59.176 +0200,13240.96246104167,-0.9292144775390625,0.1348419189453125,0.1037750244140625,13240.94242404167,2.744163295240343,-1.648161872891474,-0.3330660085945449,2.091705560684204,-0.7158380150794983,-0.2383877635002136,0.07365769147872925,-0.1473420560359955,0.03361105918884277,XArbitraryZVertical,-0.6873004970221392,0.2532558180637612,-0.6806698320319846,-0.01296748338110782,-0.9422175884246826,0.3269420862197876,0.07304096221923828
2020-08-20 22:37:59.197 +0200,13240.98249804167,-0.9846649169921875,0.1779632568359375,0.07879638671875,13240.96246104167,2.786482590746066,-1.650308291036089,-0.3297642635471918,1.858901143074036,-0.8534422516822815,-0.3950426280498505,0.01396369934082031,-0.1773386299610138,0.0589897632598877,XArbitraryZVertical,-0.6936273006193837,0.2376035028568307,-0.6800187454261485,0.0004832068195254639,-0.9431295394897461,0.3238199949264526,0.07514851540327072
2020-08-20 22:37:59.220 +0200,13241.00253504167,-0.971893310546875,0.25628662109375,0.0496826171875,13240.98249804167,2.82416380073064,-1.655913722710139,-0.3230446387476892,1.661485195159912,-0.9203794598579407,-0.5607978701591492,-0.05641627311706543,-0.1551682353019714,0.04563701152801514,XArbitraryZVertical,-0.7006347408767709,0.2223050165384221,-0.6779086990842821,0.01145401950465855,-0.9448401927947998,0.3174551725387573,0.08061712235212326
2020-08-20 22:37:59.240 +0200,13241.02257204167,-0.87408447265625,0.2956695556640625,0.0408935546875,13241.00253504167,2.85926758088769,-1.663808753306768,-0.3131438294951784,1.580832719802856,-0.9524937272071838,-0.721427321434021,-0.06870841979980469,-0.07036212086677551,0.007451534271240234,XArbitraryZVertical,-0.7081347976581398,0.2067025625813365,-0.674831697493309,0.0205273177230558,-0.9472575187683105,0.3080511093139648,0.08836168050765991
2020-08-20 22:37:59.257 +0200,13241.04260904167,-0.77801513671875,0.305267333984375,0.0760650634765625,13241.02257204167,2.893694272353756,-1.67216170203177,-0.3006795454327483,1.567148327827454,-0.917141854763031,-0.8109573125839233,0.002837300300598145,-0.0007803738117218018,-0.02436542510986328,XArbitraryZVertical,-0.71560994986444,0.190337540135467,-0.6714693386461303,0.02833784559971669,-0.9502327442169189,0.2961693406105042,0.09665195643901825
2020-08-20 22:37:59.277 +0200,13241.06264604167,-0.7201690673828125,0.2863006591796875,0.1151885986328125,13241.04260904167,2.927782929362452,-1.680223663047889,-0.2878523027142174,1.529895901679993,-0.8735584020614624,-0.7954071760177612,0.1150245666503906,0.0295100212097168,-0.006509542465209961,XArbitraryZVertical,-0.7225965259635091,0.1738164285976082,-0.6681059610703266,0.03573084246401911,-0.9531208872795105,0.2838935554027557,0.1047157794237137
2020-08-20 22:37:59.297 +0200,13241.08268204167,-0.7000579833984375,0.25604248046875,0.134063720703125,13241.06264604167,2.960856487430602,-1.687392656991331,-0.2761956640796535,1.492776155471802,-0.7586970925331116,-0.6947288513183594,0.1862723231315613,0.03121271729469299,0.02676308155059814,XArbitraryZVertical,-0.7287153059515683,0.157910298578997,-0.6649725156116806,0.04301094153680396,-0.9555675387382507,0.2726974785327911,0.1119233220815659
2020-08-20 22:37:59.320 +0200,13241.10271904167,-0.7874755859375,0.2427825927734375,0.1679534912109375,13241.08268204167,2.992396849295334,-1.693499240324913,-0.2679610440503261,1.405122756958008,-0.7213939428329468,-0.4837295711040497,0.2292696833610535,0.009475141763687134,0.04767680168151855,XArbitraryZVertical,-0.7337580179615191,0.1435716534627786,-0.6621172637313206,0.05086367350886568,-0.9570625424385071,0.2647657990455627,0.1180272996425629
2020-08-20 22:37:59.357 +0200,13241.12275604167,-0.9485626220703125,0.268402099609375,0.199981689453125,13241.10271904167,3.021363249040171,-1.700827632110094,-0.2637808290050234,1.302272439002991,-0.7507294416427612,-0.2862721979618073,0.1865540742874146,-0.01126176118850708,0.06330215930938721,XArbitraryZVertical,-0.7384685263520864,0.1313557740881852,-0.6586996330335866,0.0593691250892552,-0.9572609663009644,0.2607324719429016,0.1251802146434784
2020-08-20 22:37:59.381 +0200,13241.14279304167,-1.065963745117188,0.321197509765625,0.19439697265625,13241.12275604167,3.047163768609638,-1.708658349985001,-0.2623658686726201,1.155053019523621,-0.6749252080917358,-0.20673468708992,0.04028415679931641,0.003962188959121704,0.09646391868591309,XArbitraryZVertical,-0.7427633518290983,0.1210952518062831,-0.6550121359982846,0.06780656498037577,-0.9566159248352051,0.2593661844730377,0.1327229142189026
2020-08-20 22:37:59.383 +0200,13241.16283004167,-1.104171752929688,0.368927001953125,0.1832122802734375,13241.14279304167,3.070743040368666,-1.714172062824456,-0.2612783111849585,1.110326766967773,-0.4895740449428558,-0.2347072064876556,-0.1069124937057495,0.04970303177833557,0.1016949415206909,XArbitraryZVertical,-0.7460061134985503,0.1117706835682434,-0.6521453251853392,0.07542446973888872,-0.9561483263969421,0.2583156824111938,0.1380356103181839
2020-08-20 22:37:59.397 +0200,13241.18286704167,-1.13299560546875,0.3981781005859375,0.2045745849609375,13241.16283004167,3.09503619708797,-1.716909165011793,-0.2590087831782589,1.18961763381958,-0.4254299402236938,-0.3424729406833649,-0.1687498688697815,0.1039052903652191,0.08032572269439697,XArbitraryZVertical,-0.7483276245426195,0.1018544476546286,-0.6502339464613528,0.08262696763565951,-0.9563441872596741,0.2561225295066833,0.1407371312379837
2020-08-20 22:37:59.417 +0200,13241.20290304167,-1.163925170898438,0.4106903076171875,0.260498046875,13241.18286704167,3.122124685152822,-1.718543496322199,-0.2545225474926124,1.34672737121582,-0.4262347519397736,-0.4815113544464111,-0.195378839969635,0.145384669303894,0.08547043800354004,XArbitraryZVertical,-0.7504002554594461,0.09018465138782909,-0.6486135239543228,0.08981433346196045,-0.9572397470474243,0.2517833709716797,0.1424676328897476
2020-08-20 22:37:59.443 +0200,13241.22294004167,-1.190216064453125,0.4014129638671875,0.2962188720703125,13241.20290304167,-3.13043844787959,-1.719204973540891,-0.2483779203884465,1.462498426437378,-0.3969309329986572,-0.5552918910980225,-0.2232726216316223,0.1713356524705887,0.1352062225341797,XArbitraryZVertical,-0.752187830290979,0.07666091131247352,-0.6471781054362538,0.09745268986637062,-0.9586573839187622,0.2458319813013077,0.1433268487453461
2020-08-20 22:37:59.457 +0200,13241.24297704167,-1.162551879882812,0.40460205078125,0.2860565185546875,13241.22294004167,-3.098258156142235,-1.7188808728822,-0.2414726888276687,1.518281102180481,-0.3383376598358154,-0.5680513978004456,-0.2506307363510132,0.1707432568073273,0.1810442209243774,XArbitraryZVertical,-0.7534902081692644,0.0623225817303215,-0.64597997243801,0.1052532373684771,-0.9603598713874817,0.2391328513622284,0.143263190984726
2020-08-20 22:37:59.477 +0200,13241.26301404167,-1.062515258789062,0.3798980712890625,0.2799224853515625,13241.24297704167,-3.065592633031338,-1.717196822163615,-0.2356782266667387,1.517642021179199,-0.2711801826953888,-0.4433667063713074,-0.2507039308547974,0.1805904656648636,0.1895432472229004,XArbitraryZVertical,-0.754054263800913,0.04821727764498898,-0.6451177833577626,0.1135799363151037,-0.9619545936584473,0.233502522110939,0.1418454796075821
2020-08-20 22:37:59.497 +0200,13241.28305104167,-1.000885009765625,0.3396453857421875,0.2905426025390625,13241.26301404167,-3.034467045108419,-1.715591941196691,-0.2333602209524481,1.371939539909363,-0.306951493024826,-0.2011429518461227,-0.1680441498756409,0.1676523983478546,0.1749875545501709,XArbitraryZVertical,-0.7542589915251503,0.03581857845431086,-0.6440126920366805,0.1227116470292424,-0.9627140164375305,0.2312479615211487,0.1403791904449463
2020-08-20 22:37:59.517 +0200,13241.30308804167,-0.9347686767578125,0.3153228759765625,0.2879180908203125,13241.28305104167,-3.010764567917597,-1.716841768920914,-0.2359392641354292,0.9352095127105713,-0.346894383430481,0.1262471824884415,-0.08965718746185303,0.128449484705925,0.1804524660110474,XArbitraryZVertical,-0.7549725923221192,0.02763867855093346,-0.641879601987134,0.1313126625734789,-0.9619444012641907,0.2337563335895538,0.141495019197464
2020-08-20 22:37:59.537 +0200,13241.32312504167,-0.8666229248046875,0.33599853515625,0.2502593994140625,13241.30308804167,-2.997197428263162,-1.720013617657799,-0.244262515486083,0.4817420244216919,-0.2914772033691406,0.5060791969299316,-0.02964437007904053,0.08494509756565094,0.1852600574493408,XArbitraryZVertical,-0.7559760205627162,0.02501734469780039,-0.6392255527746015,0.138798943315485,-0.9595336318016052,0.2418407946825027,0.1442512273788452
2020-08-20 22:37:59.557 +0200,13241.34316104167,-0.8255462646484375,0.37115478515625,0.20892333984375,13241.32312504167,-2.994191992652667,-1.72482088194335,-0.258313851443071,0.04834546521306038,-0.2675034403800964,0.8155933618545532,0.03452116250991821,0.0771663635969162,0.1494226455688477,XArbitraryZVertical,-0.757213667109653,0.02811714940654708,-0.6362361003189674,0.1450531261554828,-0.9553763866424561,0.2554506957530975,0.1483262181282043
2020-08-20 22:37:59.577 +0200,13241.36319804167,-0.8032073974609375,0.3863525390625,0.1863250732421875,13241.34316104167,-2.998807373665544,-1.731462188908708,-0.2766049578888022,-0.1721970289945602,-0.2725226879119873,1.036476373672485,0.08310985565185547,0.09484213590621948,0.1053949594497681,XArbitraryZVertical,-0.7587491553187959,0.03531294196429338,-0.6327708835349122,0.1505116901243694,-0.9495987296104431,0.2730912268161774,0.1538945734500885
2020-08-20 22:37:59.597 +0200,13241.38323504167,-0.79815673828125,0.4192962646484375,0.174163818359375,13241.36319804167,-3.006803343378917,-1.739049457808013,-0.2977920775187475,-0.2133830934762955,-0.2583770453929901,1.163880109786987,0.1026657223701477,0.0975797176361084,0.07244837284088135,XArbitraryZVertical,-0.7602991198414218,0.04461158747596217,-0.6289697252565947,0.1560514126061626,-0.9424868822097778,0.2934101819992065,0.1600898951292038
2020-08-20 22:37:59.617 +0200,13241.40327204167,-0.808929443359375,0.4719085693359375,0.15435791015625,13241.38323504167,-3.014691132771193,-1.746583725837844,-0.3207275465792538,-0.1133516952395439,-0.2405607551336288,1.201683759689331,0.1058328151702881,0.09682336449623108,0.04254257678985596,XArbitraryZVertical,-0.7615940987772198,0.05437998414675203,-0.6250296251945656,0.1623429648818619,-0.9343813061714172,0.3152571022510529,0.1659655123949051
2020-08-20 22:37:59.637 +0200,13241.42330904167,-0.8195648193359375,0.491241455078125,0.159698486328125,13241.40327204167,-3.019337478963136,-1.752447545013543,-0.3439048090236254,0.1144622936844826,-0.1901146322488785,1.140373826026917,0.09311056137084961,0.1261737644672394,0.03096318244934082,XArbitraryZVertical,-0.7622730615654569,0.06306867879879136,-0.6214089832838158,0.1697442446778353,-0.925955593585968,0.3371658027172089,0.1700757592916489
2020-08-20 22:37:59.657 +0200,13241.44334604167,-0.8426055908203125,0.4814453125,0.158905029296875,13241.42330904167,-3.017785413529855,-1.755196875400392,-0.3664414690520488,0.4332065880298615,-0.1331549435853958,1.033225059509277,0.07377982139587402,0.1424389183521271,0.02332854270935059,XArbitraryZVertical,-0.762085292790176,0.06941138870173484,-0.6184311284799832,0.1787484349532746,-0.9177801609039307,0.3582954406738281,0.1711838692426682
2020-08-20 22:37:59.677 +0200,13241.46338304167,-0.8818511962890625,0.474639892578125,0.15228271484375,13241.44334604167,-3.008990280711205,-1.753817292147268,-0.3873876810148733,0.7529464960098267,-0.05197007581591606,0.8815274238586426,0.05000388622283936,0.1197023391723633,0.02566957473754883,XArbitraryZVertical,-0.7608877791782718,0.07284929854426563,-0.6163887870568967,0.1892289437926006,-0.9104350209236145,0.3777709603309631,0.1685144603252411
2020-08-20 22:37:59.697 +0200,13241.48341904167,-0.9200592041015625,0.489501953125,0.1477203369140625,13241.46338304167,-2.993753273228402,-1.747932296296194,-0.4065662197092373,0.9546529650688171,0.04626887664198875,0.7414719462394714,0.01107412576675415,0.09253346920013428,0.03368282318115234,XArbitraryZVertical,-0.7586074437154975,0.07374478234631984,-0.6154244630452033,0.2008213267397173,-0.9041121006011963,0.3954578042030334,0.1618470996618271
2020-08-20 22:37:59.717 +0200,13241.50345604167,-0.9501190185546875,0.4842529296875,0.13671875,13241.48341904167,-2.974242994790308,-1.73810500546984,-0.4228092443315208,1.049967765808105,0.1557801961898804,0.5401078462600708,-0.03621846437454224,0.08634573221206665,0.0337677001953125,XArbitraryZVertical,-0.7554237742102725,0.07257577918920978,-0.615576883214467,0.2124449862984553,-0.8992061018943787,0.4103239178657532,0.1518646478652954
2020-08-20 22:37:59.737 +0200,13241.52349304167,-0.9721221923828125,0.447723388671875,0.1289215087890625,13241.50345604167,-2.953044629798815,-1.725126262830806,-0.4346043806348212,1.022635102272034,0.2675261497497559,0.3085366785526276,-0.06980603933334351,0.0834181010723114,0.03668689727783203,XArbitraryZVertical,-0.7515590890338709,0.06980607788673776,-0.6169601391562712,0.2228144552304865,-0.8962563872337341,0.4210515916347504,0.1394279003143311
2020-08-20 22:37:59.757 +0200,13241.54353004167,-0.9779205322265625,0.421630859375,0.136566162109375,13241.52349304167,-2.931662047406972,-1.709130559188275,-0.4418549514547144,0.9948822855949402,0.4247053861618042,0.1510416865348816,-0.09956276416778564,0.04794609546661377,0.04133915901184082,XArbitraryZVertical,-0.7469757014095749,0.06597255445054,-0.6197452513178465,0.2314965844224306,-0.8953244686126709,0.4276170134544373,0.1246501505374908
2020-08-20 22:37:59.778 +0200,13241.56356704167,-0.9835968017578125,0.3763580322265625,0.166046142578125,13241.54353004167,-2.910830202013345,-1.689673462249927,-0.4464788607799131,0.8961458802223206,0.6243575811386108,0.07510335743427277,-0.1091306805610657,0.01390382647514343,0.06148087978363037,XArbitraryZVertical,-0.7413756660716225,0.0620316746274291,-0.6240144728963162,0.2389982132821924,-0.8956073522567749,0.4317922592163086,0.1069716140627861
2020-08-20 22:37:59.797 +0200,13241.58360404167,-1.016143798828125,0.319580078125,0.1867828369140625,13241.56356704167,-2.893596157376135,-1.667789081960783,-0.4490118343068277,0.636288046836853,0.8092549443244934,0.01267984881997108,-0.1088150143623352,-0.02401304244995117,0.1028201580047607,XArbitraryZVertical,-0.7349291006411145,0.05916073934169115,-0.6297116897299893,0.2446270751617767,-0.89664226770401,0.4340755343437195,0.08724155277013779
2020-08-20 22:37:59.817 +0200,13241.60364104167,-1.031234741210938,0.2879180908203125,0.2093505859375,13241.58360404167,-2.884659724572091,-1.645898524958456,-0.4498439108839963,0.1377692073583603,0.9948272705078125,0.01211232878267765,-0.1370638012886047,-0.08111998438835144,0.1418627500534058,XArbitraryZVertical,-0.728229799752215,0.05886346768476176,-0.6365207646281037,0.247098745495309,-0.8979765772819519,0.4348249733448029,0.06756709516048431
2020-08-20 22:37:59.838 +0200,13241.62367704167,-1.073623657226562,0.2808380126953125,0.2347412109375,13241.60364104167,-2.88857200804413,-1.626094153228354,-0.4500992767293658,-0.5123416781425476,1.124307990074158,0.0325169712305069,-0.1537917256355286,-0.1235028505325317,0.1840050220489502,XArbitraryZVertical,-0.7217602128401722,0.06280683694085605,-0.6441506162498077,0.2453313397374846,-0.8990275859832764,0.4350549280643463,0.04976500570774078
2020-08-20 22:37:59.858 +0200,13241.64371404167,-1.080612182617188,0.2775421142578125,0.227264404296875,13241.62367704167,-2.908465219273346,-1.61139411844483,-0.4499485176290549,-1.27348268032074,1.20865797996521,0.03719253093004227,-0.1843944787979126,-0.1384012401103973,0.2234935760498047,XArbitraryZVertical,-0.7163342823889089,0.07168481521825662,-0.6518592872931889,0.2383400876253668,-0.8997275829315186,0.4349191784858704,0.03654703497886658
2020-08-20 22:37:59.878 +0200,13241.66375104167,-1.038360595703125,0.3059844970703125,0.20086669921875,13241.64371404167,-2.944142903109437,-1.601716421268932,-0.4498904063330129,-1.891807079315186,1.292355060577393,0.06540510803461075,-0.2140061259269714,-0.1439352631568909,0.2411736249923706,XArbitraryZVertical,-0.7117616105498833,0.08552708520373015,-0.6594652811414227,0.2262432792437581,-0.9000642895698547,0.4348668456077576,0.02783894538879395
2020-08-20 22:37:59.897 +0200,13241.68378804167,-0.9743804931640625,0.3740234375,0.10980224609375,13241.66375104167,-2.990596013995864,-1.596167684720772,-0.4501252958733119,-2.226314306259155,1.267737627029419,0.0733414813876152,-0.1849009394645691,-0.1321160793304443,0.2228353023529053,XArbitraryZVertical,-0.7077242195900435,0.1027000284298449,-0.6664835282715402,0.2106629885949259,-0.9001028537750244,0.435078352689743,0.02284173294901848
2020-08-20 22:37:59.918 +0200,13241.70382504167,-0.8681488037109375,0.4343109130859375,-0.0663604736328125,13241.68378804167,-3.040445216811957,-1.593009983450167,-0.4505093573843524,-2.208697557449341,1.214083909988403,0.06603757292032242,-0.1324613690376282,-0.07558137178421021,0.1695308685302734,XArbitraryZVertical,-0.7038597930846663,0.1207444383549563,-0.6726021243272362,0.1939293864013005,-0.9000033736228943,0.4354241192340851,0.01999565586447716
2020-08-20 22:37:59.938 +0200,13241.72386204167,-0.748016357421875,0.488922119140625,-0.183349609375,13241.70382504167,-3.086611518134857,-1.590611244967667,-0.4508700203091822,-1.866705536842346,0.9355835914611816,0.01296183839440346,-0.03511184453964233,-0.01534891128540039,0.02817678451538086,XArbitraryZVertical,-0.7000476304467885,0.1372957431043298,-0.6777074433014162,0.1783136401934998,-0.8998915553092957,0.4357487857341766,0.01783361285924911
2020-08-20 22:37:59.958 +0200,13241.74389804167,-0.6718292236328125,0.5203399658203125,-0.23834228515625,13241.72386204167,-3.121454116355898,-1.591724551144471,-0.4491472433545433,-1.222842693328857,0.453708827495575,-0.104745090007782,0.08171325922012329,0.05143058300018311,-0.1294702887535095,XArbitraryZVertical,-0.6980598512498642,0.1487884868966251,-0.6804630774177426,0.1659652607372187,-0.9006204605102539,0.4341975152492523,0.018851138651371
2020-08-20 22:37:59.978 +0200,13241.7639355,-0.6539306640625,0.50439453125,-0.1853485107421875,13241.74389804167,-3.138860028635248,-1.595892675841735,-0.4455328914281637,-0.330305427312851,-0.078793965280056,-0.2261131703853607,0.1777933239936829,0.0947628915309906,-0.2269850373268127,XArbitraryZVertical,-0.698443397812354,0.1532934045223651,-0.6807097237606838,0.1590982112852885,-0.9020969867706299,0.4309388101100922,0.02264409512281418
2020-08-20 22:37:59.998 +0200,13241.7839725,-0.73699951171875,0.4389495849609375,-0.094390869140625,13241.7639355,-3.135260733981316,-1.600036439687623,-0.4398537478416411,0.6262305974960327,-0.4508516788482666,-0.3394210338592529,0.2250176072120667,0.1041729152202606,-0.2092198729515076,XArbitraryZVertical,-0.7005674969226053,0.149772257102001,-0.6794138138648333,0.1586517064996787,-0.9044272303581238,0.4258071482181549,0.02645309269428253
2020-08-20 22:38:00.018 +0200,13241.8040095,-0.8864593505859375,0.391571044921875,-0.001556396484375,13241.7839725,-3.111155752786408,-1.600791108687105,-0.4328591013468769,1.514864921569824,-0.6026387810707092,-0.423756867647171,0.1848297715187073,0.05933243036270142,-0.1235103011131287,XArbitraryZVertical,-0.7030842732964632,0.1388691737122885,-0.6777517000637031,0.1644399482994266,-0.9073618650436401,0.4194679260253906,0.02722428552806377
2020-08-20 22:38:00.038 +0200,13241.8240465,-1.06201171875,0.361846923828125,0.0133056640625,13241.8040095,-3.068444020784112,-1.594503718805242,-0.4242166778695889,2.302203416824341,-0.5067793726921082,-0.5547424554824829,0.05564236640930176,0.005589783191680908,-0.02189093828201294,XArbitraryZVertical,-0.704315848287403,0.1214132448838231,-0.6770534635634385,0.1754898055861507,-0.9111053943634033,0.411607027053833,0.02160398103296757
2020-08-20 22:38:00.058 +0200,13241.8440835,-1.195663452148438,0.294830322265625,0.025604248046875,13241.8240465,-3.012400002917964,-1.580169783105769,-0.4121832765408404,2.727708578109741,-0.3297961056232452,-0.7401542067527771,-0.1102533340454102,-0.0130731463432312,0.03365206718444824,XArbitraryZVertical,-0.703225762145418,0.09883153122582405,-0.6780706496059032,0.1895416791712915,-0.9162080883979797,0.4006107151508331,0.008588287979364395
2020-08-20 22:38:00.078 +0200,13241.8641205,-1.19610595703125,0.1892852783203125,0.037353515625,13241.8440835,-2.951969036842094,-1.560710549048413,-0.3957107668415094,2.745950698852539,-0.08285821974277496,-0.9028081893920898,-0.2611094117164612,-0.04735478758811951,0.06472998857498169,XArbitraryZVertical,-0.699932917987219,0.07376178168907244,-0.6805773685361274,0.2036358921109455,-0.9226759076118469,0.3854641318321228,-0.009306219406425953
2020-08-20 22:38:00.098 +0200,13241.8841565,-1.136489868164062,0.1005096435546875,0.0433197021484375,13241.8641205,-2.897260236312019,-1.539583682777484,-0.375439843247567,2.285064220428467,0.1145406067371368,-0.9840519428253174,-0.31036376953125,-0.1230983436107635,0.09288346767425537,XArbitraryZVertical,-0.6949928023155483,0.0496797305718773,-0.6843552874495703,0.2148832315602568,-0.9298933148384094,0.3666817843914032,-0.02903385832905769
2020-08-20 22:38:00.118 +0200,13241.9041935,-1.037124633789062,0.056243896484375,0.038330078125,13241.8841565,-2.857533338790931,-1.52203121467349,-0.3548459654469315,1.444428682327271,0.2245709747076035,-0.8990973234176636,-0.2554363608360291,-0.2091754376888275,0.115090012550354,XArbitraryZVertical,-0.6900867076034539,0.03042816714610073,-0.6883614699790749,0.2213886835214926,-0.9365853071212769,0.34744593501091,-0.04570892453193665
2020-08-20 22:38:00.138 +0200,13241.9242305,-0.9290924072265625,0.0507659912109375,-0.0278778076171875,13241.9041935,-2.839674417343324,-1.510610905969011,-0.3382989503935759,0.2920674681663513,0.3166090250015259,-0.6328922510147095,-0.1669647693634033,-0.2542080879211426,0.1260320544242859,XArbitraryZVertical,-0.6864749307382226,0.01955076663984129,-0.6921547555431271,0.2220173032692754,-0.9416125416755676,0.3318829238414764,-0.05673987418413162
2020-08-20 22:38:00.158 +0200,13241.9442675,-0.8406219482421875,0.104888916015625,-0.074371337890625,13241.9242305,-2.846388257567879,-1.505468263073386,-0.3295407169311803,-0.8191554546356201,0.3842695653438568,-0.2645577788352966,-0.05392032861709595,-0.2632235586643219,0.1004611253738403,XArbitraryZVertical,-0.6846501228262859,0.01922948306254941,-0.6956183595248788,0.2167937463094282,-0.944172739982605,0.3236084878444672,-0.06176887080073357
2020-08-20 22:38:00.178 +0200,13241.9643045,-0.81439208984375,0.220855712890625,-0.0934906005859375,13241.9442675,-2.870414579933133,-1.506214905746867,-0.3307961304462467,-1.377126693725586,0.3183704316616058,0.2414761334657669,0.04801052808761597,-0.2408446669578552,0.02530527114868164,XArbitraryZVertical,-0.6846214744515912,0.027832014327477,-0.6977851628319786,0.2088413642484253,-0.9438124895095825,0.3247961103916168,-0.06103762984275818
2020-08-20 22:38:00.198 +0200,13241.9843415,-0.8292236328125,0.311981201171875,-0.1223297119140625,13241.9643045,-2.901396045077679,-1.510024755645505,-0.340998874343693,-1.544595122337341,0.3165730535984039,0.5481895208358765,0.09276872873306274,-0.1447806656360626,0.00174260139465332,XArbitraryZVertical,-0.6853008741910543,0.04176277633396499,-0.6986024575590885,0.2014279224630726,-0.9406813979148865,0.334428608417511,-0.0572371631860733
2020-08-20 22:38:00.218 +0200,13242.0043785,-0.8507537841796875,0.35491943359375,-0.15625,13241.9843415,-2.931189314768968,-1.51394551866958,-0.3545670894186848,-1.253228902816772,0.3201933801174164,0.6026085019111633,0.08599042892456055,-0.05685314536094666,-0.02959573268890381,XArbitraryZVertical,-0.6856851186475662,0.05650680987174183,-0.6988516587592084,0.1955742167042934,-0.9362818002700806,0.347184419631958,-0.05328579619526863
2020-08-20 22:38:00.238 +0200,13242.0244145,-0.855194091796875,0.3209228515625,-0.1522369384765625,13242.0043785,-2.951829301903585,-1.514352075213712,-0.3661564691771818,-0.7225919961929321,0.3416430056095123,0.4236277639865875,0.05543345212936401,0.002636313438415527,-0.06577104330062866,XArbitraryZVertical,-0.6848903718953674,0.06773386085538767,-0.6995711958553171,0.192191360547467,-0.9322234392166138,0.3580293357372284,-0.05267460644245148
2020-08-20 22:38:00.259 +0200,13242.0444515,-0.855712890625,0.266998291015625,-0.1203460693359375,13242.0244145,-2.961144530992091,-1.511322203657216,-0.3729737484030163,-0.2064536809921265,0.2914437353610992,0.1997442692518234,0.0486065149307251,-0.01223284006118774,-0.06886929273605347,XArbitraryZVertical,-0.6832975213282203,0.07367662721586936,-0.7008339644409205,0.1910706261129093,-0.9296013712882996,0.3643863499164581,-0.05535250529646873
2020-08-20 22:38:00.279 +0200,13242.0644885,-0.86395263671875,0.2304229736328125,-0.0894927978515625,13242.0444515,-2.961665134331588,-1.506542253991872,-0.3748003984720754,0.1062042415142059,0.2021319717168808,-0.01935923472046852,0.04290395975112915,-0.07097798585891724,-0.04695367813110352,XArbitraryZVertical,-0.6815444455085206,0.07497289857970554,-0.7023362472361196,0.1913113842396376,-0.9286603927612305,0.3660867810249329,-0.05975246801972389
2020-08-20 22:38:00.299 +0200,13242.0845255,-0.8850250244140625,0.2029571533203125,-0.0688018798828125,13242.0644885,-2.958967044093421,-1.502668109412361,-0.37209249678308,0.1337173581123352,0.07960233092308044,-0.2330785095691681,0.04170495271682739,-0.1084685325622559,-0.004113316535949707,XArbitraryZVertical,-0.6803659177224601,0.07344183982893865,-0.7036623429979482,0.1912272571894436,-0.9294075965881348,0.3635655343532562,-0.06341702491044998
2020-08-20 22:38:00.318 +0200,13242.1045625,-0.9089508056640625,0.20172119140625,-0.045867919921875,13242.0845255,-2.957906846983286,-1.501966584719619,-0.365693264055846,-0.01864022947847843,-0.04698410630226135,-0.3870318531990051,0.02971565723419189,-0.1371120810508728,0.02021586894989014,XArbitraryZVertical,-0.6803457827927991,0.0708220339303272,-0.7044234965190397,0.189476733781492,-0.9316648840904236,0.3575968146324158,-0.06422770768404007
2020-08-20 22:38:00.341 +0200,13242.1245995,-0.918975830078125,0.2130279541015625,-0.046478271484375,13242.1045625,-2.961473037767184,-1.505176750899869,-0.3572792133419195,-0.2690394222736359,-0.1302654147148132,-0.4555919468402863,0.004344046115875244,-0.1370891630649567,0.04091501235961914,XArbitraryZVertical,-0.6815918865924691,0.06867781064851781,-0.7044717490719022,0.1855680849021822,-0.9348356127738953,0.3497265577316284,-0.06143171712756157
2020-08-20 22:38:00.359 +0200,13242.1446365,-0.910797119140625,0.2554779052734375,-0.0609893798828125,13242.1245995,-2.970290592811571,-1.511543837590086,-0.3483873828428289,-0.4796820282936096,-0.1869191080331802,-0.4722950756549835,-0.008957087993621826,-0.1235611438751221,0.03881978988647461,XArbitraryZVertical,-0.6837850215150921,0.06788152596513067,-0.7039331042378507,0.1797453873506517,-0.9382750391960144,0.3413825035095215,-0.05566028505563736
2020-08-20 22:38:00.379 +0200,13242.1646725,-0.8786468505859375,0.2789764404296875,-0.0901336669921875,13242.1446365,-2.982209539161517,-1.519609662778045,-0.3396016199792278,-0.5765188336372375,-0.2108041942119598,-0.4642747640609741,-0.003824591636657715,-0.0846979022026062,0.02510517835617065,XArbitraryZVertical,-0.6864723752189529,0.06807776543805359,-0.703010713631825,0.1729076818731091,-0.9416525363922119,0.3331114947795868,-0.04824219271540642
2020-08-20 22:38:00.398 +0200,13242.1847095,-0.8599395751953125,0.302093505859375,-0.0794677734375,13242.1646725,-2.995015740459998,-1.528558010406897,-0.3308176185592863,-0.5631176829338074,-0.2716449201107025,-0.4603545069694519,0.02523148059844971,-0.0441327691078186,-0.01334917545318604,XArbitraryZVertical,-0.6894425655945574,0.06856289832228694,-0.7017739298562202,0.1657753118145379,-0.9449335932731628,0.3248164355754852,-0.03993615508079529
2020-08-20 22:38:00.419 +0200,13242.2047465,-0.8540191650390625,0.30810546875,-0.0882415771484375,13242.1847095,-3.006458917988639,-1.538200729842797,-0.3222113810171893,-0.4869892001152039,-0.3165846765041351,-0.4397922456264496,0.05296838283538818,-0.01222130656242371,-0.02275949716567993,XArbitraryZVertical,-0.6926983307680865,0.06864902308274515,-0.7000813808084282,0.1591927505844731,-0.9480335712432861,0.3166649043560028,-0.03091266751289368
2020-08-20 22:38:00.439 +0200,13242.2247835,-0.8573150634765625,0.31719970703125,-0.1036376953125,13242.2047465,-3.016320944161243,-1.547951016489746,-0.3138233980975118,-0.4149976968765259,-0.3524702489376068,-0.4211353659629822,0.06518608331680298,0.010265052318573,-0.02953368425369263,XArbitraryZVertical,-0.6960378380601726,0.06831908316993689,-0.6981294454916563,0.1532290410377225,-0.9509120583534241,0.3086975514888763,-0.02172766253352165
2020-08-20 22:38:00.459 +0200,13242.2448205,-0.878570556640625,0.32098388671875,-0.099578857421875,13242.2247835,-3.023915136281981,-1.557897399010308,-0.305786746566315,-0.2989175617694855,-0.4116419553756714,-0.3917323052883148,0.06889736652374268,0.02056145668029785,-0.05500566959381104,XArbitraryZVertical,-0.6995082297013147,0.06736564718727441,-0.6958419187317084,0.148169690375219,-0.9535312056541443,0.3010435104370117,-0.01230021193623543
2020-08-20 22:38:00.479 +0200,13242.2648575,-0.97113037109375,0.3305816650390625,-0.0570526123046875,13242.2448205,-3.029161710007704,-1.56855401319075,-0.2981943063989512,-0.1849149614572525,-0.4947024881839752,-0.3704667687416077,0.05731898546218872,0.03652313351631165,-0.07273083925247192,XArbitraryZVertical,-0.7032822964721145,0.06574445843087454,-0.6930445681255739,0.1440865227621734,-0.9558661580085754,0.2937946915626526,-0.002143355319276452
2020-08-20 22:38:00.499 +0200,13242.2848945,-1.12884521484375,0.336151123046875,-0.002838134765625,13242.2648575,-3.03159018703872,-1.580019469890931,-0.2907617932714431,-0.0572173148393631,-0.5644213557243347,-0.3776760399341583,0.003004968166351318,0.04713433980941772,-0.05336469411849976,XArbitraryZVertical,-0.7074088775072694,0.06317136892905054,-0.6897030880753179,0.1410380585301218,-0.9579850435256958,0.28668212890625,0.008835883811116219
2020-08-20 22:38:00.519 +0200,13242.3049305,-1.230056762695312,0.334442138671875,0.01983642578125,13242.2848945,-3.031565649581185,-1.588940458226575,-0.2844362670963599,-0.003375522326678038,-0.514121413230896,-0.4199725389480591,-0.1402226686477661,0.06352189183235168,-0.00629812479019165,XArbitraryZVertical,-0.71068131342604,0.06032530801424148,-0.6869789565054205,0.1391143792318053,-0.9596619606018066,0.2806164026260376,0.01741414330899715
2020-08-20 22:38:00.539 +0200,13242.3249675,-1.22576904296875,0.3525543212890625,0.001617431640625,13242.3049305,-3.030692711773137,-1.595556715770015,-0.277256463798643,0.04251380637288094,-0.3893907070159912,-0.4464600086212158,-0.2725983262062073,0.07163694500923157,0.02192932367324829,XArbitraryZVertical,-0.7131976359583273,0.05705532047618758,-0.6850546167805367,0.137090961996657,-0.9615151286125183,0.2737179100513458,0.02381235547363758
2020-08-20 22:38:00.559 +0200,13242.3450045,-1.133392333984375,0.4365997314453125,0.0063629150390625,13242.3249675,-3.028633838472937,-1.601676424848305,-0.2687376424822143,0.1220529675483704,-0.2917195558547974,-0.3990981578826904,-0.3070327043533325,0.08084785938262939,0.0209081768989563,XArbitraryZVertical,-0.7155980242008336,0.05294297527558949,-0.6833013326118978,0.1349658491233827,-0.963647186756134,0.265514612197876,0.02976698242127895
2020-08-20 22:38:00.579 +0200,13242.3650415,-1.021453857421875,0.485687255859375,-0.0235443115234375,13242.3450045,-3.026347505429151,-1.606852699057985,-0.2623577115054787,0.009675165638327599,-0.2643542289733887,-0.216125950217247,-0.2406477928161621,0.1535365283489227,-0.01368951797485352,XArbitraryZVertical,-0.7176007812129797,0.04956440034064577,-0.6817158817293529,0.1336262663595863,-0.9651535153388977,0.2593583166599274,0.03481502085924149
2020-08-20 22:38:00.599 +0200,13242.3850785,-0.8649749755859375,0.43841552734375,-0.0069427490234375,13242.3650415,-3.027900969743483,-1.611358464266004,-0.2606178814787633,-0.1447283923625946,-0.1540059000253677,0.08365221321582794,-0.1363244652748108,0.2260717749595642,-0.02257215976715088,XArbitraryZVertical,-0.7191440347684488,0.04922073019359988,-0.6803148978272787,0.1325926490131037,-0.9654361605644226,0.2576776146888733,0.03918164595961571
2020-08-20 22:38:00.619 +0200,13242.4051155,-0.7972259521484375,0.3686370849609375,0.005462646484375,13242.3850785,-3.032564632514672,-1.614439428250706,-0.2667714099955146,-0.2955266833305359,-0.04230386391282082,0.5577813982963562,0.01388847827911377,0.2124754786491394,-0.02367568016052246,XArbitraryZVertical,-0.7198981062530253,0.05281757163659865,-0.6791145327535689,0.1332689086160476,-0.9637086391448975,0.2636184394359589,0.04208595678210258
2020-08-20 22:38:00.639 +0200,13242.4251525,-0.8466033935546875,0.426727294921875,0.0141143798828125,13242.4051155,-3.042997742066764,-1.618022904545652,-0.2828050122087704,-0.6592938303947449,-0.04111183434724808,1.084865808486938,0.120505154132843,0.1156977415084839,-0.01406466960906982,XArbitraryZVertical,-0.7203062009572261,0.06185334637383533,-0.6774699059256488,0.1355276188889241,-0.9592058658599854,0.2790503203868866,0.04533372074365616
2020-08-20 22:38:00.659 +0200,13242.4451885,-0.95611572265625,0.572235107421875,0.0076904296875,13242.4251525,-3.062371982681937,-1.624612465699315,-0.3074395715474251,-1.024815917015076,-0.04897721484303474,1.437466144561768,0.1020671129226685,0.09873196482658386,-0.00432431697845459,XArbitraryZVertical,-0.7209240119698869,0.0768282729411531,-0.6747812513071274,0.1379720314372843,-0.9517316818237305,0.3026192486286163,0.05126802995800972
2020-08-20 22:38:00.679 +0200,13242.4652255,-1.02435302734375,0.712799072265625,-0.042938232421875,13242.4451885,-3.086602264284557,-1.632507402684833,-0.3370736830538357,-1.058126211166382,0.07036622613668442,1.608070969581604,-0.0009459257125854492,0.1917049288749695,-0.01488447189331055,XArbitraryZVertical,-0.7211489325718379,0.09510482094194996,-0.6716354591427167,0.1407305203665395,-0.9419301152229309,0.3307268619537354,0.05820142105221748
2020-08-20 22:38:00.699 +0200,13242.4852625,-1.033584594726562,0.854156494140625,-0.0104522705078125,13242.4652255,-3.109315055406236,-1.637948620067589,-0.3693801763332244,-0.78304523229599,0.1340757012367249,1.738849520683289,-0.1037999391555786,0.3087742328643799,-0.05932784080505371,XArbitraryZVertical,-0.7199537286183053,0.1138181900328755,-0.6691034347716865,0.1449573714998367,-0.9304494261741638,0.3610374927520752,0.06257590651512146
2020-08-20 22:38:00.719 +0200,13242.5052995,-0.9969024658203125,0.9910430908203125,-0.054901123046875,13242.4852625,-3.121149684761247,-1.638300049608873,-0.4043745265917968,-0.000332860741764307,0.3199310600757599,1.840051054954529,-0.1509715914726257,0.4266217350959778,-0.05150341987609863,XArbitraryZVertical,-0.7170480390203606,0.1298009176556991,-0.6673982305105065,0.1535364380904809,-0.9172548651695251,0.3934438228607178,0.06201233714818954
2020-08-20 22:38:00.739 +0200,13242.5253365,-0.9910125732421875,1.267898559570312,-0.1570892333984375,13242.5052995,-3.115715723742299,-1.62772977271362,-0.4440656404503386,0.6655539870262146,0.4657897055149078,2.063914060592651,-0.1382884383201599,0.5147465467453003,-0.05118966102600098,XArbitraryZVertical,-0.7109985033824014,0.1420318585878414,-0.6677096646577757,0.168736107846692,-0.9015493392944336,0.4296143352985382,0.0513838417828083
2020-08-20 22:38:00.759 +0200,13242.5453735,-0.95050048828125,1.52777099609375,-0.1995697021484375,13242.5253365,-3.093312455074478,-1.607116803347721,-0.4866335511413594,1.659978032112122,0.6175132393836975,2.086064338684082,-0.1431925296783447,0.6946902275085449,-0.1243540644645691,XArbitraryZVertical,-0.7024607021722932,0.1503246098234572,-0.6693205754567945,0.1896349425770832,-0.8833292126655579,0.4676528871059418,0.03209705278277397
2020-08-20 22:38:00.779 +0200,13242.5654105,-0.9614410400390625,1.463363647460938,-0.2394256591796875,13242.5453735,-3.041246288638459,-1.568520050554317,-0.5285166144103605,2.902962684631348,0.7015884518623352,1.968846559524536,-0.1336422562599182,0.9740800857543945,-0.1674312353134155,XArbitraryZVertical,-0.6901985853875732,0.1504761364904016,-0.6732249195020307,0.2185199640639471,-0.8635537028312683,0.5042529106140137,-0.001965690171346068
2020-08-20 22:38:00.799 +0200,13242.5854465,-1.057861328125,1.276077270507812,-0.193145751953125,13242.5654105,-2.956633296227229,-1.51052888429216,-0.5646070043238652,4.196675300598145,0.7098854780197144,1.925227999687195,-0.1342473030090332,0.9993064403533936,-0.1726701855659485,XArbitraryZVertical,-0.6742643966956522,0.1411594624721641,-0.6786475346308013,0.2547137401111336,-0.8432652354240417,0.5350838303565979,-0.05088305845856667
2020-08-20 22:38:00.819 +0200,13242.6054835,-1.089080810546875,1.0938720703125,-0.231903076171875,13242.5854465,-2.844490879778538,-1.432095066175462,-0.5951614934558803,4.673446655273438,1.027044773101807,2.031773805618286,-0.2275071144104004,0.8147338628768921,-0.0511547327041626,XArbitraryZVertical,-0.6533848957786805,0.1258800395095433,-0.6848198026746327,0.297093032472283,-0.8201056718826294,0.5606424808502197,-0.1144847869873047
2020-08-20 22:38:00.839 +0200,13242.6255205,-1.1246337890625,1.078933715820312,-0.30096435546875,13242.6054835,-2.722255737549204,-1.337060922250702,-0.6200683049892159,4.658695220947266,1.477421522140503,2.273106098175049,-0.3144252896308899,0.5846343040466309,0.003689706325531006,XArbitraryZVertical,-0.6271854054551655,0.1113133532513696,-0.6915938132342812,0.3405081611816549,-0.7917088866233826,0.5810907483100891,-0.1884956061840057
2020-08-20 22:38:00.860 +0200,13242.6455575,-1.116195678710938,1.095077514648438,-0.3677215576171875,13242.6255205,-2.595656763635882,-1.22821804052991,-0.6389563496384515,4.618410110473633,1.963392496109009,2.376792907714844,-0.3799564838409424,0.482721209526062,0.0139046311378479,XArbitraryZVertical,-0.5960178403923965,0.09969674811106305,-0.698413359349544,0.3834607760418194,-0.756074070930481,0.5963580012321472,-0.2696465849876404
2020-08-20 22:38:00.880 +0200,13242.6655945,-1.061126708984375,0.8338775634765625,-0.4789581298828125,13242.6455575,-2.46840040183615,-1.106064094572664,-0.6462881838506939,4.427415370941162,2.602895975112915,2.250730514526367,-0.4367831945419312,0.5348069071769714,0.05401432514190674,XArbitraryZVertical,-0.5593777220641823,0.09054613810971329,-0.7065237663700314,0.4239365558029384,-0.7136556506156921,0.6022273302078247,-0.357795923948288
2020-08-20 22:38:00.900 +0200,13242.6856315,-1.023086547851562,0.6113739013671875,-0.4343109130859375,13242.6655945,-2.349256549891747,-0.9776011775851702,-0.6410811365315268,4.00775671005249,3.022664308547974,2.119699478149414,-0.4307399392127991,0.3687508702278137,0.03281009197235107,XArbitraryZVertical,-0.5184796493521221,0.08466643160851352,-0.7159339291321243,0.4598359122706194,-0.664529025554657,0.59806227684021,-0.4480209052562714
2020-08-20 22:38:00.920 +0200,13242.7056685,-0.9304656982421875,0.515380859375,-0.4442291259765625,13242.6856315,-2.243274754627136,-0.849873661776218,-0.6291056408754845,3.477046012878418,3.479964017868042,2.135011196136475,-0.4609813690185547,0.1053973436355591,0.06211328506469727,XArbitraryZVertical,-0.4755430839226552,0.08369200877740603,-0.7250474471741885,0.4910811625763856,-0.6073834896087646,0.5884218811988831,-0.5337088704109192
2020-08-20 22:38:00.940 +0200,13242.7257045,-0.8232269287109375,0.4450225830078125,-0.4839935302734375,13242.7056685,-2.151924473360563,-0.7214736750192327,-0.6149999816332385,2.696279048919678,3.980983257293701,2.063363552093506,-0.4504246711730957,-0.01478779315948486,0.200204610824585,XArbitraryZVertical,-0.4305400126942016,0.089470610857393,-0.7340478320063712,0.5174978843883944,-0.539472222328186,0.5769584774971008,-0.6132606267929077
2020-08-20 22:38:00.960 +0200,13242.7457415,-0.7429046630859375,0.478057861328125,-0.440582275390625,13242.7257045,-2.078006002405088,-0.5964786089803795,-0.6008843210863107,2.253209114074707,4.231735706329346,1.862116932868958,-0.4071522951126099,-0.0776025652885437,0.2250956296920776,XArbitraryZVertical,-0.3853557893335807,0.1014876895125719,-0.7428518590233538,0.5379333696760182,-0.4633373022079468,0.565372109413147,-0.6824023127555847
2020-08-20 22:38:00.980 +0200,13242.76577679167,-0.668487548828125,0.4740753173828125,-0.5435791015625,13242.7457415,-2.015803002714362,-0.4750137590474325,-0.5821666774663709,1.908580422401428,4.408680438995361,1.544739603996277,-0.4041992723941803,-0.07825702428817749,0.2855832576751709,XArbitraryZVertical,-0.3394585830881794,0.1156255201767463,-0.7513623550240643,0.5539433766845704,-0.382012814283371,0.5498349666595459,-0.7427971959114075
2020-08-20 22:38:01.000 +0200,13242.78581379167,-0.5375823974609375,0.472503662109375,-0.594757080078125,13242.76577679167,-1.971853113741113,-0.3630823044041311,-0.5624940092761442,1.58491325378418,4.245053768157959,1.047743201255798,-0.4083403050899506,-0.03509622812271118,0.2997627854347229,XArbitraryZVertical,-0.29533826111972,0.13185570690029,-0.7601952434862117,0.5634648252825453,-0.3004373908042908,0.533297598361969,-0.7907787561416626
2020-08-20 22:38:01.020 +0200,13242.80585079167,-0.4761505126953125,0.299285888671875,-0.5655364990234375,13242.78581379167,-1.941261374703299,-0.2673259822804032,-0.5376436809491965,1.512058854103088,3.618826150894165,0.6327031254768372,-0.3614366054534912,-0.01276510953903198,0.2713407278060913,XArbitraryZVertical,-0.2546913138832471,0.1446635025644724,-0.7685164215480784,0.56884738599465,-0.2268860042095184,0.5121135115623474,-0.8284096121788025
2020-08-20 22:38:01.040 +0200,13242.82588779167,-0.445770263671875,0.1956787109375,-0.529449462890625,13242.80585079167,-1.922890324769576,-0.1920758584588609,-0.5084865088197996,1.721897006034851,3.048194885253906,0.3387315571308136,-0.3337875306606293,-0.09735918045043945,0.2695730924606323,XArbitraryZVertical,-0.2193907852660091,0.1521779745791425,-0.7761984621485061,0.5711615853946866,-0.1667451560497284,0.4868558049201965,-0.8574190735816956
2020-08-20 22:38:01.060 +0200,13242.84592479167,-0.4123077392578125,0.252838134765625,-0.5131378173828125,13242.82588779167,-1.910335649773565,-0.1319231657739723,-0.4746211077264376,1.696528553962708,2.340076684951782,0.1515986919403076,-0.3461796641349792,-0.2263756394386292,0.3406699895858765,XArbitraryZVertical,-0.1877667939311566,0.1545155579264061,-0.7828557752833691,0.5727175448004692,-0.1170010939240456,0.4570014774799347,-0.8817371726036072
2020-08-20 22:38:01.080 +0200,13242.86596079167,-0.444366455078125,0.367156982421875,-0.4912567138671875,13242.84592479167,-1.903744198055872,-0.08668127759210455,-0.4452846491767229,1.345504403114319,1.777906537055969,0.07629797607660294,-0.323855996131897,-0.2174743711948395,0.4001634120941162,XArbitraryZVertical,-0.1624022029586905,0.1551633262621465,-0.7881026629395588,0.5731003816897798,-0.07813089340925217,0.4307147860527039,-0.8990997076034546
2020-08-20 22:38:01.100 +0200,13242.88599779167,-0.376617431640625,0.2436676025390625,-0.4605560302734375,13242.86596079167,-1.90369478943877,-0.05576978625579673,-0.4212240978668961,1.013391137123108,1.301571488380432,-0.2635751068592072,-0.3995590507984161,-0.04279273748397827,0.4314300417900085,XArbitraryZVertical,-0.1434514507654231,0.1543908652155855,-0.7927996681652817,0.5718861789493438,-0.05086852237582207,0.4088778495788574,-0.9111703038215637
2020-08-20 22:38:01.120 +0200,13242.90603479167,-0.333465576171875,0.1838226318359375,-0.4699249267578125,13242.88599779167,-1.911424575555137,-0.03779688973082436,-0.4042875615277638,0.6353256106376648,0.8868997097015381,-0.4177066385746002,-0.3731085360050201,-0.08321875333786011,0.4291650056838989,XArbitraryZVertical,-0.1309486636995171,0.1532622907744894,-0.7977630209189404,0.5682756744346331,-0.03474153950810432,0.3933638632297516,-0.9187262058258057
2020-08-20 22:38:01.140 +0200,13242.92607179167,-0.2967529296875,0.194366455078125,-0.4701690673828125,13242.90603479167,-1.918551607972195,-0.02538852007628547,-0.3942679236742265,0.3731300532817841,0.6428499817848206,-0.2406590580940247,-0.3276586830615997,-0.1775501370429993,0.4540826678276062,XArbitraryZVertical,-0.1226286811873041,0.1532056389557796,-0.8014258428685493,0.5649839165377818,-0.02343814447522163,0.3841323852539062,-0.9229804873466492
2020-08-20 22:38:01.160 +0200,13242.94610879167,-0.26263427734375,0.324005126953125,-0.52081298828125,13242.92607179167,-1.921217939092598,-0.015322021529818,-0.3876576460237451,0.3471105992794037,0.4662464559078217,-0.02926322817802429,-0.2955130338668823,-0.1841896176338196,0.4526004791259766,XArbitraryZVertical,-0.1165314697665377,0.1535455079171832,-0.8033247306627243,0.5634834195202029,-0.01418452709913254,0.3780209124088287,-0.9256883859634399
2020-08-20 22:38:01.180 +0200,13242.96614579167,-0.26092529296875,0.35589599609375,-0.5995025634765625,13242.94610879167,-1.920959410081816,-0.007711310804995868,-0.3779422201536927,0.6357434391975403,0.2699642777442932,0.004485377110540867,-0.2659321427345276,-0.09011945128440857,0.4340986013412476,XArbitraryZVertical,-0.1107635176738355,0.1517639328977165,-0.8044573814901923,0.5635134589522436,-0.007167021278291941,0.3690086901187897,-0.9293982982635498
2020-08-20 22:38:01.200 +0200,13242.98618279167,-0.2866668701171875,0.29705810546875,-0.6599578857421875,13242.96614579167,-1.921956616271019,-0.005081987391957808,-0.3616664785514002,1.015094757080078,0.0391174890100956,-0.09739594161510468,-0.2542316615581512,0.01863205432891846,0.3553531169891357,XArbitraryZVertical,-0.105051662397387,0.14599984347938,-0.8061211846773666,0.5637524390251379,-0.004753205459564924,0.35383340716362,-0.9352964162826538
2020-08-20 22:38:01.220 +0200,13243.00621979167,-0.278656005859375,0.227447509765625,-0.6847686767578125,13242.98618279167,-1.924618655632589,-0.006655315484846648,-0.3396672242974396,1.167848706245422,-0.06077102199196815,-0.159606471657753,-0.2711447179317474,0.004872322082519531,0.299735963344574,XArbitraryZVertical,-0.09930597029497365,0.1368063125431378,-0.8083830505581094,0.5638610597339342,-0.006275021471083164,0.3331733345985413,-0.9428446888923645
2020-08-20 22:38:01.240 +0200,13243.02625579167,-0.231201171875,0.198486328125,-0.7338714599609375,13243.00621979167,-1.927504005100841,-0.007613752774506399,-0.3170096705940696,1.003934741020203,0.06519090384244919,-0.1127580031752586,-0.2819802463054657,-0.05072808265686035,0.2782101631164551,XArbitraryZVertical,-0.0931266146786852,0.1274962298340306,-0.8106930283281112,0.5637809495103939,-0.007234303746372461,0.3117266297340393,-0.9501442909240723
2020-08-20 22:38:01.260 +0200,13243.04629279167,-0.195343017578125,0.2525634765625,-0.8268890380859375,13243.02625579167,-1.929035884020815,-0.006647070550891404,-0.3013561949102791,0.5682445764541626,0.03414936363697052,-0.06842706352472305,-0.2441580444574356,-0.08194196224212646,0.2400587201118469,XArbitraryZVertical,-0.08823360778247584,0.1214823553241879,-0.8121744803020794,0.5637637510024199,-0.006347472313791513,0.2968155443668365,-0.9549137353897095
2020-08-20 22:38:01.280 +0200,13243.06632979167,-0.19927978515625,0.3297119140625,-0.843048095703125,13243.04629279167,-1.930614072483738,-0.007520406731425806,-0.293483833397812,0.2716909348964691,-0.0920538455247879,-0.08882550895214081,-0.1975877434015274,-0.06099617481231689,0.1803974509239197,XArbitraryZVertical,-0.08627876687441922,0.1181041192508759,-0.8130683543213829,0.5634955437032783,-0.007198780309408903,0.2892888486385345,-0.9572147727012634
2020-08-20 22:38:01.303 +0200,13243.08636679167,-0.13494873046875,0.2528076171875,-0.89227294921875,13243.06632979167,-1.933143795993665,-0.009873534662771476,-0.2872582125273108,0.3749369084835052,-0.02944505959749222,-0.1560357064008713,-0.1935125440359116,0.04538175463676453,0.1261658668518066,XArbitraryZVertical,-0.08533871228074798,0.1150153532527078,-0.81405778863741,0.5628486867872642,-0.009468805976212025,0.2833238542079926,-0.9589775204658508
2020-08-20 22:38:01.321 +0200,13243.10640379167,-0.09783935546875,0.203338623046875,-0.8761749267578125,13243.08636679167,-1.936344456981781,-0.01078334789881742,-0.2787347564963085,0.4591068923473358,0.02250895276665688,-0.1583665013313293,-0.1476293057203293,0.01888403296470642,0.07871830463409424,XArbitraryZVertical,-0.08313653652219949,0.1114185762975237,-0.8154267243146367,0.5619195425388547,-0.01036695670336485,0.2751394510269165,-0.9613484144210815
2020-08-20 22:38:01.340 +0200,13243.12644079167,-0.058013916015625,0.16156005859375,-0.8778533935546875,13243.10640379167,-1.939162543523944,-0.01079577442503154,-0.2701294295329194,0.3438775241374969,0.04947265982627869,-0.1205724403262138,-0.1024731248617172,-0.04014128446578979,0.08740037679672241,XArbitraryZVertical,-0.08057628480033301,0.1080155467756064,-0.8167155139568699,0.561084626171425,-0.01040407828986645,0.2668561637401581,-0.9636802077293396
2020-08-20 22:38:01.361 +0200,13243.14647779167,-0.046142578125,0.2029266357421875,-0.923583984375,13243.12644079167,-1.941221517794047,-0.01066843574951031,-0.2660670496818421,0.05055215954780579,0.001374639570713043,-0.08654987812042236,-0.06269437074661255,-0.0816204845905304,0.09390640258789062,XArbitraryZVertical,-0.07927730001716109,0.1064721616839515,-0.8175279031188272,0.5603810568257473,-0.01029284484684467,0.262938916683197,-0.9647575616836548
2020-08-20 22:38:01.380 +0200,13243.16651379167,-0.0694427490234375,0.263458251953125,-0.9048004150390625,13243.14647779167,-1.943069071899425,-0.01238112556586101,-0.2674776181079948,-0.1483608186244965,-0.1255833059549332,-0.102402001619339,-0.03207644820213318,-0.07935234904289246,0.05805122852325439,XArbitraryZVertical,-0.08027319296176215,0.1066436069027712,-0.8178972342566323,0.5596673490463382,-0.01194055564701557,0.264299601316452,-0.9643667340278625
2020-08-20 22:38:01.400 +0200,13243.18655079167,-0.0693511962890625,0.2675018310546875,-0.928466796875,13243.16651379167,-1.945594183076866,-0.01582317813983369,-0.2692836605097136,-0.002804806921631098,-0.1219946965575218,-0.1307065635919571,-0.04692038893699646,-0.01077204942703247,0.05560427904129028,XArbitraryZVertical,-0.0820502182927106,0.1065234213716134,-0.8183602099239985,0.5587548949689383,-0.01525230146944523,0.2660409808158875,-0.9638410210609436
2020-08-20 22:38:01.421 +0200,13243.20658779167,-0.048126220703125,0.200531005859375,-0.9528656005859375,13243.18655079167,-1.948833107242055,-0.01872171469683193,-0.2671463869656035,0.1765251308679581,-0.0889323502779007,-0.1911813765764236,-0.05380239337682724,0.0148901641368866,0.04199159145355225,XArbitraryZVertical,-0.08247116847664832,0.1049712436812192,-0.8192682809255474,0.5576549126384581,-0.01805656589567661,0.2639801204204559,-0.9643591046333313
2020-08-20 22:38:01.441 +0200,13243.22662479167,-0.062408447265625,0.1856842041015625,-0.9304656982421875,13243.20658779167,-1.953296238120924,-0.02184852470312581,-0.2631116297389181,0.1869777739048004,-0.1192982494831085,-0.2301614880561829,-0.03547908365726471,-0.0238347053527832,0.02202093601226807,XArbitraryZVertical,-0.08240245690020689,0.1026273991165164,-0.8206142769832048,0.556120144208385,-0.02109493687748909,0.2600863575935364,-0.9653549194335938
2020-08-20 22:38:01.461 +0200,13243.24666179167,-0.0728759765625,0.223907470703125,-0.974273681640625,13243.22662479167,-1.957918828255355,-0.02593710692589132,-0.2607781430685101,0.01711563766002655,-0.1519501954317093,-0.2119253724813461,-0.02653002738952637,-0.06747406721115112,0.03627800941467285,XArbitraryZVertical,-0.08320141860496433,0.1007233439568437,-0.821862577183179,0.5545035835962225,-0.02505735494196415,0.2578324675559998,-0.9658646583557129
2020-08-20 22:38:01.481 +0200,13243.26669879167,-0.07073974609375,0.2459564208984375,-0.9589385986328125,13243.24666179167,-1.962361679925436,-0.03044640823362606,-0.2614813054929771,-0.04340656474232674,-0.121296688914299,-0.2074533104896545,-0.04284082353115082,-0.04402309656143188,0.01364445686340332,XArbitraryZVertical,-0.08502626539983794,0.09995165982829581,-0.8228621655153763,0.5528815663703401,-0.02940693311393261,0.2585117816925049,-0.9655603766441345
2020-08-20 22:38:01.501 +0200,13243.28673579167,-0.0543975830078125,0.2593994140625,-0.9771575927734375,13243.26669879167,-1.967235345658764,-0.03601655087309812,-0.2635304663253931,-0.02893800660967827,-0.104742206633091,-0.2098787426948547,-0.04105395823717117,-0.01357579231262207,-0.007215440273284912,XArbitraryZVertical,-0.08763823976683813,0.09947077909122222,-0.8238459321385693,0.5510925182065871,-0.03476560860872269,0.260490745306015,-0.9648501873016357
2020-08-20 22:38:01.521 +0200,13243.30677179167,-0.0445098876953125,0.2489776611328125,-0.96246337890625,13243.28673579167,-1.971902913565089,-0.04085827904114356,-0.2639737963650677,-0.005956658627837896,-0.1260783821344376,-0.2022158652544022,-0.0202689915895462,0.001466870307922363,-0.00856935977935791,XArbitraryZVertical,-0.08952391733527691,0.09852879872374953,-0.8248890171264717,0.549395647753083,-0.03943200781941414,0.2609187364578247,-0.9645550847053528
2020-08-20 22:38:01.541 +0200,13243.32680879167,-0.0339508056640625,0.2480316162109375,-0.9477691650390625,13243.30677179167,-1.975959149769334,-0.04523712449328057,-0.2595932190623728,0.02932343445718288,-0.1475378721952438,-0.1727903336286545,-0.008820429444313049,0.007105797529220581,0.003032445907592773,XArbitraryZVertical,-0.08994268597851414,0.09569456496545745,-0.8260696767911387,0.5480527062095236,-0.04370652139186859,0.2566874325275421,-0.9655057191848755
2020-08-20 22:38:01.561 +0200,13243.34684579167,-0.0328216552734375,0.2370452880859375,-0.9635009765625,13243.32680879167,-1.979503501530364,-0.05068204195551437,-0.2547832160709635,0.1002266407012939,-0.1374074816703796,-0.1409282684326172,0.01033769547939301,0.00269964337348938,0.01762807369232178,XArbitraryZVertical,-0.09072195695294701,0.09236803360837148,-0.8270830363483356,0.5469655020362124,-0.04902492836117744,0.2520356178283691,-0.9664753675460815
2020-08-20 22:38:01.581 +0200,13243.36688279167,-0.028564453125,0.2330780029296875,-0.96636962890625,13243.34684579167,-1.98266048206077,-0.05573081549358962,-0.2514217349570489,0.1447891741991043,-0.1299436986446381,-0.1337868273258209,0.01687797904014587,0.00170096755027771,0.01353645324707031,XArbitraryZVertical,-0.09175813004914891,0.08973555282872026,-0.8279169785171521,0.5459683508561453,-0.05395068228244781,0.2487812489271164,-0.9670559763908386
2020-08-20 22:38:01.601 +0200,13243.38691979167,-0.0189208984375,0.21490478515625,-0.9651641845703125,13243.36688279167,-1.985513699041877,-0.06002443239334784,-0.2490963711528069,0.1422567665576935,-0.1654226034879684,-0.1471765339374542,0.02813419699668884,-0.002632677555084229,0.003926694393157959,XArbitraryZVertical,-0.09278248394637893,0.0877284840654801,-0.8286367956062977,0.5450286358489349,-0.05813688784837723,0.2465283274650574,-0.967390239238739
2020-08-20 22:38:01.621 +0200,13243.40695679167,-0.0334930419921875,0.2167816162109375,-0.9532470703125,13243.38691979167,-1.988540299337769,-0.06416376637037557,-0.247951470319263,0.09698344022035599,-0.205705314874649,-0.1640802770853043,0.03682041168212891,-0.01727455854415894,-0.0007266402244567871,XArbitraryZVertical,-0.09405854711264286,0.08626594747595688,-0.829336512145153,0.5439781860607152,-0.06215878576040268,0.245418593287468,-0.9674223661422729
2020-08-20 22:38:01.641 +0200,13243.42699379167,-0.03973388671875,0.2208709716796875,-0.9409942626953125,13243.40695679167,-1.991743557675907,-0.06785016890907584,-0.2473928051590255,0.02872728556394577,-0.2101780921220779,-0.1901059746742249,0.04249527305364609,-0.02430319786071777,0.008195340633392334,XArbitraryZVertical,-0.09530067792366939,0.08518300408732787,-0.8300662059332292,0.5428183409520201,-0.06573394685983658,0.2448769807815552,-0.9673232436180115
2020-08-20 22:38:01.661 +0200,13243.44702979167,-0.009429931640625,0.21759033203125,-0.9490814208984375,13243.42699379167,-1.995571497883834,-0.07081536497313372,-0.2477131965472112,0.01782284118235111,-0.1800473481416702,-0.2231167405843735,0.02146369218826294,-0.01319050788879395,0.0294872522354126,XArbitraryZVertical,-0.09645509988472754,0.084696615847014,-0.8309419809838927,0.5413485374773547,-0.06859640777111053,0.2451875954866409,-0.967045783996582
2020-08-20 22:38:01.681 +0200,13243.46706679167,0.013336181640625,0.22247314453125,-0.956329345703125,13243.44702979167,-1.999766268666455,-0.07340937709131921,-0.2467625529473256,0.03451539948582649,-0.1854272037744522,-0.2453857958316803,0.05006290227174759,-0.01595994830131531,0.02004551887512207,XArbitraryZVertical,-0.09710344807463672,0.08380099618650456,-0.8320086579953071,0.539731383744078,-0.07112176716327667,0.2442658692598343,-0.9670966267585754
2020-08-20 22:38:01.701 +0200,13243.48710379167,0.0254669189453125,0.2240753173828125,-0.9261016845703125,13243.46706679167,-2.004741357478101,-0.07677025623881308,-0.2448682744357546,0.09060023725032806,-0.2394909709692001,-0.3029323220252991,0.07826885581016541,-0.01639309525489807,0.009862661361694336,XArbitraryZVertical,-0.09779306720585443,0.08234466682192634,-0.8333018918054104,0.5378325913994273,-0.07440700381994247,0.2424285262823105,-0.9673117399215698
2020-08-20 22:38:01.721 +0200,13243.50714079167,0.0391998291015625,0.1908721923828125,-0.9232177734375,13243.48710379167,-2.010672278427192,-0.08135820676642992,-0.2410692588641875,0.1116649135947227,-0.3232026398181915,-0.3532108664512634,0.0966150164604187,0.0004530251026153564,0.03512358665466309,XArbitraryZVertical,-0.09846189164630176,0.07981028689400378,-0.8349024406045669,0.5356056728887293,-0.0789184644818306,0.2387410998344421,-0.9678711295127869
2020-08-20 22:38:01.741 +0200,13243.52717779167,0.046630859375,0.163909912109375,-0.901214599609375,13243.50714079167,-2.01780929570919,-0.08930655584623536,-0.2384018947551987,0.07947248965501785,-0.4452379941940308,-0.3868188261985779,0.1180181205272675,-0.02941678464412689,0.04606854915618896,XArbitraryZVertical,-0.1008025568096535,0.07692056938641111,-0.836577980635161,0.5329721657081118,-0.08666535466909409,0.2361500263214111,-0.9678441286087036
2020-08-20 22:38:01.761 +0200,13243.54721479167,0.01849365234375,0.1807708740234375,-0.82647705078125,13243.52717779167,-2.0256687113926,-0.09956210707907866,-0.2368221219390067,-0.02217064797878265,-0.5920159816741943,-0.4306184053421021,0.1381598711013794,-0.05316787958145142,0.05108630657196045,XArbitraryZVertical,-0.1043878557522215,0.07393199660169378,-0.8382395826576886,0.5300864979197366,-0.09662336111068726,0.2346146404743195,-0.9672744870185852
2020-08-20 22:38:01.781 +0200,13243.56725179167,-0.06109619140625,0.2183837890625,-0.8124542236328125,13243.54721479167,-2.034773210012335,-0.1128005558352547,-0.238398659835148,-0.2753142118453979,-0.7503611445426941,-0.4961501359939575,0.1405174136161804,-0.06232695281505585,0.1063846945762634,XArbitraryZVertical,-0.1100185616085875,0.07158895112510678,-0.8398342790887672,0.5267346154938352,-0.109377957880497,0.2361468821763992,-0.9655418992042542
2020-08-20 22:38:01.801 +0200,13243.58728779167,-0.1016998291015625,0.2239837646484375,-0.860260009765625,13243.56725179167,-2.046411644231139,-0.1307202384181431,-0.2438473679551015,-0.3319894671440125,-0.8693026900291443,-0.5696859359741211,0.0950491651892662,-0.0270763486623764,0.149458646774292,XArbitraryZVertical,-0.1185345403328534,0.06986486882241892,-0.8414982682563131,0.5224452718264605,-0.1264920830726624,0.2414379566907883,-0.9621369242668152
2020-08-20 22:38:01.822 +0200,13243.60732479167,-0.1556854248046875,0.255767822265625,-0.8584442138671875,13243.58728779167,-2.058941273174946,-0.1511900526754107,-0.2463467862105023,-0.06636621057987213,-0.8742462992668152,-0.5900174975395203,0.04805836081504822,-0.007619708776473999,0.1185265183448792,XArbitraryZVertical,-0.1273615737906906,0.06637527135935695,-0.8433230383787363,0.5178605957384713,-0.1460676193237305,0.2438626736402512,-0.9587467312812805
2020-08-20 22:38:01.841 +0200,13243.62736179167,-0.2187042236328125,0.2339935302734375,-0.8917694091796875,13243.60732479167,-2.071053266572916,-0.171872809830691,-0.2436890997488886,0.04763559624552727,-0.9044116735458374,-0.6340236067771912,0.03433240950107574,0.006534948945045471,0.1039173603057861,XArbitraryZVertical,-0.1350454652937009,0.06070203632323576,-0.845282474160961,0.5133960932228371,-0.1659747511148453,0.2412843704223633,-0.9561559557914734
2020-08-20 22:38:01.861 +0200,13243.64739879167,-0.25970458984375,0.23370361328125,-0.87518310546875,13243.62736179167,-2.085915372205924,-0.1947340337506211,-0.2429039992463439,-0.1935403943061829,-1.052915453910828,-0.8004059791564941,-0.01500263810157776,0.01220148801803589,0.06284254789352417,XArbitraryZVertical,-0.1440957740777827,0.05556615777788527,-0.847540303256455,0.5077639140377413,-0.1878249794244766,0.2405223846435547,-0.9522976279258728
2020-08-20 22:38:01.881 +0200,13243.66743579167,-0.2697601318359375,0.166748046875,-0.8654937744140625,13243.64739879167,-2.103434170549785,-0.221026578470792,-0.2448670608706358,-0.38555908203125,-1.106768250465393,-0.7904784679412842,-0.04135116934776306,-0.002613335847854614,0.07163715362548828,XArbitraryZVertical,-0.1552597550873006,0.05109141425198323,-0.8498376844575689,0.5010588061911438,-0.2126915752887726,0.2424273490905762,-0.9465681314468384
2020-08-20 22:38:01.901 +0200,13243.68747279167,-0.29534912109375,0.131011962890625,-0.840606689453125,13243.66743579167,-2.121486400233777,-0.2482866344420789,-0.2529623887268547,-0.8893116116523743,-1.177063703536987,-0.6877244710922241,-0.03835491836071014,-0.03985932469367981,0.06661778688430786,XArbitraryZVertical,-0.1683135038505549,0.04926995357917516,-0.8514586056894075,0.4942280594110089,-0.2379227727651596,0.2502731680870056,-0.9384860992431641
2020-08-20 22:38:01.921 +0200,13243.70750979167,-0.291229248046875,0.173095703125,-0.9343719482421875,13243.68747279167,-2.141912910286448,-0.2798450427863823,-0.2740969969256755,-1.691977024078369,-1.546469449996948,-0.6811733245849609,-0.03515991568565369,-0.119510680437088,0.06992989778518677,XArbitraryZVertical,-0.1860961818089739,0.05251646667181829,-0.8518006331171583,0.4868735956013621,-0.2658959329128265,0.2706777453422546,-0.9252204895019531
2020-08-20 22:38:01.942 +0200,13243.72754579167,-0.3343963623046875,0.3736572265625,-0.74267578125,13243.70750979167,-2.168529029151456,-0.3251045056317193,-0.3086759622600018,-2.003346681594849,-2.306105613708496,-0.652630090713501,-0.006181299686431885,-0.1602061986923218,-0.02752918004989624,XArbitraryZVertical,-0.2122862991184621,0.05932652619047129,-0.8503059628296781,0.4779065976559803,-0.3043115437030792,0.3037974536418915,-0.9028297662734985
2020-08-20 22:38:01.962 +0200,13243.74758466667,-0.4055023193359375,0.3766937255859375,-0.650543212890625,13243.72754579167,-2.189738270139301,-0.3791340390500006,-0.3333036705385184,-1.068109750747681,-2.248119354248047,-0.384697824716568,0.03223583102226257,-0.01132908463478088,0.09985494613647461,XArbitraryZVertical,-0.2398114874534888,0.05966822054766242,-0.8465298892475969,0.4715053576581387,-0.3497474193572998,0.3271666765213013,-0.8778603076934814
2020-08-20 22:38:01.982 +0200,13243.76762166667,-0.859466552734375,0.168121337890625,-0.6942596435546875,13243.74758466667,-2.201012664730264,-0.4241810822575894,-0.3457716331884235,-0.5615987181663513,-1.697818756103516,-0.106303870677948,0.01372671127319336,0.06969314813613892,0.1552091836929321,XArbitraryZVertical,-0.2610596029622182,0.05594726832427788,-0.8420617567652818,0.4686681291634259,-0.3872152268886566,0.3389227390289307,-0.8574355840682983
2020-08-20 22:38:02.002 +0200,13243.78765866667,-0.7381439208984375,0.2261810302734375,-1.09954833984375,13243.76762166667,-2.21402992287221,-0.441869853938268,-0.3633190888394153,-2.11949634552002,0.8122307658195496,-0.3361517190933228,-0.2592166662216187,-0.06083688139915466,0.2247480750083923,XArbitraryZVertical,-0.2716200974780199,0.06123435314566058,-0.8405588815236116,0.4646866256391303,-0.3997158110141754,0.3553785979747772,-0.8449457287788391
2020-08-20 22:38:02.022 +0200,13243.80769566667,-0.3415679931640625,0.6789703369140625,-0.838043212890625,13243.78765866667,-2.23894918193751,-0.4217665091542815,-0.4020121229077932,-1.3355952501297,1.615758895874023,0.04073267430067062,-0.5554582476615906,-0.2935789823532104,-0.1318410634994507,XArbitraryZVertical,-0.2697234285070505,0.08622436153518548,-0.8439915535746888,0.4555139617288634,-0.3767357766628265,0.3912708461284637,-0.8396292924880981
2020-08-20 22:38:02.042 +0200,13243.82773266667,-0.59906005859375,0.9116668701171875,-1.032333374023438,13243.80769566667,-2.245774700358527,-0.4055651006640885,-0.4157551427215703,-0.9383822083473206,0.2973293364048004,-0.1709927767515182,-0.07677912712097168,0.1750134825706482,-0.1538942456245422,XArbitraryZVertical,-0.2651703582900596,0.09687019103854985,-0.8458774064691116,0.4525397341148297,-0.3609279990196228,0.4038808643817902,-0.8406016826629639
2020-08-20 22:38:02.062 +0200,13243.84776966667,-0.5194549560546875,0.926239013671875,-0.913055419921875,13243.82773266667,-2.263885389321519,-0.4109753356278781,-0.4371960680877179,-1.058672189712524,-0.09932800382375717,-0.4695516228675842,-0.1082668304443359,0.3872802257537842,-0.04457640647888184,XArbitraryZVertical,-0.2705197559725557,0.1075455033694077,-0.8463036690096787,0.4461201417858363,-0.3619273006916046,0.4234009385108948,-0.8305060267448425
2020-08-20 22:38:02.082 +0200,13243.86780566667,-0.5736541748046875,0.66748046875,-0.795501708984375,13243.84776966667,-2.278386854989897,-0.4187511680983782,-0.4371059768095723,0.1841782629489899,-0.07190756499767303,-0.61470627784729,-0.2585787773132324,0.5987697243690491,-0.1301934719085693,XArbitraryZVertical,-0.2730175197754665,0.107752811443673,-0.8484734728777908,0.4403902516013788,-0.3683896660804749,0.4233193099498749,-0.8277015089988708
2020-08-20 22:38:02.102 +0200,13243.88784266667,-0.5326690673828125,0.53485107421875,-0.9429931640625,13243.86780566667,-2.289696046878475,-0.4242398441822706,-0.4298126244147701,-0.08005605638027191,0.1142418012022972,-0.6140995025634766,-0.1463809013366699,0.3406685888767242,0.002314925193786621,XArbitraryZVertical,-0.2734499483783159,0.1048604102142098,-0.851207246843245,0.4355177179092283,-0.3741880357265472,0.4167004823684692,-0.828458845615387
2020-08-20 22:38:02.122 +0200,13243.90787966667,-0.3451080322265625,0.274139404296875,-0.8790740966796875,13243.88784266667,-2.301338131806145,-0.423871276451104,-0.4281673988826896,0.006750215776264668,0.3639885187149048,-0.5048102140426636,-0.2380636036396027,0.1698152720928192,-0.0550072193145752,XArbitraryZVertical,-0.2723907258477746,0.1057972782993976,-0.8540034633769165,0.4304512328776549,-0.3741641044616699,0.4152043461799622,-0.8292204737663269
2020-08-20 22:38:02.142 +0200,13243.92791666667,-0.4095458984375,0.300140380859375,-0.85784912109375,13243.90787966667,-2.312621825104702,-0.4217129115985276,-0.4232140122198907,-0.1788466721773148,0.3315658569335938,-0.534324049949646,-0.02447879314422607,-0.0112253725528717,-0.08543962240219116,XArbitraryZVertical,-0.2700120256959098,0.1055807920048658,-0.8573835436707121,0.4252524553054565,-0.3732107579708099,0.4106930196285248,-0.8318924307823181
2020-08-20 22:38:02.162 +0200,13243.94795366667,-0.391998291015625,0.3786163330078125,-0.8264617919921875,13243.92791666667,-2.321461036815355,-0.4201354031902355,-0.4220172017075333,0.0452512688934803,0.2538817226886749,-0.2977514564990997,-0.02107012271881104,-0.1662657558917999,-0.03844642639160156,XArbitraryZVertical,-0.2686608051996707,0.1065702633101716,-0.8596281831697441,0.4213117409216462,-0.3720982074737549,0.4096015095710754,-0.8329282999038696
2020-08-20 22:38:02.182 +0200,13243.96799066667,-0.3907623291015625,0.279632568359375,-0.8450164794921875,13243.94795366667,-2.326519480516181,-0.4162686141871375,-0.4187655246114366,0.1030104383826256,0.3312193751335144,-0.2626718580722809,-0.04949015378952026,-0.003448218107223511,0.01514178514480591,XArbitraryZVertical,-0.2661735886713538,0.1066034675270127,-0.8616432865309388,0.4187579874172555,-0.3694112598896027,0.4066329598426819,-0.8355746269226074
2020-08-20 22:38:02.202 +0200,13243.98802766667,-0.4002532958984375,0.363555908203125,-0.82904052734375,13243.96799066667,-2.33014055545458,-0.4110155299192545,-0.4142325927543736,0.1284366995096207,0.3223044574260712,-0.176884725689888,-0.03258949518203735,-0.08064097166061401,0.01175624132156372,XArbitraryZVertical,-0.2629451670312117,0.1061483011629907,-0.8636957328154529,0.4166797925808043,-0.3657495379447937,0.4024875462055206,-0.8391847610473633
2020-08-20 22:38:02.222 +0200,13244.00806466667,-0.396636962890625,0.3952789306640625,-0.8638458251953125,13243.98802766667,-2.330350140680651,-0.4048864752492529,-0.410078907554062,0.1886511743068695,0.3051662147045135,-0.04304109141230583,-0.04133707284927368,-0.07141619920730591,0.01073908805847168,XArbitraryZVertical,-0.2595785820171855,0.1055884741203911,-0.8650849417525065,0.4160506904257135,-0.3612547218799591,0.3986817002296448,-0.842940092086792
2020-08-20 22:38:02.242 +0200,13244.02810066667,-0.3597869873046875,0.3689727783203125,-0.900054931640625,13244.00806466667,-2.329749697448677,-0.3987826550269177,-0.4069141072142778,0.1698098331689835,0.2623452544212341,-0.04146784916520119,-0.05796900391578674,0.011077880859375,0.008716940879821777,XArbitraryZVertical,-0.2564279737673079,0.1053601062421753,-0.8661584738545355,0.4158286579126292,-0.3565910160541534,0.3957772850990295,-0.8462879061698914
2020-08-20 22:38:02.262 +0200,13244.04813766667,-0.3634185791015625,0.38043212890625,-0.8697052001953125,13244.02810066667,-2.329232977407899,-0.3940978125800355,-0.4042184161848967,0.08525887131690979,0.1736611872911453,-0.04039417207241058,-0.02891561388969421,-0.002194076776504517,-0.04699647426605225,XArbitraryZVertical,-0.2539631117467532,0.1050577867237399,-0.8669960416271876,0.415672403410811,-0.3530307710170746,0.3933002948760986,-0.8489311933517456
2020-08-20 22:38:02.282 +0200,13244.06817466667,-0.380401611328125,0.4277801513671875,-0.8152923583984375,13244.04813766667,-2.330550090900818,-0.3950052549748556,-0.4008778985532849,0.1056656092405319,0.07294416427612305,-0.01120083220303059,-0.009386718273162842,-0.01168400049209595,-0.04870074987411499,XArbitraryZVertical,-0.25371449315028,0.103536244195037,-0.8675818433528792,0.4149831104555005,-0.3543045818805695,0.3902267813682556,-0.8498184084892273
2020-08-20 22:38:02.302 +0200,13244.08821166667,-0.364593505859375,0.4052276611328125,-0.8530426025390625,13244.06817466667,-2.330569197767866,-0.3954690602629078,-0.3925941010612559,0.1704090535640717,0.1426356285810471,-0.04333963245153427,-0.04777362942695618,0.05623155832290649,0.03694742918014526,XArbitraryZVertical,-0.2524913623573448,0.09972053173881494,-0.8685770639314702,0.4145815236942041,-0.35593181848526,0.3825864493846893,-0.8526078462600708
2020-08-20 22:38:02.322 +0200,13244.10824866667,-0.37603759765625,0.426544189453125,-0.84869384765625,13244.08821166667,-2.331716062567866,-0.3967603584817072,-0.3906820751495622,0.08048928529024124,0.1087785959243774,-0.04189848154783249,-0.01449793577194214,0.03111809492111206,0.01960593461990356,XArbitraryZVertical,-0.2526665387045825,0.0987384844713953,-0.8688919203208815,0.4140497638341918,-0.3573145270347595,0.380819171667099,-0.8528206348419189
2020-08-20 22:38:02.342 +0200,13244.12828566667,-0.3659210205078125,0.3883514404296875,-0.847564697265625,13244.10824866667,-2.33327442144855,-0.3971892003154063,-0.3892634858917147,0.0103344302624464,0.07223603129386902,-0.07511616498231888,-0.02422636747360229,0.05245426297187805,-0.001072227954864502,XArbitraryZVertical,-0.2525325725178475,0.09820882383580355,-0.8693379217508532,0.4133205308779103,-0.3578888475894928,0.3795070946216583,-0.8531646728515625
2020-08-20 22:38:02.362 +0200,13244.14832166667,-0.3714752197265625,0.3399810791015625,-0.822662353515625,13244.12828566667,-2.334910548383335,-0.3961224129482764,-0.3866812600573662,0.04395977035164833,0.02301042526960373,-0.1042026355862617,-0.02605533599853516,0.04408812522888184,0.0005208849906921387,XArbitraryZVertical,-0.2515457451492883,0.09747376728777303,-0.8701325846164806,0.4124231800607381,-0.3573554158210754,0.3771167993545532,-0.8544471859931946
