loggingTime(txt),accelerometerTimestamp_sinceReboot(s),accelerometerAccelerationX(G),accelerometerAccelerationY(G),accelerometerAccelerationZ(G),motionTimestamp_sinceReboot(s),motionYaw(rad),motionRoll(rad),motionPitch(rad),motionRotationRateX(rad/s),motionRotationRateY(rad/s),motionRotationRateZ(rad/s),motionUserAccelerationX(G),motionUserAccelerationY(G),motionUserAccelerationZ(G),motionAttitudeReferenceFrame(txt),motionQuaternionX(R),motionQuaternionY(R),motionQuaternionZ(R),motionQuaternionW(R),motionGravityX(G),motionGravityY(G),motionGravityZ(G)
2020-08-20 22:49:44.579 +0200,13920.448625125,0.5076751708984375,-0.1433258056640625,-0.8898468017578125,13920.429829125,-2.115277016201872,0.5342683055094969,0.08754652979172514,0.01491719856858253,-0.1210828348994255,0.01053299754858017,0.01525172591209412,0.06572854518890381,-0.01981043815612793,XArbitraryZVertical,0.2504693461819946,0.09269519067417124,-0.833822679170497,0.4831278736003806,0.5072612762451172,-0.08743473887443542,-0.8573454022407532
2020-08-20 22:49:44.581 +0200,13920.468663125,0.5091094970703125,-0.0597076416015625,-0.8974456787109375,13920.449867125,-2.114691541932154,0.5331981821712464,0.08561576453323358,-0.0931694507598877,-0.07755160331726074,-0.01482566073536873,0.01587459444999695,-0.06380300223827362,-0.02488380670547485,XArbitraryZVertical,0.2495486938310945,0.09332569513138592,-0.8339749819049227,0.4832199163332186,0.5064284205436707,-0.08551120758056641,-0.8580315113067627
2020-08-20 22:49:44.581 +0200,13920.488701125,0.479217529296875,-0.070220947265625,-0.8786773681640625,13920.469905125,-2.113911542768541,0.5321847191487857,0.08166934179164036,-0.0971909686923027,-0.1206170469522476,-0.02132529392838478,0.02180337905883789,0.01692542433738708,-0.03445816040039062,XArbitraryZVertical,0.248173702737821,0.09484510464795354,-0.834236926064955,0.4831800449752663,0.5057258605957031,-0.0815785825252533,-0.8588284254074097
2020-08-20 22:49:44.582 +0200,13920.508739125,0.477996826171875,-0.0654296875,-0.8755035400390625,13920.489943125,-2.113491371126858,0.5311905159033632,0.0785427359370631,-0.07845523208379745,-0.08929294347763062,-0.009582732804119587,-0.008788496255874634,0.006173506379127502,-0.01566636562347412,XArbitraryZVertical,0.2470122516293417,0.09597751085122694,-0.8345128667582867,0.4830751110523054,0.504998505115509,-0.07846200466156006,-0.8595465421676636
2020-08-20 22:49:44.599 +0200,13920.528777125,0.475921630859375,-0.0703277587890625,-0.8717041015625,13920.509981125,-2.112792645766148,0.530701683306644,0.07574429062386147,-0.05139125138521194,-0.06083627045154572,0.004742296412587166,-0.01091361045837402,0.007822498679161072,-0.010639488697052,XArbitraryZVertical,0.2461232392395475,0.09712725794754584,-0.8346301332415295,0.4830965128616887,0.5046874284744263,-0.07567188143730164,-0.8599792718887329
2020-08-20 22:49:44.614 +0200,13920.548814125,0.4808502197265625,-0.0735626220703125,-0.87030029296875,13920.530019125,-2.112376012897247,0.5297184033409312,0.07759725916963216,-0.009890945628285408,-0.04220213368535042,0.01835196278989315,-0.01194837689399719,0.005505591630935669,-0.007607936859130859,XArbitraryZVertical,0.2461243756104209,0.09615854970880941,-0.8345012584285878,0.4835121883499504,0.5037698745727539,-0.07751940935850143,-0.860352635383606
2020-08-20 22:49:44.634 +0200,13920.56885216667,0.4925384521484375,-0.08740234375,-0.8710174560546875,13920.550056125,-2.1120051725271,0.5297869514577902,0.07782064888689871,0.01472664996981621,-0.02374536171555519,0.03517313301563263,-0.007907629013061523,0.0013723224401474,-0.005244970321655273,XArbitraryZVertical,0.2461871976153958,0.09612644089181926,-0.8343851038068473,0.4836869423582237,0.5038200616836548,-0.07774212211370468,-0.8603031635284424
2020-08-20 22:49:44.654 +0200,13920.58889016667,0.4967803955078125,-0.084259033203125,-0.8740386962890625,13920.57009416667,-2.111414516872268,0.5279174211565432,0.07727526096706124,0.01834481954574585,-0.04021647945046425,0.0376647487282753,0.005622327327728271,-0.01212377846240997,-0.005077898502349854,XArbitraryZVertical,0.2452516827694813,0.09597701751872909,-0.8345158691210597,0.4839662298363713,0.5022321343421936,-0.07719837874174118,-0.8612800240516663
2020-08-20 22:49:44.674 +0200,13920.60892816667,0.4969482421875,-0.0746002197265625,-0.8720245361328125,13920.59013216667,-2.110772810249232,0.5254037819536862,0.07704743837277515,0.01128664426505566,-0.04324609041213989,0.04265323281288147,0.01285248994827271,-0.01039047539234161,-0.006865501403808594,XArbitraryZVertical,0.2441188490370329,0.09554323848397234,-0.834686356033187,0.4843307010601925,0.5000743865966797,-0.07697123289108276,-0.8625549674034119
2020-08-20 22:49:44.694 +0200,13920.62896616667,0.4964141845703125,-0.0723724365234375,-0.8673553466796875,13920.61017016667,-2.110056715027763,0.5229804479792751,0.07664056176504462,0.01605356857180595,-0.04078133776783943,0.0421009287238121,0.01505979895591736,-0.0007884949445724487,-0.004601001739501953,XArbitraryZVertical,0.2429782022162516,0.09521518473117635,-0.8348405030063605,0.4847030285703018,0.4979982674121857,-0.07656555622816086,-0.8637913465499878
2020-08-20 22:49:44.714 +0200,13920.64900416667,0.49322509765625,-0.0710906982421875,-0.8600311279296875,13920.63020816667,-2.10924859757292,0.5205390081472194,0.07680337613493363,0.0136529952287674,-0.02521516010165215,0.04570026695728302,0.01709261536598206,0.001382738351821899,0.001582622528076172,XArbitraryZVertical,0.2419587545820211,0.09465242491086986,-0.8349275804142805,0.4851730444733943,0.4958816766738892,-0.07672788947820663,-0.8649937510490417
2020-08-20 22:49:44.734 +0200,13920.66904216667,0.486053466796875,-0.0729827880859375,-0.858001708984375,13920.65024616667,-2.108820493964167,0.5214714227613835,0.07853679065056154,0.01206641830503941,-0.02556829527020454,0.0380265973508358,0.01370695233345032,0.005236983299255371,0.009200751781463623,XArbitraryZVertical,0.2427332826579768,0.09419851827251026,-0.834572299415883,0.4854856012681686,0.4966209828853607,-0.0784560814499855,-0.864414393901825
2020-08-20 22:49:44.754 +0200,13920.68908016667,0.4839935302734375,-0.072479248046875,-0.859619140625,13920.67028416667,-2.108357763435798,0.5224549629754713,0.08012655009479321,-0.006007125601172447,-0.009646319784224033,0.03368119150400162,0.005361855030059814,0.00483250617980957,0.01049894094467163,XArbitraryZVertical,0.2434937334834639,0.09382231863938574,-0.8342127101120261,0.4857956233557916,0.4974080920219421,-0.08004084229469299,-0.8638163208961487
2020-08-20 22:49:44.774 +0200,13920.70911816667,0.48394775390625,-0.0763092041015625,-0.8627471923828125,13920.69032216667,-2.107866735039516,0.5241748979187636,0.07983510277460421,-0.01379594020545483,0.0045443344861269,0.02470021694898605,0.001853764057159424,0.004734531044960022,0.008453428745269775,XArbitraryZVertical,0.2441197186220696,0.09442301371287082,-0.8339072510414425,0.4858894561806298,0.4989047050476074,-0.07975032180547714,-0.8629797101020813
2020-08-20 22:49:44.794 +0200,13920.72915616667,0.4838104248046875,-0.06915283203125,-0.86370849609375,13920.71036016667,-2.107425611617137,0.5260043164549731,0.07900189421688021,-0.03050008229911327,0.008780091069638729,0.01660801097750664,6.601214408874512e-05,0.0001619160175323486,0.004023134708404541,XArbitraryZVertical,0.2446665032880784,0.09527296548409596,-0.8336438061815969,0.4859005477455016,0.5005158185958862,-0.07891973853111267,-0.8621227145195007
2020-08-20 22:49:44.814 +0200,13920.74919416667,0.4793701171875,-0.0693359375,-0.865875244140625,13920.73039816667,-2.106944210541088,0.5278593239397039,0.07780521563479559,-0.02818979322910309,0.01208747085183859,0.01650757156312466,-0.002243489027023315,0.005187347531318665,0.001111149787902832,XArbitraryZVertical,0.2451364351183991,0.09628734671049737,-0.8333963600952607,0.485888168513737,0.5021613836288452,-0.07772673666477203,-0.8612737655639648
2020-08-20 22:49:44.834 +0200,13920.76923116667,0.475494384765625,-0.075225830078125,-0.86962890625,13920.75043616667,-2.10647358253415,0.5296800636278948,0.07722437025227867,-0.01123211346566677,-0.001600909978151321,0.02314671687781811,-0.006971120834350586,0.006137624382972717,-0.001080095767974854,XArbitraryZVertical,0.2457362343230363,0.09703237103901301,-0.8331055579174038,0.4859357699039756,0.5037514567375183,-0.07714764028787613,-0.8603968620300293
2020-08-20 22:49:44.854 +0200,13920.78926916667,0.4871673583984375,-0.0717926025390625,-0.877716064453125,13920.77047316667,-2.10589799575619,0.5302310316451502,0.07583342618972022,-0.006224705837666988,0.01087253820151091,0.03474463149905205,-0.01256293058395386,-0.002147078514099121,-0.004174470901489258,XArbitraryZVertical,0.2456118248638373,0.09782321415683611,-0.8330103937721132,0.4860032143253197,0.5042791962623596,-0.07576076686382294,-0.8602108955383301
2020-08-20 22:49:44.874 +0200,13920.80930716667,0.4856109619140625,-0.0750274658203125,-0.88238525390625,13920.79051116667,-2.105201219571241,0.5291458765492585,0.07689679290352514,0.005348194390535355,0.01025974471122026,0.03339391574263573,-0.0001451075077056885,0.001900076866149902,-0.01256322860717773,XArbitraryZVertical,0.245375195287489,0.09719680026723168,-0.8328883294621605,0.4864574696474922,0.5033044815063477,-0.07682102918624878,-0.8606876134872437
2020-08-20 22:49:44.894 +0200,13920.82934516667,0.4873046875,-0.0768585205078125,-0.8804779052734375,13920.81054916667,-2.10465340556486,0.5282612411199425,0.07721016981972548,0.01555475872009993,0.006129447370767593,0.03277256339788437,-6.777048110961914e-05,-0.0003152936697006226,-0.01651692390441895,XArbitraryZVertical,0.2450537301153517,0.09691666646149054,-0.8328381725394934,0.4867611640825602,0.5025307536125183,-0.07713347673416138,-0.8611116409301758
2020-08-20 22:49:44.914 +0200,13920.84938316667,0.4871978759765625,-0.0811920166015625,-0.8805389404296875,13920.83058716667,-2.104145796092202,0.5274317381084619,0.07617112999750321,0.008926550857722759,0.01286271866410971,0.03028494119644165,0.001607209444046021,-0.00314880907535553,-0.01394158601760864,XArbitraryZVertical,0.2444397830399013,0.09721470498140102,-0.8328999146896521,0.4869046465554825,0.5018563270568848,-0.07609749585390091,-0.8615970015525818
2020-08-20 22:49:44.934 +0200,13920.86942116667,0.48040771484375,-0.0807342529296875,-0.878997802734375,13920.85062516667,-2.103664296008169,0.5256118524728244,0.07674031085310505,-0.003119059838354588,-0.004166865721344948,0.01167929731309414,0.00314640998840332,-0.00612446665763855,-0.01329392194747925,XArbitraryZVertical,0.2437922143579165,0.09659042131190447,-0.8329590080133231,0.4872525054075625,0.5002657175064087,-0.07666501402854919,-0.8624712824821472
2020-08-20 22:49:44.954 +0200,13920.88945916667,0.4871368408203125,-0.0691070556640625,-0.881134033203125,13920.87066316667,-2.103252041148192,0.5239067517383126,0.07566981136208664,-0.03778822347521782,-0.00297803059220314,-0.005496340803802013,-0.001862704753875732,-0.007889717817306519,-0.01168429851531982,XArbitraryZVertical,0.2428104285077551,0.09667623919075628,-0.8331518824466104,0.4873958701212197,0.4988351166248322,-0.0755976215004921,-0.8633936047554016
2020-08-20 22:49:44.975 +0200,13920.90949716667,0.490692138671875,-0.0640869140625,-0.884368896484375,13920.89070116667,-2.102877791789493,0.5221380067925481,0.07503405112142264,-0.02167782932519913,-0.00568300299346447,-0.0002792081795632839,0.005772441625595093,0.002437397837638855,-0.01185983419418335,XArbitraryZVertical,0.2419058782222835,0.09655841184133236,-0.8333257769665957,0.4875716363344059,0.4973310828208923,-0.07496365904808044,-0.8643160462379456
2020-08-20 22:49:44.995 +0200,13920.92953516667,0.4830780029296875,-0.0740966796875,-0.87835693359375,13920.91073916667,-2.102877514562897,0.5215043909979965,0.07666514818823096,0.02537756413221359,-0.02001001127064228,0.006700176279991865,0.01032939553260803,0.01000784337520599,-0.01496994495391846,XArbitraryZVertical,0.2420257192528731,0.09571644198911816,-0.8332721253081201,0.4877699704705,0.4967217743396759,-0.07659006863832474,-0.8645238280296326
2020-08-20 22:49:45.015 +0200,13920.94957316667,0.4861907958984375,-0.0862274169921875,-0.87200927734375,13920.93077716667,-2.103079591990537,0.520452764782626,0.07851027359652944,0.05703895539045334,-0.02001027762889862,0.01881147176027298,0.004640638828277588,0.002464711666107178,-0.009671688079833984,XArbitraryZVertical,0.2420312691782972,0.09465755818307141,-0.8333008007439113,0.4879247274195294,0.495741218328476,-0.07842964679002762,-0.8649216294288635
2020-08-20 22:49:45.035 +0200,13920.96961116667,0.49407958984375,-0.0904388427734375,-0.8736572265625,13920.95081516667,-2.10315576279209,0.5194518297849232,0.08102507379185928,0.03657975047826767,0.001827643252909184,0.02192900702357292,0.006231069564819336,-0.007255673408508301,-0.003333032131195068,XArbitraryZVertical,0.2422091449120028,0.09334352980108893,-0.8332382135518874,0.4881963462422162,0.4947757720947266,-0.08093644678592682,-0.8652434349060059
2020-08-20 22:49:45.055 +0200,13920.98964916667,0.490386962890625,-0.0771942138671875,-0.8692169189453125,13920.97085316667,-2.103079507887691,0.5189002563501578,0.08001966334915353,0.002849616575986147,-0.01224396750330925,0.003258572891354561,0.01628252863883972,-0.01376432180404663,-0.004237055778503418,XArbitraryZVertical,0.2417393588941735,0.09364219186602599,-0.8333673245731145,0.4881517459515837,0.4943385720252991,-0.07993429154157639,-0.8655864596366882
2020-08-20 22:49:45.075 +0200,13921.00968616667,0.4913330078125,-0.07196044921875,-0.870819091796875,13920.99089116667,-2.102973609488054,0.5190576054575233,0.07819011840318255,-0.007022055331617594,-0.0204414427280426,0.00947945099323988,0.01223629713058472,-0.00225396454334259,0.0005241632461547852,XArbitraryZVertical,0.2413695831842144,0.09446498143307162,-0.8334692204872535,0.488002209665392,0.4945464730262756,-0.078110471367836,-0.8656342029571533
2020-08-20 22:49:45.107 +0200,13921.02972416667,0.492401123046875,-0.0776824951171875,-0.872161865234375,13921.01092816667,-2.102822397856276,0.5192270254704828,0.07653336873254001,0.003003014950081706,-0.02257836237549782,0.00610275287181139,0.01226186752319336,0.002129137516021729,-0.0004564523696899414,XArbitraryZVertical,0.2410430884693774,0.09522317141229526,-0.8335442290469973,0.4878881370083817,0.494756668806076,-0.07645867764949799,-0.8656615614891052
2020-08-20 22:49:45.124 +0200,13921.04976216667,0.492431640625,-0.0728912353515625,-0.867767333984375,13921.03096616667,-2.102800570741394,0.5192133005393228,0.0783911447869963,-0.007330716121941805,-0.02450516074895859,-0.0005368120037019253,0.01391410827636719,-0.001678600907325745,-0.00310361385345459,XArbitraryZVertical,0.2414735891037435,0.094439091227352,-0.8333921149993503,0.4880874766499004,0.4946734309196472,-0.07831088453531265,-0.86554354429245
2020-08-20 22:49:45.135 +0200,13921.06980016667,0.4953460693359375,-0.0646514892578125,-0.86505126953125,13921.05100416667,-2.102873843628721,0.5200766436214833,0.07951857800761196,-0.0120712760835886,-0.01557158678770065,-0.002104082144796848,0.01175397634506226,0.003284648060798645,0.001977682113647461,XArbitraryZVertical,0.24210198766291,0.09416551526394594,-0.8332151346405078,0.4881311997958834,0.495376318693161,-0.07943480461835861,-0.8650389909744263
2020-08-20 22:49:45.155 +0200,13921.08983816667,0.49542236328125,-0.0671844482421875,-0.8708343505859375,13921.07104216667,-2.102968614011005,0.5212944535158305,0.07995434787691294,0.004555371589958668,-0.03232819586992264,0.005956088658422232,0.01525300741195679,0.01281446218490601,0.003683507442474365,XArbitraryZVertical,0.2427162420954473,0.0942674827038114,-0.8330555224925043,0.488078753696065,0.4964121282100677,-0.07986918836832047,-0.8644049167633057
2020-08-20 22:49:45.175 +0200,13921.10987616667,0.4940032958984375,-0.0752105712890625,-0.87451171875,13921.09108016667,-2.1029974195595,0.5221495956519249,0.07947818776745648,0.04778992757201195,-0.03534795343875885,0.02725605107843876,0.01444345712661743,0.01008161902427673,-0.002310991287231445,XArbitraryZVertical,0.2429618221666029,0.09467341495101207,-0.8329971591462346,0.4879777182199367,0.4971700608730316,-0.07939454168081284,-0.8640130162239075
2020-08-20 22:49:45.195 +0200,13921.12991416667,0.4880218505859375,-0.08624267578125,-0.8699798583984375,13921.11111816667,-2.103155994011965,0.5233707321242789,0.08071078952139474,0.07349555939435959,-0.02850363031029701,0.04222115129232407,0.01223465800285339,0.003457978367805481,-0.006689548492431641,XArbitraryZVertical,0.2437675243666754,0.09443242421306013,-0.8327876015944096,0.4879802892003804,0.4981754720211029,-0.08062318712472916,-0.8633198142051697
2020-08-20 22:49:45.215 +0200,13921.14995216667,0.4906158447265625,-0.085113525390625,-0.8753814697265625,13921.13115616667,-2.103260736143044,0.5245156716626854,0.08153584379510961,0.0647105872631073,-0.01356968842446804,0.04118091985583305,0.004398584365844727,-0.006442725658416748,-0.002811968326568604,XArbitraryZVertical,0.2444429657382523,0.0943511701958239,-0.8326063730713739,0.487967206039156,0.4991301000118256,-0.08144553005695343,-0.8626909852027893
2020-08-20 22:49:45.235 +0200,13921.16999016667,0.49676513671875,-0.074554443359375,-0.88055419921875,13921.15119416667,-2.103181892231537,0.5255961451698686,0.08111556457444186,0.02293597534298897,-0.0001564114354550838,0.02686936035752296,0.006989985704421997,-0.007916182279586792,-0.008188486099243164,XArbitraryZVertical,0.2447903175014775,0.09480156939281692,-0.832489200660371,0.487905748421697,0.5000790357589722,-0.08102664351463318,-0.8621807098388672
2020-08-20 22:49:45.255 +0200,13921.19002816667,0.491790771484375,-0.0777130126953125,-0.8883209228515625,13921.17123216667,-2.103179550551153,0.5265414599357716,0.07996129021215354,0.00965212844312191,-0.01530500408262014,0.002871273551136255,0.01225993037223816,0.00282663106918335,-0.01401597261428833,XArbitraryZVertical,0.2449126249367531,0.09551888203430974,-0.8324667890592887,0.4877427246384266,0.5009405612945557,-0.07987610995769501,-0.8617879152297974
2020-08-20 22:49:45.276 +0200,13921.21006616667,0.49163818359375,-0.087646484375,-0.8918609619140625,13921.19127016667,-2.103458491110269,0.5272829245592817,0.0786273282268521,-0.001215033233165741,-0.03101925179362297,-0.01814304664731026,0.006493926048278809,-0.001084595918655396,-0.02231335639953613,XArbitraryZVertical,0.2449213711595967,0.09622759121304986,-0.8325522652959396,0.487453043625308,0.5016325712203979,-0.07854633778333664,-0.8615075349807739
2020-08-20 22:49:45.295 +0200,13921.23010416667,0.4808349609375,-0.0916290283203125,-0.888519287109375,13921.21130816667,-2.103840620697325,0.5273005454078163,0.07960730607067053,-0.01770585961639881,-0.04980519041419029,-0.02343699336051941,0.005998134613037109,-0.009828642010688782,-0.02623194456100464,XArbitraryZVertical,0.2451771234908629,0.09577210605621765,-0.8325636826178512,0.4873945844870601,0.5016087293624878,-0.07952325046062469,-0.8614317774772644
2020-08-20 22:49:45.315 +0200,13921.25014116667,0.47003173828125,-0.088409423828125,-0.8866729736328125,13921.23134616667,-2.103999214337386,0.5262663008631798,0.08073851356889059,-0.0282871313393116,-0.07325618714094162,-0.02031880989670753,-0.003074735403060913,-0.01413920521736145,-0.02191519737243652,XArbitraryZVertical,0.2450195789251271,0.09502382901409895,-0.8326371211030767,0.4874948353025441,0.5006720423698425,-0.08065082132816315,-0.8618717789649963
2020-08-20 22:49:45.335 +0200,13921.27017916667,0.467315673828125,-0.1024322509765625,-0.8776702880859375,13921.25138316667,-2.1041773313194,0.5263741871341459,0.07921298665067467,0.005053781904280186,-0.06303710490465164,-0.001377800130285323,-0.01518672704696655,-0.01161281764507294,-0.01983600854873657,XArbitraryZVertical,0.2447149765279782,0.09567135808954388,-0.8327912541799207,0.4872581094545241,0.5008262991905212,-0.07913017272949219,-0.8619231581687927
2020-08-20 22:49:45.355 +0200,13921.29021716667,0.458465576171875,-0.0985870361328125,-0.870819091796875,13921.27142116667,-2.104077791983935,0.5245934754659657,0.07861305534077576,0.01059115957468748,-0.07743468880653381,0.01621435582637787,-0.01517337560653687,-0.02517673373222351,-0.01063406467437744,XArbitraryZVertical,0.2438278234637059,0.09550253515193699,-0.8330329634908492,0.4873226220209756,0.4993143081665039,-0.07853210717439651,-0.862854540348053
2020-08-20 22:49:45.375 +0200,13921.31025516667,0.462890625,-0.0929107666015625,-0.8679656982421875,13921.29145916667,-2.103611224206611,0.5221892678644751,0.080638444459687,0.003301288932561874,-0.06583209335803986,0.04320477321743965,-0.02210494875907898,-0.021804079413414,-0.003262341022491455,XArbitraryZVertical,0.2432799734826516,0.09411926628288958,-0.8330483414389782,0.4878389168589398,0.4971580505371094,-0.08055108040571213,-0.86391282081604
2020-08-20 22:49:45.395 +0200,13921.33029316667,0.46087646484375,-0.08612060546875,-0.864044189453125,13921.31149716667,-2.102807310943871,0.5199214798206442,0.08280801091677174,0.005449527874588966,-0.07136534154415131,0.05023631826043129,-0.01581984758377075,-0.01269271969795227,0.0006074309349060059,XArbitraryZVertical,0.2428076071434992,0.09274847993350654,-0.8329520228341478,0.4885009082810495,0.4951096177101135,-0.08271340280771255,-0.8648843765258789
2020-08-20 22:49:45.416 +0200,13921.35033116667,0.466949462890625,-0.0900421142578125,-0.860626220703125,13921.33153516667,-2.101812963315134,0.5168380716862664,0.08413069546805904,-0.007596099749207497,-0.05659598484635353,0.04457926750183105,-0.01504603028297424,-0.00563424825668335,0.006794333457946777,XArbitraryZVertical,0.2417886297256587,0.0915573885013473,-0.8329752787808841,0.4891908429789173,0.4923859834671021,-0.08403148502111435,-0.8663110136985779
2020-08-20 22:49:45.435 +0200,13921.37036916667,0.4716339111328125,-0.084320068359375,-0.8603973388671875,13921.35157316667,-2.10075328624643,0.5147397920230289,0.0857652299868073,-0.03192407637834549,-0.03767635673284531,0.04491794854402542,-0.007955729961395264,-0.007293209433555603,0.009353876113891602,XArbitraryZVertical,0.2412513010515831,0.09048225034349403,-0.8328366569264,0.4898916479882143,0.4904988408088684,-0.08566012233495712,-0.8672215342521667
2020-08-20 22:49:45.455 +0200,13921.39040716667,0.47174072265625,-0.0804595947265625,-0.8572998046875,13921.37161116667,-2.099419251689131,0.512918516891527,0.08700074660096958,-0.04989016056060791,-0.02538080886006355,0.05007762834429741,-0.001859456300735474,-0.0005174428224563599,0.01162236928939819,XArbitraryZVertical,0.2407240077526632,0.0896753622726268,-0.832628690152428,0.4906523363958036,0.4888662695884705,-0.08689103275537491,-0.8680205345153809
2020-08-20 22:49:45.476 +0200,13921.41044516667,0.4781494140625,-0.0777587890625,-0.8593292236328125,13921.39164916667,-2.097805007821719,0.511284240471891,0.0881290646772354,-0.04245927557349205,-0.005302970297634602,0.07062852382659912,-0.0003936886787414551,0.003805041313171387,0.01585108041763306,XArbitraryZVertical,0.2402378525984396,0.08899229562487865,-0.832337013299711,0.4915091239195545,0.487398773431778,-0.08801502734422684,-0.8687322735786438
2020-08-20 22:49:45.496 +0200,13921.43048316667,0.4719390869140625,-0.0863037109375,-0.8602752685546875,13921.41168716667,-2.09598839687259,0.5097475235794662,0.08942510440221987,-0.02119100466370583,-0.001238986384123564,0.08448273688554764,0.00693434476852417,0.008395835757255554,0.01391434669494629,XArbitraryZVertical,0.2398241879938701,0.08828579626261526,-0.8319688905261907,0.4924608302495092,0.4860071241855621,-0.08930596709251404,-0.8693799376487732
2020-08-20 22:49:45.516 +0200,13921.45052116667,0.4748687744140625,-0.08135986328125,-0.8603363037109375,13921.43172516667,-2.094239084247353,0.5095638294952928,0.09128462040471388,-0.02364111319184303,0.0149160148575902,0.0972931981086731,0.002254754304885864,0.002756759524345398,0.01367586851119995,XArbitraryZVertical,0.2401108116734949,0.08766656419093037,-0.8314076016779308,0.4933788487061108,0.4857655763626099,-0.09115789830684662,-0.8693227171897888
2020-08-20 22:49:45.536 +0200,13921.47055816667,0.477630615234375,-0.0799560546875,-0.8664703369140625,13921.45176316667,-2.092313003255432,0.5115664671827561,0.09140516145634799,-0.04327140748500824,0.02467916160821915,0.09885095059871674,0.002987444400787354,0.007038503885269165,0.01211333274841309,XArbitraryZVertical,0.2408867342196425,0.08834179341558551,-0.8306814187907714,0.4941029811287285,0.4875001609325409,-0.09127793461084366,-0.8683386445045471
2020-08-20 22:49:45.556 +0200,13921.49059616667,0.487701416015625,-0.069854736328125,-0.875335693359375,13921.47180016667,-2.09021295966648,0.5135188861441042,0.09019346796910641,-0.06794878840446472,0.04753920435905457,0.08587538450956345,0.00472906231880188,0.006786391139030457,0.006400525569915771,XArbitraryZVertical,0.2413164353724928,0.08958768058146273,-0.8300267951667549,0.4947685865192598,0.4892485439777374,-0.09007123112678528,-0.8674808740615845
2020-08-20 22:49:45.576 +0200,13921.51063416667,0.4852294921875,-0.0712738037109375,-0.8812255859375,13921.49183816667,-2.088019612500255,0.5156084790035573,0.08831131416540829,-0.08963504433631897,0.04243339225649834,0.07831653952598572,0.01188367605209351,0.01487533748149872,-0.003467202186584473,XArbitraryZVertical,0.2416367554567186,0.09116131542581178,-0.8293868325616164,0.495397646412515,0.4911428987979889,-0.08819656819105148,-0.8666025996208191
2020-08-20 22:49:45.608 +0200,13921.53067216667,0.479736328125,-0.079345703125,-0.8821258544921875,13921.51187616667,-2.08589981400931,0.5172770077723002,0.08776150070331094,-0.09072054922580719,0.008588611148297787,0.07446921616792679,0.009333044290542603,0.01353667676448822,-0.01168215274810791,XArbitraryZVertical,0.242100353051819,0.09206229333411534,-0.8287049716527364,0.4961451805615643,0.4926120638847351,-0.08764888346195221,-0.8658239245414734
2020-08-20 22:49:45.623 +0200,13921.55071016667,0.480133056640625,-0.079986572265625,-0.885589599609375,13921.53191416667,-2.083726467537601,0.518494188244386,0.08685531465712834,-0.08511539548635483,-0.008966414257884026,0.08710538595914841,0.00191304087638855,0.004575997591018677,-0.01218128204345703,XArbitraryZVertical,0.2422877336919663,0.09300810184816374,-0.8280929478436906,0.4968985734206615,0.4937047064304352,-0.08674614876508713,-0.8652923107147217
2020-08-20 22:49:45.636 +0200,13921.57074725,0.47808837890625,-0.0760650634765625,-0.8922271728515625,13921.55195216667,-2.081358497641717,0.519213213589471,0.08505395115616196,-0.07561270147562027,-0.02320553734898567,0.102643258869648,0.002366185188293457,0.002351075410842896,-0.01512628793716431,XArbitraryZVertical,0.2420437398613401,0.09422924473627768,-0.8275660062673127,0.4976647581791323,0.4944034814834595,-0.08495143800973892,-0.8650713562965393
2020-08-20 22:49:45.656 +0200,13921.59078525,0.4521484375,-0.094512939453125,-0.877410888671875,13921.57198925,-2.078733853344486,0.5184062702670055,0.08319360234378485,-0.04323159158229828,-0.07822591066360474,0.08136520534753799,0.008185386657714844,0.005745336413383484,-0.02509194612503052,XArbitraryZVertical,0.241139630383805,0.09512505812344629,-0.8271630398284692,0.4986022691391092,0.4937827289104462,-0.0830976665019989,-0.8656058311462402
2020-08-20 22:49:45.676 +0200,13921.61082325,0.4835357666015625,-0.0833892822265625,-0.877716064453125,13921.59202725,-2.076216839011321,0.5184843661847215,0.08160811056661833,-0.07943899929523468,0.03700720146298409,0.1284000873565674,-0.02668669819831848,-0.01522332429885864,-0.008280634880065918,XArbitraryZVertical,0.2406703928056622,0.09611174789285651,-0.8266557886377601,0.4994802642843953,0.4939149916172028,-0.08151755481958389,-0.8656805753707886
2020-08-20 22:49:45.696 +0200,13921.63086125,0.4725494384765625,-0.07763671875,-0.8701629638671875,13921.61206525,-2.073020067595531,0.5176917774092256,0.08039335674375211,-0.1060221418738365,0.01016520243138075,0.1164630800485611,0.006080567836761475,-0.006858155131340027,-0.007346451282501221,XArbitraryZVertical,0.2398958364262958,0.09680594114497233,-0.8260511807964281,0.5007175489381105,0.4932773411273956,-0.08030678331851959,-0.8661571741104126
2020-08-20 22:49:45.716 +0200,13921.65089925,0.467437744140625,-0.087127685546875,-0.8653564453125,13921.63210325,-2.069795153341861,0.5156455958339022,0.08017303561857612,-0.1066624894738197,-0.01031211018562317,0.1208697333931923,-0.001611292362213135,0.0003908723592758179,0.000509798526763916,XArbitraryZVertical,0.238841624791333,0.09677103435744977,-0.8255055772987033,0.5021261104453979,0.4915127158164978,-0.08008717745542526,-0.8671801090240479
2020-08-20 22:49:45.736 +0200,13921.67093725,0.46771240234375,-0.079071044921875,-0.8547515869140625,13921.65214125,-2.066416105897865,0.5156341124965618,0.07816565914712002,-0.1518837660551071,-0.0002861074171960354,0.1243564933538437,-0.008742064237594604,-0.01283691823482513,0.006325185298919678,XArbitraryZVertical,0.2381851687982051,0.09800968836785877,-0.8248213530593317,0.5033207046613597,0.4915810227394104,-0.07808608561754227,-0.8673238754272461
2020-08-20 22:49:45.756 +0200,13921.69097525,0.4651031494140625,-0.082305908203125,-0.840087890625,13921.67217925,-2.062594500149493,0.5137515130964021,0.07749733154821967,-0.1752154529094696,-0.001034721732139587,0.1228344738483429,-0.006071984767913818,-0.004250079393386841,0.01654034852981567,XArbitraryZVertical,0.2370587970349338,0.09826810779651535,-0.8241361088814294,0.5049219372808952,0.4899728894233704,-0.07741978019475937,-0.8682929873466492
2020-08-20 22:49:45.776 +0200,13921.71101225,0.464202880859375,-0.07550048828125,-0.82720947265625,13921.69221725,-2.058487519402024,0.5138328286997794,0.07711893948072993,-0.2027566730976105,0.01971423253417015,0.1393152624368668,-0.009190618991851807,-0.007575362920761108,0.03137326240539551,XArbitraryZVertical,0.2367973141539487,0.09893293690219575,-0.8231187019155852,0.506571669300565,0.4900578558444977,-0.07704252004623413,-0.8682786226272583
2020-08-20 22:49:45.796 +0200,13921.73105025,0.478912353515625,-0.0626068115234375,-0.8230133056640625,13921.71225425,-2.053739335071106,0.5147837704778897,0.07625806529703751,-0.2239622324705124,0.04499508813023567,0.1706917732954025,-0.0114549994468689,-0.002714395523071289,0.04475623369216919,XArbitraryZVertical,0.2367408672264889,0.1000947150670016,-0.821871501821145,0.508391657732798,0.4909157752990723,-0.07618417590856552,-0.8678696155548096
2020-08-20 22:49:45.816 +0200,13921.75108825,0.5589599609375,-0.048675537109375,-0.81817626953125,13921.73229225,-2.048233540348415,0.5149612854324084,0.07564920249484267,-0.2471497058868408,0.05793672055006027,0.1866041570901871,0.003297090530395508,0.009713917970657349,0.04962408542633057,XArbitraryZVertical,0.236386841626554,0.101044212628281,-0.8204976378819997,0.5105828708803216,0.4910925924777985,-0.07557706534862518,-0.8678226470947266
2020-08-20 22:49:45.836 +0200,13921.77112625,0.4481964111328125,-0.0546875,-0.7932891845703125,13921.75233025,-2.041268858332205,0.5151971087039267,0.07449582633095907,-0.3532660305500031,-0.05250803381204605,0.2881235182285309,0.07659012079238892,0.02340203523635864,0.05875545740127563,XArbitraryZVertical,0.2358434139043865,0.1024052389868389,-0.8187814123743168,0.5133108231467539,0.4913398325443268,-0.07442694157361984,-0.8677821159362793
2020-08-20 22:49:45.856 +0200,13921.79116425,0.48187255859375,-0.0403289794921875,-0.79150390625,13921.77236825,-2.034716860115912,0.5141236383700564,0.07173849562417778,-0.4008941054344177,0.006836783140897751,0.194906160235405,-0.02332738041877747,0.01392044126987457,0.07695215940475464,XArbitraryZVertical,0.2343785850772826,0.104040651617106,-0.8174473029470305,0.5157733989628812,0.4905070960521698,-0.07167697697877884,-0.8684844374656677
2020-08-20 22:49:45.877 +0200,13921.81120225,0.4979248046875,-0.024261474609375,-0.793182373046875,13921.79240625,-2.02662361047341,0.5157266766129249,0.06733115729568914,-0.5144340395927429,0.05841422080993652,0.19048210978508,0.00130307674407959,0.02503174543380737,0.08178853988647461,XArbitraryZVertical,0.2334990489552344,0.1072216768385754,-0.8155256729539335,0.51855533480509,0.4920496940612793,-0.06728029251098633,-0.867963433265686
2020-08-20 22:49:45.896 +0200,13921.83124025,0.4878082275390625,-0.01007080078125,-0.792633056640625,13921.81244425,-2.017666681341489,0.5173200011682396,0.06013028876121652,-0.6032384634017944,-0.006889414973556995,0.2173101007938385,0.02200871706008911,0.03254358470439911,0.07874429225921631,XArbitraryZVertical,0.2318353988043785,0.111641808605401,-0.8135935822332369,0.5213961705357276,0.4936588108539581,-0.06009405851364136,-0.8675768971443176
2020-08-20 22:49:45.916 +0200,13921.85127825,0.682220458984375,-0.0189208984375,-0.8137969970703125,13921.83248225,-2.007437856973228,0.5192073853967348,0.05129079826372619,-0.6632627844810486,0.02927577868103981,0.2432009875774384,0.006532222032546997,0.03833162784576416,0.07842260599136353,XArbitraryZVertical,0.2297594984487046,0.1169405472464412,-0.8114072517296925,0.5245509546275972,0.4955396056175232,-0.0512683130800724,-0.8670709729194641
2020-08-20 22:49:45.937 +0200,13921.87131625,0.4527740478515625,-0.1134490966796875,-0.811553955078125,13921.85252025,-1.99393177283221,0.5192875679923444,0.04396541978998019,-0.801763653755188,-0.3366515934467316,0.4913845658302307,0.1985887289047241,0.03326573967933655,0.06735515594482422,XArbitraryZVertical,0.2270946218011167,0.1214949354198978,-0.8084184274118156,0.5292700122697538,0.495782196521759,-0.04395125806331635,-0.8673340082168579
2020-08-20 22:49:45.956 +0200,13921.89135425,0.503326416015625,-0.0657501220703125,-0.8273773193359375,13921.87255825,-1.979380798214271,0.5140807583288717,0.03550975197660289,-0.7785032987594604,-0.1468422561883926,0.4623505473136902,-0.01956123113632202,-0.08628350496292114,0.06116765737533569,XArbitraryZVertical,0.2218830482089126,0.1251791367662165,-0.8057903227755449,0.5346027237671704,0.4914246499538422,-0.03550228849053383,-0.8701961636543274
2020-08-20 22:49:45.976 +0200,13921.91139225,0.5651092529296875,-0.05340576171875,-0.848846435546875,13921.89259625,-1.962049200005552,0.5158083464847314,0.02735642754541448,-0.759184718132019,0.07261019945144653,0.5768886804580688,0.01729953289031982,-0.03902356326580048,0.04836881160736084,XArbitraryZVertical,0.2193034050508617,0.1308495695538192,-0.8015660432758267,0.5406258031900156,0.4930536448955536,-0.02735301479697227,-0.8695688247680664
2020-08-20 22:49:45.996 +0200,13921.93142925,0.5084381103515625,-0.03009033203125,-0.8401336669921875,13921.91263425,-1.944382095994444,0.5184895219333617,0.01902460005777766,-0.8174444437026978,0.01699195057153702,0.6102672815322876,0.08657741546630859,-0.03730250895023346,0.02396416664123535,XArbitraryZVertical,0.2169483019575495,0.1368490696112605,-0.7971063336614116,0.5466509085603318,0.4954790771007538,-0.01902345195412636,-0.8684115409851074
2020-08-20 22:49:46.017 +0200,13921.95146725,0.5284271240234375,0.006805419921875,-0.8365631103515625,13921.93267125,-1.924714255215457,0.522512570327646,0.01043740484614238,-0.8628776073455811,0.1101067140698433,0.7014791965484619,0.02634656429290771,-0.02217313647270203,0.03066432476043701,XArbitraryZVertical,0.2148200173888857,0.1434990022491056,-0.7919158412077703,0.5532898758371348,0.4990318417549133,-0.01043721567839384,-0.8665208220481873
2020-08-20 22:49:46.037 +0200,13921.97150525,0.5284271240234375,0.0113372802734375,-0.83636474609375,13921.95270925,-1.903042252660819,0.5260822190571263,0.005992547864042842,-0.8628324270248413,0.1293102353811264,0.7876108884811401,0.0403066873550415,0.01145945489406586,0.03262799978256226,XArbitraryZVertical,0.2134110971949738,0.1485697107753758,-0.785834752202049,0.5611118607460932,0.5021401643753052,-0.005992512218654156,-0.864765465259552
2020-08-20 22:49:46.057 +0200,13921.99154325,0.51300048828125,0.013092041015625,-0.8341522216796875,13921.97274725,-1.880200206238445,0.5281979010297221,0.001508390667591308,-0.8764165639877319,0.06116100400686264,0.8393555879592896,0.04138258099555969,0.0116066038608551,0.03142905235290527,XArbitraryZVertical,0.2112493133202331,0.1533488782247503,-0.7794991835912328,0.5694196991129468,0.5039770603179932,-0.001508390065282583,-0.8637157082557678
2020-08-20 22:49:46.077 +0200,13922.01158125,0.524993896484375,0.01922607421875,-0.839019775390625,13921.99278525,-1.85622180586834,0.5315349723763342,-0.003908200161369378,-0.9523698091506958,0.07386481761932373,0.8711804151535034,0.02297466993331909,0.009340956807136536,0.03311812877655029,XArbitraryZVertical,0.2091179136824955,0.1589275040782044,-0.7726910746344688,0.5778929536971831,0.5068532824516296,0.003908190410584211,-0.8620234727859497
2020-08-20 22:49:46.107 +0200,13922.03161925,0.5142364501953125,0.0527191162109375,-0.8441009521484375,13922.01282325,-1.830794936471574,0.5331773004576152,-0.01234588502800541,-1.051648497581482,0.05861476063728333,0.8909712433815002,0.03346478939056396,0.006380096077919006,0.02657812833786011,XArbitraryZVertical,0.2052248976955708,0.1652794999005341,-0.7657757838090486,0.5866454520616307,0.5082334280014038,0.0123455710709095,-0.8611308336257935
2020-08-20 22:49:46.126 +0200,13922.05165725,0.5092620849609375,0.0703887939453125,-0.8459625244140625,13922.03286125,-1.804441842230055,0.5347179592032635,-0.02144785526918215,-1.052971005439758,0.05745787918567657,0.9108332395553589,0.02276656031608582,0.02958713471889496,0.02061033248901367,XArbitraryZVertical,0.2008844923774595,0.1718667089168235,-0.7585391004961943,0.5955885987219005,0.5094811916351318,0.02144621126353741,-0.8602145314216614
2020-08-20 22:49:46.137 +0200,13922.07169525,0.51416015625,0.058807373046875,-0.84417724609375,13922.05289925,-1.777786212659875,0.5367954754781441,-0.02975918154596875,-1.01845383644104,0.08407004922628403,0.9569702744483948,0.01478078961372375,0.04146036505699158,0.01823246479034424,XArbitraryZVertical,0.1968194683015721,0.1782594297729146,-0.7509820852650583,0.6045755772803061,0.5111584067344666,0.02975478954613209,-0.8589713573455811
2020-08-20 22:49:46.157 +0200,13922.09173325,0.5145263671875,0.0648345947265625,-0.8375701904296875,13922.07293725,-1.750591797898641,0.539608136017322,-0.03715835005691681,-1.01091992855072,0.1029521301388741,0.9942036867141724,0.01714563369750977,0.02389836311340332,0.0171208381652832,XArbitraryZVertical,0.1931246451417221,0.1845099835395354,-0.743004252416856,0.6136803642205352,0.5134451985359192,0.03714979812502861,-0.8573178648948669
2020-08-20 22:49:46.177 +0200,13922.11177125,0.5178985595703125,0.096221923828125,-0.8308563232421875,13922.09297525,-1.722563895421732,0.5429898623059493,-0.04421202587698508,-1.012290358543396,0.1216741502285004,1.045569658279419,0.01534110307693481,0.01990163326263428,0.02224791049957275,XArbitraryZVertical,0.1895338383209337,0.1908177600579523,-0.7345718919862307,0.6229523562467044,0.5161932110786438,0.04419762268662453,-0.8553310036659241
2020-08-20 22:49:46.197 +0200,13922.13180925,0.5193328857421875,0.0955810546875,-0.835357666015625,13922.11301325,-1.694025312757144,0.5467942924781461,-0.05028498174715427,-0.989868700504303,0.1185590475797653,1.069679737091064,0.01453763246536255,0.04729610681533813,0.02648282051086426,XArbitraryZVertical,0.1862215935383098,0.1968845199557805,-0.7257427297765933,0.6323413429683437,0.5192943811416626,0.05026379227638245,-0.8531160354614258
2020-08-20 22:49:46.217 +0200,13922.15184625,0.524749755859375,0.101348876953125,-0.8412017822265625,13922.13305125,-1.665255633145389,0.5508716711819428,-0.05594769903576486,-1.004082322120667,0.1424039304256439,1.085263967514038,0.01291513442993164,0.04075641930103302,0.02089858055114746,XArbitraryZVertical,0.1829827816657008,0.2028536539008802,-0.716660983801941,0.641689015779645,0.522611141204834,0.05591851472854614,-0.8507353663444519
2020-08-20 22:49:46.237 +0200,13922.17188425,0.5334014892578125,0.1410980224609375,-0.8509368896484375,13922.15308825,-1.635870019321183,0.5557899607768085,-0.06168156118308421,-1.0144362449646,0.1705450266599655,1.107724070549011,0.0154075026512146,0.04097042977809906,0.01260083913803101,XArbitraryZVertical,0.1798200352220174,0.2091184543366994,-0.707189376179059,0.6510126695837208,0.5266111493110657,0.06164245679974556,-0.8478684425354004
2020-08-20 22:49:46.257 +0200,13922.19192225,0.531646728515625,0.14093017578125,-0.8484954833984375,13922.17312625,-1.60625054108213,0.5613198432495965,-0.06652991015497109,-0.9559450745582581,0.183814749121666,1.133843541145325,0.01938503980636597,0.07377958297729492,-0.0003868937492370605,XArbitraryZVertical,0.1769989603769274,0.2152466846409584,-0.6973919648108409,0.6602913784459492,0.5311263799667358,0.0664808452129364,-0.8446804881095886
2020-08-20 22:49:46.277 +0200,13922.21196025,0.535675048828125,0.137420654296875,-0.84832763671875,13922.19316425,-1.576722491603019,0.5670021110788633,-0.07011884865930443,-0.9274283647537231,0.187286451458931,1.160618782043457,0.0142815113067627,0.07506047189235687,-0.00187230110168457,XArbitraryZVertical,0.1745285795169647,0.2209495244931955,-0.6873831238042711,0.6694964942215563,0.5357858538627625,0.07006140798330307,-0.8414421677589417
2020-08-20 22:49:46.297 +0200,13922.23199825,0.56390380859375,0.153656005859375,-0.8441925048828125,13922.21320225,-1.546821966938342,0.5733218615496843,-0.07330254327044189,-0.9568303227424622,0.2363738417625427,1.183391690254211,0.01063942909240723,0.06454150378704071,-0.005548715591430664,XArbitraryZVertical,0.1722421799788834,0.2267350491256049,-0.677036770501581,0.6786346282940251,0.5409690737724304,0.07323691248893738,-0.8378477096557617
2020-08-20 22:49:46.317 +0200,13922.25203625,0.55535888671875,0.1515655517578125,-0.8222808837890625,13922.23324025,-1.516019668108669,0.5801640534503795,-0.07669342042059962,-1.003004908561707,0.196868509054184,1.192797780036926,0.03380393981933594,0.07968704402446747,-0.005189120769500732,XArbitraryZVertical,0.1698175981809203,0.2328193934449492,-0.6662340535602542,0.6878149262808739,0.5465498566627502,0.0766182616353035,-0.8339142203330994
2020-08-20 22:49:46.337 +0200,13922.27207425,0.55706787109375,0.1595458984375,-0.8094482421875,13922.25327825,-1.484566954884547,0.5860594988098141,-0.08104850160366038,-1.093898177146912,0.1584143191576004,1.193350315093994,0.02209866046905518,0.07350248098373413,0.01149827241897583,XArbitraryZVertical,0.1665145277287264,0.2389080428611864,-0.6552503259608534,0.6970243108732165,0.5512668490409851,0.08095979690551758,-0.8303917050361633
2020-08-20 22:49:46.357 +0200,13922.29211225,0.5706787109375,0.2086029052734375,-0.8077850341796875,13922.27331625,-1.4516162911403,0.5919039181799607,-0.08661847738067673,-1.163942813873291,0.141632154583931,1.236379027366638,0.01806038618087769,0.07460159063339233,0.02262574434280396,XArbitraryZVertical,0.1624229310668588,0.2454270945217188,-0.6437333421895529,0.7063934909865701,0.5558503270149231,0.08651020377874374,-0.8267686367034912
2020-08-20 22:49:46.377 +0200,13922.31215025,0.57086181640625,0.2075347900390625,-0.809906005859375,13922.29335425,-1.4178991731517,0.5974422805889561,-0.09178724799771229,-1.146608829498291,0.102956123650074,1.251052498817444,0.0275300145149231,0.1178378760814667,0.02103632688522339,XArbitraryZVertical,0.1581162838952117,0.2516959347305607,-0.6317980202187405,0.7158768272058392,0.5601617097854614,0.09165842086076736,-0.8232967853546143
2020-08-20 22:49:46.397 +0200,13922.33218825,0.5852508544921875,0.210235595703125,-0.8139801025390625,13922.31339225,-1.383906742502364,0.6021986658158851,-0.0962394410158246,-1.117904305458069,0.06587772816419601,1.286380767822266,0.02580714225769043,0.1150442063808441,0.01808547973632812,XArbitraryZVertical,0.1536337516055248,0.2574049509794132,-0.6196166517190465,0.7254064868320338,0.5638344883918762,0.09609095007181168,-0.8202787041664124
2020-08-20 22:49:46.417 +0200,13922.35222625,0.5980072021484375,0.199676513671875,-0.8124237060546875,13922.33343025,-1.34983531567286,0.6071547718547261,-0.09956029837251316,-1.094509959220886,0.08103005588054657,1.295728206634521,0.03492259979248047,0.1140283197164536,0.008247435092926025,XArbitraryZVertical,0.149479921509612,0.2627773257024445,-0.6071364985683636,0.7348395242060328,0.5677077770233154,0.09939590096473694,-0.8172076344490051
2020-08-20 22:49:46.437 +0200,13922.37226325,0.60870361328125,0.221832275390625,-0.8153076171875,13922.35346825,-1.315643647123697,0.6121646692162535,-0.1030969676911812,-1.152117490768433,0.07796049118041992,1.285133957862854,0.04457926750183105,0.1002630591392517,0.007292628288269043,XArbitraryZVertical,0.1451055217639472,0.2681681394371847,-0.5944896024734997,0.7440513285882918,0.5715891718864441,0.1029144302010536,-0.8140604496002197
2020-08-20 22:49:46.457 +0200,13922.39230125,0.6424713134765625,0.287109375,-0.8471527099609375,13922.37350525,-1.281113193648089,0.617421418513651,-0.1078335303635979,-1.212652802467346,0.09104886651039124,1.239168763160706,0.05039966106414795,0.1157096326351166,0.00277554988861084,XArbitraryZVertical,0.140153022557064,0.2739309130531935,-0.5816892870657008,0.7529651590780425,0.5755718946456909,0.1076246723532677,-0.8106379508972168
2020-08-20 22:49:46.477 +0200,13922.41233925,0.650482177734375,0.38043212890625,-0.88739013671875,13922.39354325,-1.246846065109057,0.6231822114823806,-0.1136711174045076,-1.213988184928894,0.09178230166435242,1.180384635925293,0.08002233505249023,0.1725041568279266,-0.03157716989517212,XArbitraryZVertical,0.1347957239789088,0.2800672779338912,-0.5689466927272552,0.7613751184336718,0.5798556804656982,0.1134264841675758,-0.8067848682403564
2020-08-20 22:49:46.497 +0200,13922.43237725,0.614715576171875,0.4005889892578125,-0.9102630615234375,13922.41358125,-1.214550588684908,0.6282707086856674,-0.1192505839028685,-1.103674530982971,0.03802905604243279,1.08776867389679,0.08713757991790771,0.2604036927223206,-0.07515674829483032,XArbitraryZVertical,0.1294677775672344,0.285636895264541,-0.5568639394673918,0.7691242959517078,0.5835724472999573,0.1189681440591812,-0.8032993078231812
2020-08-20 22:49:46.518 +0200,13922.45241525,0.5633392333984375,0.3542938232421875,-0.9037322998046875,13922.43361925,-1.185315745303976,0.6317105363216091,-0.1240897019294308,-0.9987598061561584,-0.03631921112537384,0.9642021059989929,0.05083680152893066,0.2831607460975647,-0.1023731231689453,XArbitraryZVertical,0.1242873084186113,0.2900794072750941,-0.5458901106708033,0.7761511440860973,0.5859853625297546,0.1237714886665344,-0.8008131980895996
2020-08-20 22:49:46.537 +0200,13922.47245325,0.526947021484375,0.322601318359375,-0.892852783203125,13922.45365725,-1.15933139579431,0.6340090690147512,-0.1287654481101517,-0.9229799509048462,-0.06158994510769844,0.8221268653869629,-0.002911984920501709,0.2320111393928528,-0.0994383692741394,XArbitraryZVertical,0.1192438076486725,0.2937453362102544,-0.5361532224608151,0.7823261908980912,0.5874752402305603,0.1284099072217941,-0.7989891767501831
2020-08-20 22:49:46.557 +0200,13922.49249125,0.5115203857421875,0.30279541015625,-0.902679443359375,13922.47369525,-1.136194685496998,0.6353663973825452,-0.1345874303789663,-0.8933078050613403,-0.1041219606995583,0.6841750144958496,-0.04040235280990601,0.1951765120029449,-0.08867514133453369,XArbitraryZVertical,0.1138373025254348,0.2970743170777295,-0.5276554993612175,0.7876342222371485,0.5881055593490601,0.13418148458004,-0.797575831413269
2020-08-20 22:49:46.578 +0200,13922.51252925,0.516693115234375,0.2830047607421875,-0.916961669921875,13922.49373325,-1.11580841564817,0.6359805404966108,-0.1406495085626119,-0.7957713007926941,-0.10948396474123,0.5853312015533447,-0.0582815408706665,0.1674546301364899,-0.09809505939483643,XArbitraryZVertical,0.1084916721815967,0.2999280467123108,-0.5202630092298853,0.7922114844390232,0.5881012678146362,0.1401862353086472,-0.7965454459190369
2020-08-20 22:49:46.607 +0200,13922.53256725,0.523223876953125,0.2460174560546875,-0.921722412109375,13922.51377125,-1.098066326968374,0.636299852601813,-0.1455174615454826,-0.6378958821296692,-0.104041799902916,0.5341647863388062,-0.05263525247573853,0.1445277035236359,-0.113801121711731,XArbitraryZVertical,0.1039132699662685,0.3021628167510811,-0.5137595500557439,0.7962102627078219,0.5879431366920471,0.1450044363737106,-0.7957993149757385
2020-08-20 22:49:46.622 +0200,13922.55260525,0.545654296875,0.208038330078125,-0.91522216796875,13922.53380925,-1.082882433356931,0.6367174273222419,-0.1483679293667959,-0.4891917407512665,-0.07086919993162155,0.5081445574760437,-0.04604840278625488,0.1046136319637299,-0.1193377375602722,XArbitraryZVertical,0.1005485383423717,0.3037777162610369,-0.5080088490359471,0.7997100143239709,0.5880272388458252,0.1478241831064224,-0.7952181696891785
2020-08-20 22:49:46.638 +0200,13922.572644125,0.566131591796875,0.1711273193359375,-0.8987274169921875,13922.55384725,-1.069499178280761,0.6376474702501996,-0.1498296026132858,-0.4291534423828125,-0.03808888047933578,0.4712429344654083,-0.0255509614944458,0.06659394502639771,-0.1155956983566284,XArbitraryZVertical,0.09814309956253947,0.3051551817311236,-0.502770493756128,0.8027889744036283,0.5886373519897461,0.1492696404457092,-0.794496476650238
2020-08-20 22:49:46.658 +0200,13922.592681125,0.5762786865234375,0.146575927734375,-0.8700103759765625,13922.573886125,-1.057144665299297,0.6387146447090365,-0.1513556977062397,-0.4249809384346008,-0.04820170253515244,0.4201033115386963,-0.00531923770904541,0.02739898860454559,-0.09929203987121582,XArbitraryZVertical,0.09588892939414503,0.3065343341401178,-0.4979292772977995,0.8055485158131384,0.5893483757972717,0.1507784724235535,-0.7936840057373047
2020-08-20 22:49:46.678 +0200,13922.612719125,0.5804595947265625,0.1278076171875,-0.842864990234375,13922.593923125,-1.045465463809945,0.6390750585474579,-0.1535891931093172,-0.446106880903244,-0.1014324352145195,0.3749081194400787,0.005708217620849609,-0.0004328787326812744,-0.07154756784439087,XArbitraryZVertical,0.09325682948117912,0.3077393608922474,-0.4934625191581014,0.8081425711012387,0.5894320607185364,0.1529860496520996,-0.7931993007659912
2020-08-20 22:49:46.698 +0200,13922.632757125,0.5814361572265625,0.1060943603515625,-0.8179168701171875,13922.613961125,-1.033808836659829,0.6382776100059085,-0.1568040279093203,-0.4922003448009491,-0.161702960729599,0.3566795587539673,0.01139819622039795,-0.02219824492931366,-0.04518824815750122,XArbitraryZVertical,0.0899245959542033,0.3086722738794555,-0.4891591342440789,0.8107763814805934,0.5885032415390015,0.1561622470617294,-0.7932699918746948
2020-08-20 22:49:46.718 +0200,13922.652795125,0.5886383056640625,0.0836944580078125,-0.7869873046875,13922.633999125,-1.021461338381162,0.6365042324200376,-0.1612533598910438,-0.5983110070228577,-0.2107661068439484,0.3636718392372131,0.01403528451919556,-0.04715530574321747,-0.01871168613433838,XArbitraryZVertical,0.08572337872291248,0.3094812021536305,-0.4847454813089055,0.8135691711687845,0.5866767764091492,0.160555437207222,-0.793745756149292
2020-08-20 22:49:46.738 +0200,13922.672833125,0.5880889892578125,0.0987548828125,-0.7414093017578125,13922.654037125,-1.007467891259344,0.6317146996536593,-0.1683376119234329,-0.7797436714172363,-0.2539721727371216,0.3836585283279419,0.02522021532058716,-0.07842288911342621,0.01376104354858398,XArbitraryZVertical,0.0794261295100411,0.3096565121843807,-0.4800666649234268,0.8169090403039869,0.5821821093559265,0.1675436943769455,-0.7956086397171021
2020-08-20 22:49:46.758 +0200,13922.692871125,0.5659942626953125,0.1366424560546875,-0.680419921875,13922.674075125,-0.9905484042069677,0.6268677998578331,-0.1768605479775348,-1.008027076721191,-0.3337538242340088,0.4118183255195618,0.03013980388641357,-0.07324159145355225,0.05908215045928955,XArbitraryZVertical,0.07204959695205772,0.3101468182218536,-0.474309161211155,0.8207609289447668,0.5774603486061096,0.1759399622678757,-0.7972356081008911
2020-08-20 22:49:46.778 +0200,13922.712909125,0.531097412109375,0.1732177734375,-0.6203155517578125,13922.694113125,-0.9705426979370783,0.6221483963560754,-0.1875544760579292,-1.208664298057556,-0.4588877856731415,0.4266246855258942,0.01374590396881104,-0.04640001058578491,0.1200624108314514,XArbitraryZVertical,0.06329025995513154,0.3111360943172571,-0.4674626316427641,0.8250256612348805,0.5725621581077576,0.1864568144083023,-0.7983773350715637
2020-08-20 22:49:46.798 +0200,13922.732947125,0.5069580078125,0.2070465087890625,-0.5831756591796875,13922.714151125,-0.9477357199617892,0.6165030721380629,-0.2025314178217723,-1.412372350692749,-0.5619960427284241,0.4565866887569427,-0.01567578315734863,-0.02352280914783478,0.1816772222518921,XArbitraryZVertical,0.05202508632944877,0.3125365093981486,-0.4598860125603056,0.8295295083549991,0.5663677453994751,0.2011496424674988,-0.7992286682128906
2020-08-20 22:49:46.818 +0200,13922.752985125,0.494110107421875,0.23492431640625,-0.5751800537109375,13922.734189125,-0.9221653238365806,0.6100405426475576,-0.221551482749451,-1.57392406463623,-0.6082519292831421,0.4886127412319183,-0.03383827209472656,-0.008082389831542969,0.22151780128479,XArbitraryZVertical,0.03836064753799458,0.314217808737026,-0.4515121474084145,0.8342255850739776,0.5588976740837097,0.2197434455156326,-0.7995912432670593
2020-08-20 22:49:46.838 +0200,13922.773023125,0.478302001953125,0.2720489501953125,-0.5753936767578125,13922.754227125,-0.8943813292237835,0.6041468625550586,-0.2427001328669267,-1.684114933013916,-0.6047554612159729,0.5323862433433533,-0.03835922479629517,0.0002472102642059326,0.229576051235199,XArbitraryZVertical,0.02349650381528214,0.3162502129580422,-0.4422900041789526,0.8389358266103473,0.5514118075370789,0.2403244972229004,-0.798867404460907
2020-08-20 22:49:46.858 +0200,13922.793061125,0.4673614501953125,0.30889892578125,-0.58660888671875,13922.774265125,-0.8651706031780461,0.5998948614567122,-0.2641729270269302,-1.660841345787048,-0.5293451547622681,0.5852144360542297,-0.04851448535919189,0.01724335551261902,0.2283923625946045,XArbitraryZVertical,0.008555448344142203,0.3186632899044773,-0.4323430090993524,0.8434809010577782,0.5449705719947815,0.2611109912395477,-0.7967610359191895
2020-08-20 22:49:46.878 +0200,13922.813098125,0.46795654296875,0.331787109375,-0.60577392578125,13922.794303125,-0.8355575240077368,0.5987263503168209,-0.283369824212479,-1.504064679145813,-0.3808374404907227,0.6826819777488708,-0.05544877052307129,0.03604239225387573,0.2143615484237671,XArbitraryZVertical,-0.004869904622272539,0.3215917902383953,-0.4218644407965204,0.8476941898014154,0.5411140918731689,0.2795926630496979,-0.7931100130081177
2020-08-20 22:49:46.899 +0200,13922.833136125,0.506103515625,0.4091644287109375,-0.6679840087890625,13922.814340125,-0.8064679771933424,0.6013807395202335,-0.2978469224250467,-1.227075934410095,-0.183760866522789,0.8036494255065918,-0.05599129199981689,0.04573869705200195,0.1915625333786011,XArbitraryZVertical,-0.01541726304106893,0.3250185544349791,-0.4110614134655478,0.8515596073892538,0.5408704876899719,0.2934626042842865,-0.7882505059242249
2020-08-20 22:49:46.918 +0200,13922.853174125,0.57763671875,0.516448974609375,-0.72637939453125,13922.834378125,-0.7793343113959303,0.6087785135016935,-0.3033396696833536,-0.6674038171768188,0.1191191077232361,1.014100432395935,-0.02585309743881226,0.1124548017978668,0.1257559061050415,XArbitraryZVertical,-0.02079065669275647,0.328817518852785,-0.400145361477768,0.8551786424532359,0.5457568764686584,0.2987090647220612,-0.7828935980796814
2020-08-20 22:49:46.938 +0200,13922.873212125,0.599700927734375,0.4910430908203125,-0.7403717041015625,13922.854416125,-0.7563633156374543,0.6196106854297901,-0.2952102749428807,0.05991916358470917,0.2523168623447418,1.259700536727905,0.03683006763458252,0.2293919920921326,0.06221747398376465,XArbitraryZVertical,-0.01882595611312781,0.3319668054558837,-0.3894986638311423,0.8589146998250756,0.5555969476699829,0.2909410297870636,-0.7788872718811035
2020-08-20 22:49:46.959 +0200,13922.893250125,0.5547637939453125,0.307098388671875,-0.7071685791015625,13922.874454125,-0.7372570233006079,0.6310504158361548,-0.274438127040363,0.5355847477912903,0.3288832604885101,1.397576093673706,0.05025655031204224,0.2365657687187195,0.04151993989944458,XArbitraryZVertical,-0.01053353832687147,0.3336053191884816,-0.3789242176731159,0.86314131548455,0.5679142475128174,0.2710061371326447,-0.7771930694580078
2020-08-20 22:49:46.978 +0200,13922.913288125,0.54974365234375,0.14312744140625,-0.6988983154296875,13922.894492125,-0.721591517406784,0.6423971424169066,-0.2492984194183345,0.4956871569156647,0.4528651237487793,1.28982150554657,-0.005150377750396729,0.08109095692634583,0.07311534881591797,XArbitraryZVertical,0.0002117232194400439,0.3347311462752209,-0.3690891461140911,0.8670225970483584,0.5805951952934265,0.2467241287231445,-0.7759100198745728
2020-08-20 22:49:46.999 +0200,13922.933326125,0.56732177734375,0.093994140625,-0.6975555419921875,13922.914530125,-0.7062761144452495,0.6569861067764441,-0.2313536440827456,-0.004051965195685625,0.6460114717483521,0.9197580218315125,-0.02610510587692261,-0.06943359971046448,0.07842731475830078,XArbitraryZVertical,0.008323385895002056,0.3384685312373593,-0.3601021374552864,0.8693079525020562,0.5944613218307495,0.2292953133583069,-0.7707395553588867
2020-08-20 22:49:47.019 +0200,13922.953364125,0.595550537109375,0.1857147216796875,-0.699310302734375,13922.934568125,-0.6909770389352363,0.6750088663957887,-0.2274926589251486,-0.6108462810516357,0.7996585369110107,0.4879857301712036,-0.02315241098403931,-0.1269527971744537,0.06974756717681885,XArbitraryZVertical,0.01064622484371743,0.3458227164874719,-0.3528489302975687,0.8693624131506128,0.6088035702705383,0.2255354970693588,-0.7605866193771362
2020-08-20 22:49:47.039 +0200,13922.973402125,0.6058349609375,0.2650146484375,-0.715972900390625,13922.954606125,-0.6748104456772367,0.6953208554957301,-0.2372316465867121,-1.077845692634583,0.8373981714248657,0.1432942748069763,-0.00918346643447876,-0.04649290442466736,0.0556749701499939,XArbitraryZVertical,0.007007535038706722,0.3560612681550129,-0.3470918589813585,0.8675820148852867,0.6226892471313477,0.2350127100944519,-0.7463425397872925
2020-08-20 22:49:47.059 +0200,13922.993440125,0.5956573486328125,0.3213043212890625,-0.715118408203125,13922.974644125,-0.6589045145798059,0.715441335741117,-0.2537835659414629,-1.120899200439453,0.7781247496604919,-0.01578652858734131,-0.008952677249908447,0.01765309274196625,0.02412629127502441,XArbitraryZVertical,0.0002029005678778179,0.3669965230392894,-0.342536058302702,0.8648598662222238,0.6349401473999023,0.251068115234375,-0.7306270003318787
2020-08-20 22:49:47.079 +0200,13923.013477125,0.5644378662109375,0.2994384765625,-0.6907806396484375,13922.994682125,-0.6451764843926577,0.7338753452269557,-0.2696087288058348,-0.9131626486778259,0.7012901306152344,-0.01533147040754557,-0.02754241228103638,0.06153205037117004,0.009113907814025879,XArbitraryZVertical,-0.006276112675715923,0.3769366600988081,-0.3389624407666301,0.8619650735709099,0.6455577611923218,0.2663543224334717,-0.715758740901947
2020-08-20 22:49:47.108 +0200,13923.033515125,0.5260009765625,0.239349365234375,-0.647308349609375,13923.014719125,-0.6338689163479856,0.7503483019971516,-0.2808335661266507,-0.6586948037147522,0.6558430194854736,0.06147398054599762,-0.0666535496711731,0.03508839011192322,0.01894104480743408,XArbitraryZVertical,-0.01065816798797597,0.3853415281359316,-0.335854015195189,0.8594186566104715,0.6551802158355713,0.27715665102005,-0.7027966380119324
2020-08-20 22:49:47.123 +0200,13923.053553125,0.490875244140625,0.1849517822265625,-0.592987060546875,13923.034757125,-0.62377739280002,0.7666098937430909,-0.2880252314856353,-0.5619144439697266,0.6927645802497864,0.1417077928781509,-0.1148625612258911,-0.03175610303878784,0.05048620700836182,XArbitraryZVertical,-0.01310696068572902,0.3931030745561693,-0.3327267990780722,0.8570828914526449,0.6651217937469482,0.2840593457221985,-0.690596342086792
2020-08-20 22:49:47.139 +0200,13923.073591125,0.4644927978515625,0.1346893310546875,-0.5271453857421875,13923.054795125,-0.6127249222538808,0.7845366795678712,-0.2937397702905811,-0.6136685609817505,0.7884543538093567,0.2032452374696732,-0.1610482335090637,-0.09181708097457886,0.09246832132339478,XArbitraryZVertical,-0.01487716143543951,0.4013444243497721,-0.3290241132694129,0.8546604310016955,0.6762365102767944,0.2895338237285614,-0.677402675151825
2020-08-20 22:49:47.159 +0200,13923.093629125,0.45672607421875,0.1051177978515625,-0.4616241455078125,13923.074833125,-0.5988513484864125,0.8060792803375013,-0.3011816546092909,-0.8668864369392395,0.9657436609268188,0.2046626061201096,-0.2015384435653687,-0.1502306163311005,0.1405723690986633,XArbitraryZVertical,-0.01747798851314095,0.4112301047540312,-0.3244885864775586,0.8516405365012218,0.6890976428985596,0.2966488897800446,-0.66116863489151
2020-08-20 22:49:47.179 +0200,13923.113667125,0.4761199951171875,0.1001434326171875,-0.397216796875,13923.094871125,-0.580410452468885,0.8328768776547283,-0.311939641681045,-1.16222608089447,1.168922543525696,0.2161730378866196,-0.2249972224235535,-0.1899857223033905,0.1856404542922974,XArbitraryZVertical,-0.02177813216374575,0.4235376390955002,-0.318724452101815,0.8476769981110504,0.7041637897491455,0.3069052398204803,-0.6402831673622131
2020-08-20 22:49:47.199 +0200,13923.133705125,0.4990386962890625,0.0721893310546875,-0.3300323486328125,13923.114909125,-0.5564148416313539,0.8661406575121748,-0.3253922235231045,-1.449843525886536,1.384762167930603,0.2781475484371185,-0.2243111133575439,-0.2088779509067535,0.2255016565322876,XArbitraryZVertical,-0.02764223229621598,0.4385725708358544,-0.311349292883832,0.8425863019634062,0.7218577265739441,0.3196804523468018,-0.6137800216674805
2020-08-20 22:49:47.219 +0200,13923.153743125,0.5436248779296875,0.036956787109375,-0.25946044921875,13923.134947125,-0.5251597116680452,0.9061733027837813,-0.3409710138032701,-1.816785931587219,1.59935200214386,0.397471696138382,-0.2213163375854492,-0.2480254173278809,0.2598112821578979,XArbitraryZVertical,-0.0353346383413916,0.4562056851202287,-0.3017207235107388,0.8364164256290034,0.7418334484100342,0.3344023525714874,-0.5812556743621826
2020-08-20 22:49:47.239 +0200,13923.173781125,0.629638671875,0.0429534912109375,-0.19268798828125,13923.154985125,-0.4847267037517639,0.9543658043319245,-0.357219759613618,-2.192441940307617,1.832345366477966,0.5744594931602478,-0.1999001502990723,-0.2995272874832153,0.2927742004394531,XArbitraryZVertical,-0.04473092095232702,0.4766379889162178,-0.2890079726820067,0.8290294235966974,0.7644386291503906,0.3496708571910858,-0.541630744934082
2020-08-20 22:49:47.259 +0200,13923.193819125,0.7484588623046875,0.085113525390625,-0.1282196044921875,13923.175023125,-0.4343862425389119,1.011216078282923,-0.3717673641177871,-2.506269693374634,2.03876781463623,0.8334655165672302,-0.1416199803352356,-0.3100084662437439,0.3146336674690247,XArbitraryZVertical,-0.05532015546341478,0.4996556518458493,-0.2726900148247673,0.8203195856806148,0.7895841002464294,0.3632626235485077,-0.4945678114891052
2020-08-20 22:49:47.279 +0200,13923.213857125,0.9082183837890625,0.1533966064453125,-0.09783935546875,13923.195061125,-0.3748954179487873,1.075495723224735,-0.3810453417746745,-2.706346750259399,2.185334920883179,1.154257416725159,-0.04992806911468506,-0.2776012420654297,0.3269804120063782,XArbitraryZVertical,-0.06607305601984394,0.524434227115983,-0.2524528651286236,0.8104755444387588,0.8167215585708618,0.371891051530838,-0.4412061870098114
2020-08-20 22:49:47.299 +0200,13923.233894125,1.123062133789062,0.2028350830078125,-0.0419464111328125,13923.215099125,-0.3106209553919073,1.143539017484232,-0.3807720664093098,-2.599924802780151,2.183727502822876,1.512524724006653,0.07802772521972656,-0.2116819024085999,0.3024688959121704,XArbitraryZVertical,-0.07503135745159006,0.549564739370393,-0.2289007357947198,0.7999708869859514,0.8449221253395081,0.3716373443603516,-0.3846977949142456
2020-08-20 22:49:47.319 +0200,13923.253932125,1.342254638671875,0.235015869140625,-0.0268707275390625,13923.235136125,-0.2448381292542181,1.210483769906137,-0.3693725480916396,-2.618387937545776,2.080681562423706,1.911176919937134,0.2660356163978577,-0.1482722163200378,0.3070392608642578,XArbitraryZVertical,-0.08159101506568099,0.5735408762718254,-0.2024150576363739,0.7895707087931225,0.8726716637611389,0.3610303699970245,-0.3287875354290009
2020-08-20 22:49:47.339 +0200,13923.273970125,1.599395751953125,0.301300048828125,-0.0225830078125,13923.255174125,-0.1778747140661213,1.273372038305516,-0.3463507242977749,-2.512385368347168,1.848416686058044,2.27193021774292,0.4572610855102539,-0.09554746747016907,0.2722758054733276,XArbitraryZVertical,-0.08598589702620327,0.5956327522089406,-0.1723893407400715,0.7798140829701249,0.8993195295333862,0.3394674956798553,-0.2756561040878296
2020-08-20 22:49:47.359 +0200,13923.294008125,1.737152099609375,0.407623291015625,-0.07659912109375,13923.275212125,-0.1150918525971126,1.330102359025285,-0.3100295367855777,-2.264158725738525,1.747045636177063,2.783813953399658,0.6919969320297241,-0.002130091190338135,0.2330654859542847,XArbitraryZVertical,-0.08622340880992552,0.6156781221126478,-0.1398335353209578,0.7706832178616146,0.9248717427253723,0.305086761713028,-0.2270119488239288
2020-08-20 22:49:47.379 +0200,13923.314046125,1.68243408203125,0.4881591796875,-0.1399993896484375,13923.295250125,-0.06022893077705585,1.378036763345061,-0.2626984114756571,-1.825336694717407,1.49519956111908,2.911695003509521,0.816028892993927,0.1501058042049408,0.1388975381851196,XArbitraryZVertical,-0.08206908785688788,0.6330613829029107,-0.106272258523834,0.7623674635344975,0.9478074908256531,0.2596873342990875,-0.1849959045648575
2020-08-20 22:49:47.399 +0200,13923.334084125,1.476486206054688,0.514190673828125,-0.1648101806640625,13923.315288125,-0.01807133022664953,1.416150989246921,-0.210806008160084,-1.308807611465454,1.35150146484375,2.908381938934326,0.7572691440582275,0.2814156711101532,0.04192948341369629,XArbitraryZVertical,-0.07407040265832153,0.647459377116818,-0.07524706397234018,0.7547501741208003,0.9661930203437805,0.2092481255531311,-0.1506198644638062
2020-08-20 22:49:47.419 +0200,13923.354122125,1.290374755859375,0.46514892578125,-0.11431884765625,13923.335326125,0.0107005108868871,1.448265923729719,-0.1582406547363604,-0.7556154727935791,1.32876980304718,2.623975992202759,0.5406549572944641,0.3621558547019958,-0.01700752973556519,XArbitraryZVertical,-0.0627376893509604,0.6600874897937066,-0.04836552024670294,0.7470002367153222,0.9801023602485657,0.157581090927124,-0.1206969767808914
2020-08-20 22:49:47.439 +0200,13923.374160125,1.149627685546875,0.3637847900390625,-0.033538818359375,13923.355364125,0.02578003480739756,1.476617752048313,-0.1122741698486056,-0.2537701725959778,1.283602595329285,2.07865834236145,0.3431715369224548,0.3616067469120026,0.003164708614349365,XArbitraryZVertical,-0.05015574114175975,0.6713871708027365,-0.02824114033081407,0.7388681704047469,0.9893003106117249,0.1120384410023689,-0.09344733506441116
2020-08-20 22:49:47.459 +0200,13923.394198125,1.07769775390625,0.2541351318359375,0.046905517578125,13923.375402125,0.0301458440916076,1.501899293554544,-0.07732680664344038,0.0742509663105011,1.18198037147522,1.41704523563385,0.1943828463554382,0.2960102558135986,0.06042593717575073,XArbitraryZVertical,-0.03853097173875635,0.6813200079960071,-0.01536148381694543,0.7308094347835721,0.9946463704109192,0.07724976539611816,-0.06863681972026825
2020-08-20 22:49:47.480 +0200,13923.414236125,1.06109619140625,0.1673583984375,0.0835723876953125,13923.395440125,0.02913947472199814,1.523644359854545,-0.05562105296943395,0.104737363755703,0.9757837653160095,0.747009813785553,0.1153261065483093,0.2070571333169937,0.1210922598838806,XArbitraryZVertical,-0.03017078413378157,0.6896078033777914,-0.008653544244122189,0.7235024913567885,0.9973437786102295,0.0555923767387867,-0.04706160351634026
2020-08-20 22:49:47.499 +0200,13923.434273125,1.064590454101562,0.134002685546875,0.090576171875,13923.415478125,0.02974845469694365,1.540632156455341,-0.04657978519983023,-0.1788059324026108,0.7126458883285522,0.1719654947519302,0.09393566846847534,0.1256299465894699,0.1446230411529541,XArbitraryZVertical,-0.02706623486042713,0.6958476680226556,-0.005543134502093865,0.7176577930095319,0.9984609484672546,0.04656294360756874,-0.03012688457965851
2020-08-20 22:49:47.519 +0200,13923.454311125,1.068023681640625,0.1391448974609375,0.079803466796875,13923.435515125,0.03896647834150437,1.552868530997605,-0.04735496235450952,-0.7791026830673218,0.4900524318218231,-0.1883725970983505,0.09814202785491943,0.08853426575660706,0.1407027840614319,XArbitraryZVertical,-0.0305351211254614,0.7000815925849951,-0.002692165073254214,0.7134046542378756,0.9987185001373291,0.04733726382255554,-0.01790674030780792
2020-08-20 22:49:47.539 +0200,13923.474349125,1.070297241210938,0.1720428466796875,0.0704193115234375,13923.455553125,0.06120096244896841,1.561977404397961,-0.05306024879966335,-1.421658396720886,0.3247151374816895,-0.3329156935214996,0.1014751195907593,0.08561471104621887,0.1206666231155396,XArbitraryZVertical,-0.0403623837382698,0.7028283429992402,0.003056173836103316,0.7102068885883901,0.9985537528991699,0.05303535610437393,-0.008806396275758743
2020-08-20 22:49:47.559 +0200,13923.494387125,1.067337036132812,0.20947265625,0.062042236328125,13923.475591125,0.09473458251092064,1.569548517338691,-0.06032330993835541,-1.903339505195618,0.251933366060257,-0.3540465235710144,0.1044150590896606,0.111038364470005,0.1046224236488342,XArbitraryZVertical,-0.05475874151239206,0.7045414895597534,0.0121997874231265,0.7074417906785453,0.9981802701950073,0.06028673052787781,-0.001245539402589202
2020-08-20 22:49:47.579 +0200,13923.514425125,1.0615234375,0.2499542236328125,0.0610504150390625,13923.495629125,0.1361662125675277,1.576497995991708,-0.06654279964960372,-2.19883918762207,0.1809467971324921,-0.2523414194583893,0.1027207970619202,0.1425995528697968,0.0894283652305603,XArbitraryZVertical,-0.07161568472399213,0.7054896906741456,0.02440655804893071,0.7046700252843037,0.9977706670761108,0.06649370491504669,0.005689019802957773
2020-08-20 22:49:47.608 +0200,13923.534463125,1.05712890625,0.2924041748046875,0.07159423828125,13923.515667125,0.1818538468953763,1.58311931936175,-0.06926776600078688,-2.310605525970459,0.1748124659061432,-0.05955436453223228,0.09618246555328369,0.1794891953468323,0.08036786317825317,XArbitraryZVertical,-0.08879524180989287,0.7058767384550456,0.03923780649031616,0.7016507590562596,0.9975261688232422,0.06921238452196121,0.01229313015937805
2020-08-20 22:49:47.626 +0200,13923.554501125,1.042205810546875,0.31695556640625,0.0853729248046875,13923.535705125,0.22782110175499,1.589439793075422,-0.06742289741084301,-2.255776882171631,0.1381761580705643,0.1790378987789154,0.09304231405258179,0.2249407917261124,0.08544999361038208,XArbitraryZVertical,-0.1045293397805383,0.7059558283783347,0.05567659480172243,0.6982836597459381,0.9975545406341553,0.06737183034420013,0.01860002987086773
2020-08-20 22:49:47.640 +0200,13923.57453929167,1.017898559570312,0.341156005859375,0.0953369140625,13923.555743125,0.2715078410818482,1.594342580271769,-0.06046917710139327,-2.091440200805664,0.07827820628881454,0.41364586353302,0.07772815227508545,0.2576412558555603,0.09448623657226562,XArbitraryZVertical,-0.117702060406771,0.7056179897242263,0.07309442567094618,0.694914836396929,0.9978955388069153,0.06043233349919319,0.02350104413926601
2020-08-20 22:49:47.660 +0200,13923.59457729167,1.00323486328125,0.3704376220703125,0.0945892333984375,13923.57578129167,0.3107626050449434,1.597618254969315,-0.04926674790858652,-1.843175649642944,0.03870576620101929,0.5959510803222656,0.05252480506896973,0.2914289832115173,0.1025229692459106,XArbitraryZVertical,-0.1278281565511164,0.7050198927477126,0.09048344917275342,0.6916789235512691,0.9984274506568909,0.04924682155251503,0.02678617276251316
2020-08-20 22:49:47.680 +0200,13923.61461529167,0.9981536865234375,0.4056396484375,0.0779571533203125,13923.59581929167,0.3442881459294009,1.59959398980803,-0.03489010936672777,-1.526746988296509,0.01702044531702995,0.7398911118507385,0.03690207004547119,0.3341819047927856,0.09978866577148438,XArbitraryZVertical,-0.1348130186237646,0.7044242539530842,0.1070229466966589,0.688591323455917,0.99897700548172,0.03488302975893021,0.02877615951001644
2020-08-20 22:49:47.700 +0200,13923.63465329167,1.009597778320312,0.4364776611328125,0.0471343994140625,13923.61585729167,0.3705768626531342,1.600767685467791,-0.01823721956938341,-1.126001000404358,0.03519704937934875,0.8420750498771667,0.03046512603759766,0.3861782550811768,0.08333683013916016,XArbitraryZVertical,-0.1384439913698406,0.7041407574734645,0.1218665995801424,0.6856877147485051,0.9993847012519836,0.01823620870709419,0.02996188960969448
2020-08-20 22:49:47.720 +0200,13923.65469029167,1.015472412109375,0.4549560546875,0.0143585205078125,13923.63589529167,0.387612127462071,1.602332034567544,-0.0003283685570014339,-0.6153377294540405,0.1182541251182556,0.8835013508796692,0.04258841276168823,0.4352138638496399,0.05149972438812256,XArbitraryZVertical,-0.1384277305030646,0.7047006482340189,0.1339053973041917,0.6828646559061744,0.9995027780532837,0.0003283685655333102,0.0315304808318615
2020-08-20 22:49:47.740 +0200,13923.67472829167,1.031524658203125,0.4578094482421875,-0.01275634765625,13923.65593229167,0.3937405892281335,1.606232049661121,0.01736846981666482,-0.04899387434124947,0.2848582863807678,0.8528508543968201,0.04827743768692017,0.4717153906822205,0.01448452472686768,XArbitraryZVertical,-0.1348198837592289,0.7067779586729684,0.1419612849421257,0.6798055771250263,0.9992216229438782,-0.01736759580671787,0.03542296960949898
2020-08-20 22:49:47.760 +0200,13923.69476629167,1.05108642578125,0.442138671875,-0.027252197265625,13923.67597029167,0.3880422083007403,1.613990215503642,0.03331532891068453,0.5531721115112305,0.4746071696281433,0.7437270283699036,0.06448149681091309,0.4904670715332031,-0.02057099342346191,XArbitraryZVertical,-0.1279226283978091,0.7107841102494767,0.1451441171817378,0.676280264620731,0.9985129833221436,-0.03330916538834572,0.04315650090575218
2020-08-20 22:49:47.780 +0200,13923.71480429167,1.066482543945312,0.41241455078125,-0.0149078369140625,13923.69600829167,0.3706970573375049,1.625876631578257,0.04557219951624606,1.104606032371521,0.6335291862487793,0.5610342025756836,0.08464759588241577,0.4871351718902588,-0.04798710346221924,XArbitraryZVertical,-0.1184234524000301,0.7165706777172077,0.1429063171393705,0.6723690405644894,0.9974467754364014,-0.04555642604827881,0.05499530211091042
2020-08-20 22:49:47.800 +0200,13923.73484229167,1.080947875976562,0.3694000244140625,-0.0006561279296875,13923.71604629167,0.343364350603994,1.64117989919474,0.0528423714058695,1.540506720542908,0.7401629686355591,0.3252869546413422,0.1011483669281006,0.4651696383953094,-0.05135798454284668,XArbitraryZVertical,-0.107187289944312,0.7236190584249133,0.135478335944007,0.6682304829362227,0.9961317181587219,-0.05281778424978256,0.07022731006145477
2020-08-20 22:49:47.820 +0200,13923.75488029167,1.091033935546875,0.3264617919921875,0.01922607421875,13923.73608429167,0.3091722013773614,1.658021253824679,0.05422827755931421,1.8236323595047,0.7392221093177795,0.07790876179933548,0.1170885562896729,0.4247911870479584,-0.05382585525512695,XArbitraryZVertical,-0.09537774837208823,0.7310241034652154,0.123734984647047,0.664226254923473,0.9947339296340942,-0.05420170351862907,0.08698631078004837
2020-08-20 22:49:47.840 +0200,13923.77491829167,1.103302001953125,0.2741241455078125,0.034271240234375,13923.75612229167,0.2715447995699118,1.6737257660121,0.04967350344087026,1.919887065887451,0.6084166765213013,-0.168754056096077,0.1294249296188354,0.3780162334442139,-0.04800379276275635,XArbitraryZVertical,-0.08399597366491832,0.7377365407103761,0.1089034652165928,0.6609308069594046,0.9934805035591125,-0.0496530793607235,0.1026210561394691
2020-08-20 22:49:47.860 +0200,13923.79495629167,1.11407470703125,0.223419189453125,0.0496978759765625,13923.77616029167,0.2342318532596827,1.685378375813348,0.03973263287581077,1.857283353805542,0.3730246126651764,-0.4052721560001373,0.1415726542472839,0.3153826892375946,-0.04525554180145264,XArbitraryZVertical,-0.07407378046298438,0.7427204727401795,0.09246870834142931,0.659036338055828,0.9926585555076599,-0.03972217813134193,0.114241249859333
2020-08-20 22:49:47.880 +0200,13923.81499429167,1.122238159179688,0.1801300048828125,0.0639495849609375,13923.79619829167,0.2006438276739615,1.690960272039276,0.02519619770472599,1.620205521583557,0.06472085416316986,-0.631758451461792,0.1521275639533997,0.2512147426605225,-0.03388512134552002,XArbitraryZVertical,-0.06662305633365456,0.7453051957952272,0.07581328710775885,0.659040177586578,0.9924739599227905,-0.02519353106617928,0.1198369339108467
2020-08-20 22:49:47.900 +0200,13923.83503229167,1.121475219726562,0.1493072509765625,0.0699310302734375,13923.81623629167,0.1735684035479547,1.689240121688699,0.006966530339245981,1.270272970199585,-0.2886641025543213,-0.8424918651580811,0.1608182787895203,0.1892359554767609,-0.01897621154785156,XArbitraryZVertical,-0.0625041329369819,0.7451008853663197,0.06014808727842212,0.661286768532761,0.9929696917533875,-0.006966474000364542,0.1181641891598701
2020-08-20 22:49:47.920 +0200,13923.85506929167,1.108749389648438,0.129058837890625,0.0621795654296875,13923.83627429167,0.1547947952684515,1.680027373641084,-0.01406361491876331,0.8274140954017639,-0.6204239130020142,-1.020690679550171,0.159373939037323,0.1366303563117981,-0.00289452075958252,XArbitraryZVertical,-0.06225450750971203,0.7420417564136162,0.04638572791949309,0.6658429138665806,0.9939419031143188,0.0140631515532732,0.1090031862258911
2020-08-20 22:49:47.940 +0200,13923.87510729167,1.083526611328125,0.1194305419921875,0.0565948486328125,13923.85631129167,0.1448595435890978,1.664727530766747,-0.0371908026750719,0.3994103968143463,-0.8737637400627136,-1.170140266418457,0.147136926651001,0.09382853657007217,0.003935694694519043,XArbitraryZVertical,-0.0659910979144169,0.7365523168365274,0.03498867307190469,0.6722437499492173,0.9949032664299011,0.03718223050236702,0.09372828155755997
2020-08-20 22:49:47.960 +0200,13923.89514529167,1.063644409179688,0.118255615234375,0.054779052734375,13923.87634929167,0.1428025710102868,1.645383332988539,-0.06228252029463603,0.02060358040034771,-1.030820488929749,-1.305259227752686,0.1225966215133667,0.05995184555649757,0.01631617546081543,XArbitraryZVertical,-0.07339234465786075,0.729246358945339,0.02574192091971154,0.6798165800502997,0.9952860474586487,0.06224226206541061,0.07437337934970856
2020-08-20 22:49:47.980 +0200,13923.91518329167,1.043624877929688,0.12261962890625,0.0522308349609375,13923.89638729167,0.1476167926888598,1.624361898794339,-0.08925761444704187,-0.3139481842517853,-1.096747279167175,-1.409033536911011,0.1027922630310059,0.0315762460231781,0.03515517711639404,XArbitraryZVertical,-0.0840745944060602,0.7208292980450575,0.0183852692581807,0.6877489321375623,0.9945906400680542,0.08913914114236832,0.05332683026790619
2020-08-20 22:49:48.001 +0200,13923.93522129167,1.013931274414062,0.1356964111328125,0.051300048828125,13923.91642529167,0.1578662713624245,1.603022567869183,-0.1175879752924024,-0.5756463408470154,-1.126889228820801,-1.459392070770264,0.08452111482620239,0.009239435195922852,0.05321460962295532,XArbitraryZVertical,-0.09729701354136171,0.711710878431485,0.01267352402856925,0.6955863665728302,0.9925789833068848,0.1173171848058701,0.0319981649518013
2020-08-20 22:49:48.020 +0200,13923.95525929167,0.9781646728515625,0.1531219482421875,0.046356201171875,13923.93646329167,0.1721178055600589,1.582416701579472,-0.1465010430045487,-0.7590817213058472,-1.109012246131897,-1.453055739402771,0.05862569808959961,-0.006087303161621094,0.07215255498886108,XArbitraryZVertical,-0.1122236058553311,0.7022490167441114,0.008404755316279672,0.7029805289259259,0.9892212152481079,0.1459775567054749,0.01149563863873482
2020-08-20 22:49:48.040 +0200,13923.97529729167,0.959320068359375,0.1683807373046875,0.0369110107421875,13923.95650129167,0.1890030399836052,1.56363193447786,-0.1751373183603864,-0.8865580558776855,-1.027377247810364,-1.394155144691467,0.02687424421310425,-0.01622572541236877,0.08642482757568359,XArbitraryZVertical,-0.1280145557452516,0.6928815956566969,0.005360842814334874,0.7095764015830005,0.9846773743629456,0.1742433607578278,-0.007054735906422138
2020-08-20 22:49:48.060 +0200,13923.99533529167,0.951873779296875,0.1916961669921875,0.028076171875,13923.97653929167,0.2068730429209717,1.547634835306845,-0.2022111066014763,-0.8854482769966125,-0.9049429893493652,-1.275280237197876,0.01269960403442383,-0.02671343088150024,0.092487633228302,XArbitraryZVertical,-0.1435979567696533,0.6841314589271221,0.003311405027782208,0.7150754522857181,0.9793622493743896,0.2008358687162399,-0.02268754690885544
2020-08-20 22:49:48.080 +0200,13924.01537329167,0.9495086669921875,0.2071990966796875,0.0277862548828125,13923.99657729167,0.222863976649534,1.534091201286781,-0.2266395422357263,-0.7268827557563782,-0.786530077457428,-1.108828186988831,0.01003819704055786,-0.0272715836763382,0.09509474039077759,XArbitraryZVertical,-0.1575868723592102,0.6762301098506948,0.001557354030028619,0.719636520598303,0.9737706184387207,0.2247042804956436,-0.03575843200087547
2020-08-20 22:49:48.101 +0200,13924.03541129167,0.9517822265625,0.21453857421875,0.0322418212890625,13924.01661529167,0.2341546107538248,1.522400793129382,-0.2473786506350431,-0.4396353662014008,-0.6528888940811157,-0.9043602347373962,0.01275616884231567,-0.03058815002441406,0.1048414707183838,XArbitraryZVertical,-0.1686714060334374,0.6694012138058038,-0.000594472891414055,0.7234995491444194,0.9684224128723145,0.2448632568120956,-0.04690394178032875
2020-08-20 22:49:48.120 +0200,13924.05544829167,0.957794189453125,0.21875,0.0371856689453125,13924.03665329167,0.2387350977691287,1.511467029994014,-0.2635123150618458,-0.08486106246709824,-0.5549535751342773,-0.6777981519699097,0.01924484968185425,-0.03768166899681091,0.1196720600128174,XArbitraryZVertical,-0.1758932966017291,0.6636547975821432,-0.003544354502759505,0.7270566146446298,0.9637823700904846,0.260473221540451,-0.05724771693348885
2020-08-20 22:49:48.141 +0200,13924.07548629167,0.95941162109375,0.222259521484375,0.0411376953125,13924.05669029167,0.2358689460888899,1.500411960825797,-0.2743219135850036,0.2889123857021332,-0.4773653149604797,-0.4171836674213409,0.02872878313064575,-0.04243987798690796,0.135153591632843,XArbitraryZVertical,-0.1787975685775856,0.6589256985082048,-0.007307883993451737,0.7306127372811247,0.9602257609367371,0.2708942592144012,-0.0676967054605484
2020-08-20 22:49:48.161 +0200,13924.09552429167,0.95709228515625,0.214813232421875,0.04302978515625,13924.07672829167,0.2256125212589854,1.488734645569237,-0.2794155868553688,0.6493484973907471,-0.406851202249527,-0.1685201078653336,0.03260868787765503,-0.04444959759712219,0.1500688791275024,XArbitraryZVertical,-0.177294412347023,0.6551117571340989,-0.01175737338084705,0.7343411375899904,0.9579820036888123,0.2757939398288727,-0.07879055291414261
2020-08-20 22:49:48.181 +0200,13924.11556229167,0.94866943359375,0.197662353515625,0.0445404052734375,13924.09676629167,0.2092294440030876,1.476862870849702,-0.2791240992411677,0.8965211510658264,-0.3260868489742279,0.05438586324453354,0.03165537118911743,-0.04970213770866394,0.1624638438224792,XArbitraryZVertical,-0.1719198797197508,0.6521970094716171,-0.01665327840930268,0.7381092783875753,0.9570592641830444,0.275513768196106,-0.09016523510217667
2020-08-20 22:49:48.200 +0200,13924.13560029167,0.9519805908203125,0.1923370361328125,0.0436248779296875,13924.11680429167,0.1893204931539487,1.465850862716847,-0.2743344317897765,1.030900120735168,-0.2251690179109573,0.2170999497175217,0.02289855480194092,-0.06418007612228394,0.1751844882965088,XArbitraryZVertical,-0.1638147283242734,0.6501898556497884,-0.0214856252868087,0.74159035796088,0.9573097229003906,0.2709063291549683,-0.100835770368576
2020-08-20 22:49:48.221 +0200,13924.15563829167,0.962188720703125,0.1903228759765625,0.0415496826171875,13924.13684229167,0.168124554254661,1.4568102639701,-0.2664465219092362,1.067229628562927,-0.1172936856746674,0.3383305668830872,0.02403610944747925,-0.0630047619342804,0.1824591159820557,XArbitraryZVertical,-0.1541697476800898,0.6491292452105677,-0.02600845042171875,0.7444370019676901,0.9584522247314453,0.2633050084114075,-0.1097258254885674
2020-08-20 22:49:48.241 +0200,13924.17567629167,0.9703826904296875,0.1876373291015625,0.0386199951171875,13924.15688029167,0.1486770477438859,1.455766593570148,-0.2551947376009611,1.025176286697388,-0.06850750744342804,0.4194601774215698,0.03083425760269165,-0.0536758154630661,0.1807892918586731,XArbitraryZVertical,-0.1437510210098599,0.6510039044152148,-0.02942726673481319,0.7447575387414489,0.9612197279930115,0.2524338364601135,-0.1110591217875481
2020-08-20 22:49:48.261 +0200,13924.19571429167,0.9834747314453125,0.1868438720703125,0.039642333984375,13924.17691829167,0.1307781592538391,1.456308654851329,-0.2430644865625344,0.941631555557251,-0.02102813869714737,0.4803057610988617,0.03644591569900513,-0.04495595395565033,0.1783266663551331,XArbitraryZVertical,-0.1334598596755595,0.6532599868808322,-0.03209534666849646,0.7445869746702913,0.9642508625984192,0.2406781613826752,-0.1108797118067741
2020-08-20 22:49:48.281 +0200,13924.21575229167,0.99493408203125,0.1843719482421875,0.0399169921875,13924.19695629167,0.1149612779207889,1.458302488297556,-0.2303056560176944,0.825876772403717,-0.01008547469973564,0.5043870210647583,0.04669350385665894,-0.03347346186637878,0.1782404780387878,XArbitraryZVertical,-0.1235640737903239,0.6558090709835644,-0.03386491992485937,0.7439754569609943,0.9674427509307861,0.2282751202583313,-0.1092927604913712
2020-08-20 22:49:48.301 +0200,13924.23579029167,1.003662109375,0.1804351806640625,0.0579376220703125,13924.21699429167,0.1019182319721037,1.461002986117333,-0.2176834238668621,0.6740899085998535,-0.02480929344892502,0.50966876745224,0.05467039346694946,-0.02463226020336151,0.1751091480255127,XArbitraryZVertical,-0.1145909376919478,0.6583125476581062,-0.03467105024300245,0.7431631479588413,0.9705212712287903,0.2159682959318161,-0.1069870144128799
2020-08-20 22:49:48.321 +0200,13924.25582729167,1.000991821289062,0.1732177734375,0.06390380859375,13924.23703229167,0.09229900309341629,1.464159160414876,-0.2059443589913587,0.4706687331199646,-0.06278117746114731,0.4829251170158386,0.06144958734512329,-0.0162891298532486,0.1906635761260986,XArbitraryZVertical,-0.1070454487694361,0.6606423086355404,-0.03450230424220892,0.74222814706392,0.9733080267906189,0.2044916599988937,-0.1041860207915306
2020-08-20 22:49:48.341 +0200,13924.27586529167,1.000839233398438,0.1766204833984375,0.0577392578125,13924.25706929167,0.08719609937324506,1.46722658679515,-0.195701187956551,0.2336689829826355,-0.1044700369238853,0.4342222809791565,0.05719453096389771,-0.01539655029773712,0.1944636106491089,XArbitraryZVertical,-0.1015371915416062,0.6625591130819858,-0.03313219012770807,0.7413555308452234,0.9756554365158081,0.1944543868303299,-0.1014112383127213
2020-08-20 22:49:48.361 +0200,13924.29590329167,1.00054931640625,0.181243896484375,0.036865234375,13924.27710729167,0.08672224836479081,1.470695064821467,-0.1874475357006957,-0.004430800210684538,-0.1148792654275894,0.3670385181903839,0.05369889736175537,-0.003985792398452759,0.1859999895095825,XArbitraryZVertical,-0.09829022542222557,0.6642644131934512,-0.03071774189389716,0.7403703955252778,0.9775649309158325,0.1863517463207245,-0.09818363934755325
2020-08-20 22:49:48.381 +0200,13924.31594129167,0.98931884765625,0.181610107421875,0.04010009765625,13924.29714529167,0.0905232279416614,1.475438692522237,-0.1812524566517756,-0.2110935598611832,-0.08096817135810852,0.2812222838401794,0.05410313606262207,0.005523458123207092,0.1612157225608826,XArbitraryZVertical,-0.09721122690220066,0.666125542352684,-0.02746466847482358,0.7389672184764818,0.979150116443634,0.1802616566419601,-0.09365347772836685
2020-08-20 22:49:48.401 +0200,13924.33597929167,0.9739227294921875,0.18133544921875,0.0334625244140625,13924.31718329167,0.0985977703039141,1.483457371329712,-0.1772131368395243,-0.4248689711093903,-0.05887085944414139,0.1973553895950317,0.04145199060440063,0.01100203394889832,0.1548056602478027,XArbitraryZVertical,-0.09832550045228772,0.6688805289347588,-0.02351753227457551,0.7364630969885581,0.9805868864059448,0.1762870401144028,-0.08586186915636063
2020-08-20 22:49:48.421 +0200,13924.35601729167,0.9815216064453125,0.1847381591796875,0.0135955810546875,13924.33722129167,0.1107981283623861,1.494663788119396,-0.174631930238106,-0.598385751247406,-0.02770494669675827,0.1326120346784592,0.02432125806808472,0.01309485733509064,0.1394095420837402,XArbitraryZVertical,-0.1013584444095635,0.6725142143659406,-0.01872098514968192,0.7328714512669992,0.9819378852844238,0.1737456768751144,-0.07490219175815582
2020-08-20 22:49:48.441 +0200,13924.37605529167,0.9773712158203125,0.1970062255859375,0.00616455078125,13924.35725929167,0.1258778696815029,1.507339060645006,-0.1734223211550292,-0.7131524085998535,0.005622914060950279,0.08868821710348129,0.0300976037979126,0.01710104942321777,0.1065456867218018,XArbitraryZVertical,-0.1059042102800428,0.6764263191061577,-0.01345505859406991,0.7287322543715027,0.9830174446105957,0.1725543439388275,-0.06246346607804298
2020-08-20 22:49:48.461 +0200,13924.39609329167,0.962615966796875,0.20428466796875,-0.000762939453125,13924.37729729167,0.142136454171185,1.518283813005548,-0.1730616943876293,-0.7574310302734375,0.009436029009521008,0.05880879983305931,0.02657955884933472,0.03055207431316376,0.08859705924987793,XArbitraryZVertical,-0.111227416390177,0.6795412434133151,-0.008015969601664685,0.7251123512607296,0.9837043285369873,0.1721991151571274,-0.05170432105660439
2020-08-20 22:49:48.481 +0200,13924.41613129167,0.9664154052734375,0.2047271728515625,-0.0128631591796875,13924.39733529167,0.1580428624079547,1.528032732487715,-0.1732131468389056,-0.7002841830253601,0.01504917349666357,0.04923040047287941,0.01145273447036743,0.03822019696235657,0.07281392812728882,XArbitraryZVertical,-0.1166699712346539,0.6821529848359963,-0.002869685247327459,0.7218359975348596,0.9841355681419373,0.1723483055830002,-0.04211084544658661
2020-08-20 22:49:48.501 +0200,13924.43616929167,0.9741668701171875,0.2056732177734375,-0.0225830078125,13924.41737329167,0.1720319637400891,1.536696948474712,-0.1734600170586485,-0.5844343900680542,0.009001933969557285,0.0420544371008873,0.01283949613571167,0.03693200647830963,0.05285674333572388,XArbitraryZVertical,-0.121534193467763,0.6844259355467449,0.00156735467578029,0.7188797698127767,0.9844208955764771,0.1725914627313614,-0.03358115628361702
2020-08-20 22:49:48.521 +0200,13924.45620729167,1.001785278320312,0.19384765625,-0.076202392578125,13924.43741129167,0.1831973531606814,1.544098807389474,-0.173664081059564,-0.4387227296829224,0.01181343290954828,0.04901651293039322,0.02041059732437134,0.03891950845718384,0.03751885890960693,XArbitraryZVertical,-0.1254449728838526,0.6863797411702465,0.005045444672228561,0.7163246388903178,0.9846072793006897,0.1727924644947052,-0.0262928195297718
2020-08-20 22:49:48.541 +0200,13924.47624429167,1.024795532226562,0.1869659423828125,-0.095306396484375,13924.45744929167,0.1910131586541408,1.550840380352536,-0.1742511294824247,-0.243070662021637,0.04436178877949715,0.06898988038301468,0.04690909385681152,0.02722108364105225,-0.02197664976119995,XArbitraryZVertical,-0.128358198069999,0.6882571844639502,0.007207295045383816,0.7139847867771019,0.9846605658531189,0.1733706593513489,-0.01965244114398956
2020-08-20 22:49:48.561 +0200,13924.49628229167,1.01251220703125,0.153961181640625,-0.125244140625,13924.47748629167,0.1942436040887258,1.556854950548973,-0.175567956706327,-0.04106657579541206,0.04162538796663284,0.07552173733711243,0.07182925939559937,0.01882526278495789,-0.04931676387786865,XArbitraryZVertical,-0.1299551600368137,0.6901074890739273,0.007508803977651806,0.7119038412528697,0.9845319390296936,0.1746673882007599,-0.01372662000358105
2020-08-20 22:49:48.581 +0200,13924.51632029167,0.999053955078125,0.1724090576171875,-0.112060546875,13924.49752429167,0.1931550346116879,1.560759552939771,-0.1769819314862882,0.2223228514194489,0.02145487442612648,0.1472587734460831,0.06280845403671265,-0.01454991102218628,-0.08256465196609497,XArbitraryZVertical,-0.1300871013868484,0.6914748233018265,0.006370902319747952,0.7105627308036472,0.9843299984931946,0.1760594546794891,-0.009879829362034798
2020-08-20 22:49:48.608 +0200,13924.53635829167,1.011337280273438,0.0587005615234375,-0.115234375,13924.51756229167,0.1873586721061293,1.562340528858301,-0.1783102559858561,0.2714998424053192,-0.07833483815193176,0.1120133176445961,0.04591643810272217,0.004341870546340942,-0.0731930136680603,XArbitraryZVertical,-0.1285497230244179,0.6923251788329494,0.003742618156955787,0.7100330047987652,0.9841096997261047,0.1773668676614761,-0.008321630768477917
2020-08-20 22:49:48.627 +0200,13924.55639629167,1.0782470703125,0.04296875,-0.1623992919921875,13924.53760029167,0.1834174808675035,1.557365960711933,-0.1801541341156831,0.005866578780114651,-0.0729382112622261,0.03728848323225975,0.05805099010467529,-0.1089859455823898,-0.06875032186508179,XArbitraryZVertical,-0.1278245485503781,0.6906913770625666,0.002012170428889591,0.7117599661745116,0.9837273359298706,0.1791812181472778,-0.01321261283010244
2020-08-20 22:49:48.642 +0200,13924.57643441667,1.1212158203125,0.061676025390625,-0.1899261474609375,13924.55763829167,0.1845815594240603,1.550788276001888,-0.1804783792619264,-0.1963174194097519,-0.1138137355446815,-0.04126563668251038,0.1226344108581543,-0.1332356780767441,-0.1089079976081848,XArbitraryZVertical,-0.1283317408538575,0.6882514670295603,0.002734639470695754,0.7140261691221848,0.9835609793663025,0.1795002073049545,-0.01968176476657391
2020-08-20 22:49:48.661 +0200,13924.59647241667,1.135589599609375,0.04541015625,-0.2169189453125,13924.57767641667,0.188408160118591,1.544077180751951,-0.1804692995596628,-0.2272927761077881,-0.1430837363004684,-0.08604010939598083,0.1687568426132202,-0.1112543791532516,-0.1298194527626038,XArbitraryZVertical,-0.1296306490296434,0.6856054633446863,0.004538964574191347,0.7163242270092887,0.9834083914756775,0.1794912666082382,-0.02628208696842194
2020-08-20 22:49:48.682 +0200,13924.61651041667,1.114883422851562,0.0213165283203125,-0.24664306640625,13924.59771441667,0.1915976266147018,1.536891941683454,-0.1811508882257195,-0.1825573891401291,-0.142015814781189,-0.08127586543560028,0.1838225722312927,-0.1278790980577469,-0.1507886052131653,XArbitraryZVertical,-0.1309434496632801,0.6827753687301722,0.005913983037791093,0.7187743759395396,0.9830716848373413,0.1801617443561554,-0.03334321826696396
2020-08-20 22:49:48.701 +0200,13924.63654841667,1.094879150390625,0.006988525390625,-0.2900543212890625,13924.61775241667,0.1953360468943109,1.534949608687441,-0.1827407704924603,-0.1898176968097687,-0.1031184792518616,-0.06841690093278885,0.1657326817512512,-0.1525396704673767,-0.1784460544586182,XArbitraryZVertical,-0.1327744774733717,0.6817255965262571,0.006833810480046336,0.7194264970235404,0.9827176332473755,0.1817253828048706,-0.03524229675531387
2020-08-20 22:49:48.721 +0200,13924.65658641667,1.043655395507812,-0.001800537109375,-0.3132476806640625,13924.63779041667,0.1988903153420654,1.533379236927233,-0.1839478561379993,-0.156652957201004,-0.1588472574949265,-0.0184590108692646,0.1449427604675293,-0.1691757887601852,-0.2189379334449768,XArbitraryZVertical,-0.134406279345696,0.6808423637551249,0.007798677836451287,0.7199499272199139,0.9824411869049072,0.1829122453927994,-0.03677725419402122
2020-08-20 22:49:48.741 +0200,13924.67662441667,0.966064453125,-0.046112060546875,-0.2686614990234375,13924.65782841667,0.2014752676301055,1.528775074262679,-0.1836677122659859,-0.0930020809173584,-0.3373775780200958,0.04231010004878044,0.09742945432662964,-0.1782018691301346,-0.2406824231147766,XArbitraryZVertical,-0.1351664218283778,0.679027894216118,0.009137574800976583,0.7215037228406728,0.9823125004768372,0.1826368123292923,-0.04130231589078903
2020-08-20 22:49:48.761 +0200,13924.69666141667,0.94281005859375,-0.1836090087890625,-0.27252197265625,13924.67786641667,0.2043786164043482,1.520459916338053,-0.1822804749387684,-0.3281796872615814,-0.616556704044342,0.07902485877275467,0.01982218027114868,-0.216905802488327,-0.190959095954895,XArbitraryZVertical,-0.1356149913201744,0.6759199523687415,0.01122910364815427,0.7243029894130714,0.9821873307228088,0.1812727302312851,-0.0494815856218338
2020-08-20 22:49:48.782 +0200,13924.71669941667,0.826873779296875,-0.0835723876953125,-0.2349395751953125,13924.69790341667,0.2247803306715978,1.50611732372636,-0.1832619746669661,-1.721816539764404,-1.080973148345947,-0.0687205046415329,-0.002246975898742676,-0.3536429703235626,-0.1778944730758667,XArbitraryZVertical,-0.1427164894765951,0.6692205987590349,0.01930257025682284,0.7289740816568073,0.9811985492706299,0.1822378933429718,-0.06355158984661102
2020-08-20 22:49:48.802 +0200,13924.73673741667,0.8347625732421875,0.10040283203125,-0.185791015625,13924.71794141667,0.2688930776071189,1.492863925190677,-0.1902510023509666,-2.537865161895752,-1.021910071372986,-0.2931686639785767,-0.1143393516540527,-0.2821172773838043,-0.1313572525978088,XArbitraryZVertical,-0.1597047682090867,0.66050736308961,0.03404437198739131,0.7328475341097354,0.9789764881134033,0.1891053766012192,-0.07644882053136826
2020-08-20 22:49:48.822 +0200,13924.75677541667,0.841552734375,0.112701416015625,-0.124420166015625,13924.73797941667,0.3222887380877473,1.484961620123865,-0.199998489929874,-2.702216386795044,-0.8630847334861755,-0.2070059031248093,-0.1133070588111877,-0.09857526421546936,-0.07447028160095215,XArbitraryZVertical,-0.1805427841313114,0.652222394323752,0.05100220799120653,0.7344447924773817,0.9764588475227356,0.1986678540706635,-0.08402050286531448
2020-08-20 22:49:48.842 +0200,13924.77681341667,0.80670166015625,0.10626220703125,-0.081939697265625,13924.75801741667,0.377773790681816,1.478567946604641,-0.2063732738599096,-2.72390604019165,-0.8521825671195984,0.02217961102724075,-0.09877246618270874,-0.08272039890289307,-0.008182168006896973,XArbitraryZVertical,-0.2005967794537627,0.643963679128137,0.06984641784725612,0.7349783969922206,0.9746206998825073,0.2049114853143692,-0.09014342725276947
2020-08-20 22:49:48.862 +0200,13924.79685141667,0.8306121826171875,0.1649322509765625,-0.072357177734375,13924.77805541667,0.4331167847140033,1.474735576035362,-0.2101723886272099,-2.701023578643799,-0.6456304788589478,0.1271334141492844,-0.1350893378257751,-0.0986156165599823,0.04032593965530396,XArbitraryZVertical,-0.2195013085885519,0.6363316077431249,0.08930127654606461,0.7341162337095144,0.9734862446784973,0.2086285054683685,-0.09380251914262772
2020-08-20 22:49:48.882 +0200,13924.81688941667,0.83978271484375,0.20867919921875,-0.0795440673828125,13924.79809341667,0.4869024440971412,1.475045691099615,-0.2105651658352934,-2.48883318901062,-0.4864386916160583,0.3401887118816376,-0.1136303544044495,-0.04100392758846283,0.04995971918106079,XArbitraryZVertical,-0.2366864904395196,0.6302643234156929,0.1088412458762903,0.7313685794321795,0.9734335541725159,0.2090126127004623,-0.0934927761554718
2020-08-20 22:49:48.902 +0200,13924.83692741667,0.833709716796875,0.2087860107421875,-0.067291259765625,13924.81813141667,0.5345330607422755,1.476600430759365,-0.2057645808444146,-2.064432144165039,-0.3302389681339264,0.592821478843689,-0.1019387245178223,0.01069061458110809,0.04237508773803711,XArbitraryZVertical,-0.250067281716422,0.6256437368335732,0.1276292498050423,0.7278372257680383,0.9745653867721558,0.2043156772851944,-0.09207253903150558
2020-08-20 22:49:48.922 +0200,13924.85696541667,0.8423309326171875,0.1984710693359375,-0.057220458984375,13924.83816941667,0.5730602182296434,1.479701027649506,-0.1948309204936858,-1.602136135101318,-0.1189736127853394,0.832134485244751,-0.1124240756034851,0.02275235950946808,0.05064404010772705,XArbitraryZVertical,-0.2585420630070689,0.6233232495835173,0.1448507177993962,0.7236313755532029,0.9770125150680542,0.1936006546020508,-0.08924825489521027
2020-08-20 22:49:48.942 +0200,13924.87700341667,0.860504150390625,0.219451904296875,-0.07025146484375,13924.85820741667,0.6030309805673475,1.484907772564041,-0.1787335657615003,-1.183946967124939,0.08362876623868942,1.020126700401306,-0.1070145964622498,0.02516360580921173,0.05712288618087769,XArbitraryZVertical,-0.2627703746717117,0.6234929930583437,0.1603178719039115,0.7186837498563612,0.9804421663284302,0.1777834594249725,-0.08441643416881561
2020-08-20 22:49:48.962 +0200,13924.89704141667,0.8924713134765625,0.240020751953125,-0.0926513671875,13924.87824541667,0.6244267178883131,1.492238265103821,-0.1581178586737564,-0.7400168180465698,0.2877805531024933,1.201047420501709,-0.09291607141494751,0.06580986082553864,0.03790140151977539,XArbitraryZVertical,-0.2630420917528375,0.6261467085860714,0.1738388986088905,0.7131123580459988,0.9844797849655151,0.1574598252773285,-0.07749831676483154
2020-08-20 22:49:48.982 +0200,13924.91707841667,0.9364471435546875,0.2472686767578125,-0.1169891357421875,13924.89828341667,0.6370679803394109,1.501798720786055,-0.1332786337002849,-0.3256326615810394,0.4794104397296906,1.36299455165863,-0.06723952293395996,0.1109974682331085,0.007455527782440186,XArbitraryZVertical,-0.2594370811731748,0.6312896901558614,0.185297539544626,0.7069869489784929,0.9887732267379761,0.1328844130039215,-0.06833145767450333
2020-08-20 22:49:49.002 +0200,13924.93711641667,0.984466552734375,0.243896484375,-0.14422607421875,13924.91832041667,0.6418597967359512,1.513862726221235,-0.1051371488770324,0.002495283260941505,0.6539160013198853,1.451557636260986,-0.02691942453384399,0.1458001732826233,-0.0285649299621582,XArbitraryZVertical,-0.2525644439578194,0.6386837070533915,0.1947582600976927,0.7002597256266048,0.9928669929504395,0.1049435585737228,-0.05658864974975586
2020-08-20 22:49:49.023 +0200,13924.95715441667,1.0274658203125,0.233673095703125,-0.173858642578125,13924.93835841667,0.6400169449536366,1.527664307822837,-0.0753476170100017,0.3320967555046082,0.7340891361236572,1.49230694770813,0.01933610439300537,0.170188307762146,-0.06967121362686157,XArbitraryZVertical,-0.2432552841265771,0.647555953138416,0.2022916656494574,0.6932360965315079,0.9962353706359863,0.07527634501457214,-0.04299630969762802
2020-08-20 22:49:49.042 +0200,13924.97719241667,1.0462646484375,0.21075439453125,-0.204345703125,13924.95839641667,0.632205010725342,1.541933532332398,-0.04538234184255208,0.543047308921814,0.7079285979270935,1.455266714096069,0.05855029821395874,0.1911489069461823,-0.1102961897850037,XArbitraryZVertical,-0.2320309341759634,0.6570746603451605,0.2078790900606476,0.6864406499229956,0.9985542893409729,0.04536676406860352,-0.02882907353341579
2020-08-20 22:49:49.062 +0200,13924.99723041667,1.038284301757812,0.1991424560546875,-0.22430419921875,13924.97843441667,0.6235056307317647,1.555004926665959,-0.01709380427564589,0.3284684717655182,0.7009431123733521,1.322950482368469,0.07943207025527954,0.1966869533061981,-0.1546677947044373,XArbitraryZVertical,-0.2209593632650898,0.6657948188008755,0.212880187189925,0.6801296371791677,0.999729335308075,0.01709297113120556,-0.01578843779861927
2020-08-20 22:49:49.083 +0200,13925.01726841667,1.05078125,0.2079315185546875,-0.2095794677734375,13924.99847241667,0.6186368597095638,1.570422316906197,0.007607999872750675,0.2101251780986786,0.8563881516456604,1.136918187141418,0.06976801156997681,0.2059241533279419,-0.1915709376335144,XArbitraryZVertical,-0.2126455049712813,0.6742365235204097,0.2178503977379152,0.6728509572688383,0.9999712109565735,-0.007607926614582539,-0.0003739991225302219
2020-08-20 22:49:49.107 +0200,13925.03730641667,1.058135986328125,0.1758575439453125,-0.2114410400390625,13925.01851041667,0.6146442307125548,1.588545762015296,0.02775272019980077,0.1738754361867905,0.91657555103302,0.8694595694541931,0.08193767070770264,0.2362163066864014,-0.1953827738761902,XArbitraryZVertical,-0.2065054279823919,0.6828076901129884,0.2214124827676061,0.6649102078672934,0.9994573593139648,-0.02774915844202042,0.01774166710674763
2020-08-20 22:49:49.122 +0200,13925.05734441667,1.06671142578125,0.150146484375,-0.215545654296875,13925.03854841667,0.6113898223729478,1.606857385573313,0.04234628751056508,0.1023584976792336,0.8953309655189514,0.5940935611724854,0.09195709228515625,0.2192615270614624,-0.2134362459182739,XArbitraryZVertical,-0.2025449087436342,0.6906417458917563,0.2234213005026989,0.6573221787067428,0.9984539747238159,-0.04233363270759583,0.0360209234058857
2020-08-20 22:49:49.143 +0200,13925.07738241667,1.096954345703125,0.1236724853515625,-0.2181854248046875,13925.05858641667,0.6098647164325619,1.62410650956216,0.05124899232159107,0.004027399700134993,0.8098943829536438,0.3004431426525116,0.1014508605003357,0.2013161778450012,-0.2342696189880371,XArbitraryZVertical,-0.2009900628034399,0.6972879484359418,0.2242283743144369,0.6504722701139617,0.9972683191299438,-0.05122656002640724,0.05321497842669487
2020-08-20 22:49:49.163 +0200,13925.09742041667,1.131683349609375,0.0995941162109375,-0.22491455078125,13925.07862441667,0.6110052355811769,1.638231418353674,0.05457089807590829,-0.143056720495224,0.5861231088638306,0.03124371543526649,0.1302453875541687,0.1788607239723206,-0.2508279085159302,XArbitraryZVertical,-0.2018778962461901,0.7020592251990684,0.2243191768506602,0.6450108776850172,0.9962418675422668,-0.05454381555318832,0.06728368252515793
2020-08-20 22:49:49.182 +0200,13925.11745741667,1.133148193359375,0.1053619384765625,-0.2425079345703125,13925.09866241667,0.6149853646069294,1.647018454580492,0.05336806754134425,-0.2238712757825851,0.3063284158706665,-0.1621880382299423,0.1662994027137756,0.1513466238975525,-0.2662734985351562,XArbitraryZVertical,-0.204656891140749,0.7043688820023795,0.2242901045362047,0.6416182741823911,0.9956769347190857,-0.05334273725748062,0.07603993266820908
2020-08-20 22:49:49.203 +0200,13925.13749541667,1.068801879882812,0.08489990234375,-0.2391204833984375,13925.11869941667,0.6194494277640145,1.649919146085298,0.04941601436037905,-0.1711773127317429,0.006451955996453762,-0.2602181136608124,0.171875536441803,0.1529444754123688,-0.2860965728759766,XArbitraryZVertical,-0.2078437365886474,0.7044663850618764,0.2240509066562768,0.6405696028242668,0.9956546425819397,-0.04939590394496918,0.07894381135702133
2020-08-20 22:49:49.222 +0200,13925.15753341667,1.021194458007812,0.06304931640625,-0.2189788818359375,13925.13873741667,0.6234449226586543,1.647788536376809,0.04363407687644774,-0.2270898371934891,-0.1676758974790573,-0.3553604781627655,0.1088640689849854,0.1288774609565735,-0.2818055152893066,XArbitraryZVertical,-0.2108945386063777,0.7028121878316277,0.22354835141887,0.6415642186487784,0.9960885643959045,-0.04362023249268532,0.07684295624494553
2020-08-20 22:49:49.242 +0200,13925.17757141667,1.031936645507812,0.0978546142578125,-0.197235107421875,13925.15877541667,0.6296368839764876,1.644178964712837,0.03558673675052094,-0.3040770292282104,-0.1511509865522385,-0.4945215582847595,0.05800145864486694,0.09691169857978821,-0.2595956325531006,XArbitraryZVertical,-0.2152838736619901,0.7002057118757311,0.2231323193625009,0.6430993143495642,0.9966772198677063,-0.03557922691106796,0.07327037304639816
2020-08-20 22:49:49.262 +0200,13925.19760941667,1.034698486328125,0.0959930419921875,-0.16802978515625,13925.17881341667,0.6367532671440205,1.641283956136882,0.02500632952311613,-0.3232834935188293,-0.1363270282745361,-0.594849169254303,0.06638681888580322,0.1201106905937195,-0.2353103160858154,XArbitraryZVertical,-0.2208907493555259,0.6974316480972439,0.2220759653772229,0.6445763130484568,0.9972048997879028,-0.02500372380018234,0.07040725648403168
2020-08-20 22:49:49.282 +0200,13925.21764741667,1.033279418945312,0.0921630859375,-0.1365203857421875,13925.19885141667,0.6454188411049654,1.63781825499497,0.01280484549994457,-0.4885880351066589,-0.2136612385511398,-0.6800188422203064,0.06979405879974365,0.1097561419010162,-0.2011888027191162,XArbitraryZVertical,-0.2274854943485554,0.6940702304384735,0.2210410664439395,0.6462643983253673,0.9976730346679688,-0.01280449517071247,0.06696627289056778
2020-08-20 22:49:49.302 +0200,13925.23768541667,1.00885009765625,0.1284942626953125,-0.108123779296875,13925.21888941667,0.6586271009536003,1.632330261762377,-0.0006428124375988826,-0.7463412284851074,-0.3399054706096649,-0.7340819835662842,0.0687025785446167,0.0894811749458313,-0.165514349937439,XArbitraryZVertical,-0.2358083297394992,0.6893054365163999,0.2213094773047916,0.6482859711713301,0.9981073141098022,0.0006428124033845961,0.0614951066672802
2020-08-20 22:49:49.323 +0200,13925.25772341667,0.978118896484375,0.1659393310546875,-0.07879638671875,13925.23892741667,0.6753465650635225,1.624546986050232,-0.01467629164128836,-0.7842568159103394,-0.4483821392059326,-0.7514714002609253,0.04438608884811401,0.1122948825359344,-0.1297764778137207,XArbitraryZVertical,-0.2452257145711089,0.6831719011759642,0.2228479470262375,0.6507528719576934,0.9984482526779175,0.01467576436698437,0.05371899530291557
2020-08-20 22:49:49.343 +0200,13925.27776141667,0.9619293212890625,0.1485137939453125,-0.0548095703125,13925.25896541667,0.6900089783809786,1.615272075060843,-0.02883403252205826,-0.6084989905357361,-0.5198176503181458,-0.7236378192901611,0.01375603675842285,0.1359372437000275,-0.09173250198364258,XArbitraryZVertical,-0.2537548635217163,0.6766311945932625,0.2239388427265967,0.6539343640145662,0.9985958933830261,0.02883003652095795,0.04444260895252228
2020-08-20 22:49:49.363 +0200,13925.29779941667,0.9986572265625,0.14971923828125,-0.021697998046875,13925.27900341667,0.7016629133468804,1.601709084876103,-0.04349701231672057,-0.4947282075881958,-0.5658610463142395,-0.6988494396209717,-0.004017472267150879,0.1076442003250122,-0.05381256341934204,XArbitraryZVertical,-0.2609019255206299,0.6688568497167735,0.2245138418890857,0.6589037987159592,0.998576819896698,0.04348329827189445,0.03087859973311424
2020-08-20 22:49:49.383 +0200,13925.31783741667,1.068206787109375,0.144134521484375,0.0065155029296875,13925.29904141667,0.711402217568876,1.584991948991801,-0.05845440324353294,-0.4520925879478455,-0.6064534783363342,-0.6657100319862366,0.02916187047958374,0.09320539236068726,-0.004610657691955566,XArbitraryZVertical,-0.2671163194362164,0.660101751352566,0.2248825523208718,0.66508825438862,0.9981914162635803,0.05842112004756927,0.01417090091854334
2020-08-20 22:49:49.403 +0200,13925.33787441667,1.141357421875,0.1782379150390625,-0.015411376953125,13925.31907941667,0.7198449790091427,1.567783643506205,-0.07368024725207431,-0.3761749267578125,-0.6876258254051208,-0.6095284223556519,0.09875178337097168,0.07244721055030823,0.04136645793914795,XArbitraryZVertical,-0.2729119501480374,0.6511657354388226,0.2249113602882785,0.6715036519655612,0.9972823262214661,0.07361359894275665,-0.003004504833370447
2020-08-20 22:49:49.423 +0200,13925.35791241667,1.15545654296875,0.2300872802734375,-0.02777099609375,13925.33911641667,0.7255207764589122,1.550653410844677,-0.08942356604801034,-0.1677913665771484,-0.7602744698524475,-0.5243511199951172,0.1740974187850952,0.08737018704414368,0.03772902488708496,XArbitraryZVertical,-0.277977943861324,0.6424155383885376,0.2239328862395022,0.6781479844110517,0.9958024024963379,0.08930443227291107,-0.0200610775500536
2020-08-20 22:49:49.443 +0200,13925.37795041667,1.10552978515625,0.262725830078125,-0.0517730712890625,13925.35915441667,0.7261731918725317,1.534309593425554,-0.1044773620620527,0.08897557854652405,-0.8731600046157837,-0.454792320728302,0.1949801445007324,0.1280329525470734,0.04071176052093506,XArbitraryZVertical,-0.2813158687821201,0.6346034338118246,0.221448654085575,0.6849090121646618,0.9938852787017822,0.1042873933911324,-0.03627972677350044
2020-08-20 22:49:49.463 +0200,13925.39798841667,1.036468505859375,0.2668609619140625,-0.0781707763671875,13925.37919241667,0.7218555127265232,1.517165887150545,-0.1145426948084748,0.300351470708847,-0.930589497089386,-0.3842686116695404,0.1511775255203247,0.1490679085254669,0.03198915719985962,XArbitraryZVertical,-0.2813947859559967,0.6278457129068356,0.2190564454337584,0.6918388533686251,0.9920188188552856,0.1142923906445503,-0.05325347185134888
2020-08-20 22:49:49.483 +0200,13925.41802641667,0.990509033203125,0.2454376220703125,-0.1040802001953125,13925.39923041667,0.7126844747488744,1.496685216544206,-0.1209241779995395,0.6016858816146851,-1.004358530044556,-0.3364347219467163,0.08145618438720703,0.1507025361061096,0.02713775634765625,XArbitraryZVertical,-0.2784305660057628,0.6210677301224656,0.2166432710656653,0.6998692398232882,0.9899725914001465,0.1206296905875206,-0.07350259274244308
2020-08-20 22:49:49.503 +0200,13925.43806441667,0.984375,0.1795806884765625,-0.1576385498046875,13925.41926841667,0.6973611900960827,1.474066856127515,-0.12730567859939,0.8447359204292297,-1.05385684967041,-0.42706099152565,0.03637152910232544,0.1267529726028442,0.02457082271575928,XArbitraryZVertical,-0.2734279838575175,0.6142788982304332,0.2122945405337498,0.7091048186420746,0.9872707724571228,0.1269620954990387,-0.09579714387655258
2020-08-20 22:49:49.523 +0200,13925.45810241667,0.9824676513671875,0.1270904541015625,-0.160797119140625,13925.43930641667,0.6771844089838861,1.450344774669245,-0.1353691582300456,1.018174171447754,-1.039621472358704,-0.6089465022087097,0.03306341171264648,0.0520622581243515,-0.008338332176208496,XArbitraryZVertical,-0.2675468809180259,0.6073615571637045,0.2057024832346863,0.7191780015320182,0.9836722612380981,0.134956106543541,-0.1190612092614174
2020-08-20 22:49:49.543 +0200,13925.47814041667,0.988372802734375,0.1129150390625,-0.144195556640625,13925.45934441667,0.6548547636985649,1.427532520243046,-0.1466277047960533,0.9859524965286255,-0.9479501247406006,-0.7826234102249146,0.03437173366546631,-0.0124954879283905,0.007798969745635986,XArbitraryZVertical,-0.2624133789556797,0.60043161107278,0.1970442277923502,0.7292425959993565,0.9791346788406372,0.1461028605699539,-0.141242191195488
2020-08-20 22:49:49.563 +0200,13925.49817841667,0.9952239990234375,0.139129638671875,-0.14697265625,13925.47938241667,0.6349383117940086,1.405508143792741,-0.1601664818842607,0.7388970255851746,-0.9364942312240601,-0.8305681943893433,0.04617738723754883,-0.04137206077575684,0.04502475261688232,XArbitraryZVertical,-0.2591041949979672,0.5930005808701629,0.1883169168891403,0.7387503742902501,0.9737461805343628,0.159482553601265,-0.1624306589365005
2020-08-20 22:49:49.583 +0200,13925.51821641667,0.989166259765625,0.171051025390625,-0.181854248046875,13925.49942041667,0.6190923845519564,1.384049665469629,-0.1737885750199774,0.5862091779708862,-0.9295186400413513,-0.7644621729850769,0.05849575996398926,-0.02907051146030426,0.06336414813995361,XArbitraryZVertical,-0.2572927265278219,0.5851215722539371,0.1809185639134802,0.7474634089467689,0.9678120017051697,0.1729150861501694,-0.1828663945198059
2020-08-20 22:49:49.607 +0200,13925.53825341667,0.9759063720703125,0.199371337890625,-0.204345703125,13925.51945841667,0.6049879350666717,1.363448034930775,-0.1852457117388907,0.5718515515327454,-0.8572292327880859,-0.6325023770332336,0.05916500091552734,-0.009949013590812683,0.04883968830108643,XArbitraryZVertical,-0.2554699703881092,0.5775494003269007,0.1746904584294114,0.7554171345055963,0.9618377685546875,0.1841880530118942,-0.2023435682058334
2020-08-20 22:49:49.623 +0200,13925.55829141667,0.968353271484375,0.2265625,-0.2021942138671875,13925.53949541667,0.5903943297788714,1.344772237356948,-0.1936960179984198,0.6382541060447693,-0.7368972301483154,-0.4872619211673737,0.04953062534332275,0.01218724250793457,0.04147243499755859,XArbitraryZVertical,-0.2527341862583516,0.5711117207600076,0.1689149588774896,0.7625120555379746,0.9563403129577637,0.1924871057271957,-0.21991366147995
2020-08-20 22:49:49.644 +0200,13925.57832929167,0.9537353515625,0.1957550048828125,-0.1837921142578125,13925.55953341667,0.5753475454430019,1.32787219739871,-0.1989263753760193,0.6599910855293274,-0.6679173707962036,-0.3764229714870453,0.04883050918579102,0.0351928323507309,0.05713248252868652,XArbitraryZVertical,-0.2489633947127703,0.5657897895575323,0.1636718128960671,0.7688372711932825,0.9514971375465393,0.1976169943809509,-0.2357982844114304
2020-08-20 22:49:49.663 +0200,13925.59836729167,0.949798583984375,0.1669158935546875,-0.1455841064453125,13925.57957129167,0.5613775857690781,1.311821828148744,-0.2026190624396365,0.55622798204422,-0.6697837114334106,-0.3363343775272369,0.03727817535400391,0.003691628575325012,0.08880239725112915,XArbitraryZVertical,-0.2450946961083819,0.5608059546695973,0.1591414874331276,0.7746607650892329,0.94687819480896,0.2012355029582977,-0.2508505284786224
2020-08-20 22:49:49.683 +0200,13925.61840529167,0.9328765869140625,0.168121337890625,-0.1524505615234375,13925.59960929167,0.5518366101555326,1.295665947195509,-0.2076589863502617,0.1777950674295425,-0.7566515207290649,-0.3897916972637177,0.0386892557144165,-0.03169193863868713,0.1420902013778687,XArbitraryZVertical,-0.2430338507772511,0.5549924390230697,0.1558857788667955,0.7801394806365305,0.9417140483856201,0.2061697542667389,-0.2658358812332153
2020-08-20 22:49:49.703 +0200,13925.63844329167,0.9095611572265625,0.204376220703125,-0.19415283203125,13925.61964729167,0.5505821732851356,1.279126771462962,-0.2157779105241684,-0.273586243391037,-0.8575664162635803,-0.4303668737411499,0.02906984090805054,-0.03992180526256561,0.1533542275428772,XArbitraryZVertical,-0.244439741223296,0.5475468348642195,0.1549858588696056,0.785124781499645,0.935554563999176,0.2141073644161224,-0.2808833420276642
2020-08-20 22:49:49.723 +0200,13925.65848129167,0.9177703857421875,0.24102783203125,-0.209014892578125,13925.63968529167,0.556916083897342,1.263301211368541,-0.2271453500875943,-0.6322008371353149,-0.8425856232643127,-0.4679973125457764,0.01178497076034546,-0.01558773219585419,0.1272266507148743,XArbitraryZVertical,-0.2492002409486894,0.538934582436286,0.1560680981633636,0.7893614204727255,0.9286127686500549,0.2251971215009689,-0.2948974967002869
2020-08-20 22:49:49.743 +0200,13925.67851929167,0.9351806640625,0.302490234375,-0.2252197265625,13925.65972329167,0.5694202054300488,1.249871325282477,-0.2410213436780412,-0.929792046546936,-0.7999215126037598,-0.4689963459968567,0.02475684881210327,0.007942557334899902,0.1196849942207336,XArbitraryZVertical,-0.2567081066262548,0.5300355825723307,0.1586389417195074,0.7924625858307843,0.9215145707130432,0.2386945784091949,-0.3063264489173889
2020-08-20 22:49:49.763 +0200,13925.69855729167,0.9208526611328125,0.3424072265625,-0.2375640869140625,13925.67976129167,0.5855709489977772,1.237887408877458,-0.2561325291177645,-0.9956585764884949,-0.8014642596244812,-0.457012414932251,0.0499611496925354,0.05300496518611908,0.1122669577598572,XArbitraryZVertical,-0.2656761229616532,0.5209125350464654,0.1622091236517906,0.7948299613851626,0.9142639636993408,0.2533411681652069,-0.316132664680481
2020-08-20 22:49:49.784 +0200,13925.71859529167,0.896514892578125,0.3380889892578125,-0.265625,13925.69979929167,0.6017912515598227,1.225249708790323,-0.271067069639066,-0.974769115447998,-0.8778578639030457,-0.4280127882957458,0.04463851451873779,0.08359384536743164,0.1141210198402405,XArbitraryZVertical,-0.2744379273570973,0.5113826314930917,0.1660486644740198,0.7972449462513109,0.9065345525741577,0.2677596807479858,-0.3263432681560516
