loggingTime(txt),accelerometerTimestamp_sinceReboot(s),accelerometerAccelerationX(G),accelerometerAccelerationY(G),accelerometerAccelerationZ(G),motionTimestamp_sinceReboot(s),motionYaw(rad),motionRoll(rad),motionPitch(rad),motionRotationRateX(rad/s),motionRotationRateY(rad/s),motionRotationRateZ(rad/s),motionUserAccelerationX(G),motionUserAccelerationY(G),motionUserAccelerationZ(G),motionAttitudeReferenceFrame(txt),motionQuaternionX(R),motionQuaternionY(R),motionQuaternionZ(R),motionQuaternionW(R),motionGravityX(G),motionGravityY(G),motionGravityZ(G)
2020-08-20 22:19:38.907 +0200,12171.3041575,0.1247100830078125,-0.245880126953125,-0.9730224609375,12171.2841205,-1.49406935123211,0.0969292967838041,0.3152218658112555,-0.1988109350204468,0.001068109646439552,0.06106628850102425,0.03900697082281113,0.005909860134124756,-0.00153803825378418,XArbitraryZVertical,-0.1475360215847042,0.07141887365235842,0.664677117654118,-0.7289285298924604,0.09200912714004517,-0.3100274205207825,-0.946264922618866
2020-08-20 22:19:38.919 +0200,12171.3241945,0.06121826171875,-0.3196258544921875,-0.9626312255859375,12171.3041575,-1.494314249086573,0.09579135987651723,0.3146386978463214,0.1868872344493866,-0.06306374073028564,-0.04682380706071854,0.04500821232795715,0.06862014532089233,-0.02921700477600098,XArbitraryZVertical,-0.1469394844687578,0.07165454202207842,0.6648913520207225,-0.7288304990365979,0.09094955027103424,-0.309472918510437,-0.9465488195419312
2020-08-20 22:19:38.929 +0200,12171.3442325,0.0945892333984375,-0.3277587890625,-0.950347900390625,12171.3241945,-1.495818108441545,0.09446456284560954,0.31952864974496,0.1408218741416931,-0.07705944776535034,-0.07966750860214233,-0.02196415513753891,-0.01031219959259033,-0.01648795604705811,XArbitraryZVertical,-0.1481996695612539,0.07390167752079933,0.6651906856500734,-0.7280774946727824,0.08954977989196777,-0.3141191005706787,-0.9451507925987244
2020-08-20 22:19:38.930 +0200,12171.3642695,0.128875732421875,-0.3290557861328125,-0.9534912109375,12171.3442325,-1.497673453784075,0.09323507423162519,0.3223371587350388,0.02018626220524311,-0.04122129082679749,-0.05322456359863281,-0.001241989433765411,-0.02130979299545288,-0.008142590522766113,XArbitraryZVertical,-0.1487288393251171,0.07543666684583818,0.6657568548455826,-0.7272942429277353,0.08830518275499344,-0.3167842030525208,-0.9443780779838562
2020-08-20 22:19:38.931 +0200,12171.3843065,0.05853271484375,-0.33416748046875,-0.9326934814453125,12171.3642695,-1.493650620256876,0.09305173885989365,0.3209799043635145,-0.05625804513692856,-0.02614673227071762,0.1525150090456009,0.06971846520900726,-0.03534448146820068,-0.009482920169830322,XArbitraryZVertical,-0.1483317598151395,0.07474588123601188,0.6644028678831899,-0.7286835062435573,0.08817191421985626,-0.315496563911438,-0.9448214769363403
2020-08-20 22:19:38.931 +0200,12171.4043435,0.104278564453125,-0.296661376953125,-0.9485626220703125,12171.3843065,-1.494175964659997,0.09243559842810847,0.3171295036434391,-0.1161496043205261,-0.05904050171375275,0.002846353687345982,-0.02806145697832108,-0.02483439445495605,0.00967937707901001,XArbitraryZVertical,-0.1467239339928096,0.07370870891928628,0.6649119228552365,-0.7286503537591569,0.0877012312412262,-0.3118405044078827,-0.9460782408714294
2020-08-20 22:19:38.932 +0200,12171.4243805,0.0815582275390625,-0.297332763671875,-0.94342041015625,12171.4043435,-1.491429248676474,0.09151501006828751,0.3150719065789509,-0.04712433367967606,0.02069880440831184,0.08252238482236862,0.0241023451089859,-0.006008267402648926,0.002806186676025391,XArbitraryZVertical,-0.1457788847379488,0.07314889303872131,0.6641220020490013,-0.7296161605940898,0.08688870072364807,-0.3098848462104797,-0.9467955231666565
2020-08-20 22:19:38.932 +0200,12171.4444185,0.081024169921875,-0.317535400390625,-0.9378814697265625,12171.4243805,-1.490876476966226,0.09069917647423203,0.3160598395087749,0.04422115907073021,-0.006294997408986092,0.02107188664376736,0.001653969287872314,0.009412974119186401,0.003890872001647949,XArbitraryZVertical,-0.1458839587308649,0.07373942984821091,0.6639108972635587,-0.7297278206176321,0.08608847111463547,-0.3108239769935608,-0.9465607404708862
2020-08-20 22:19:38.933 +0200,12171.4644555,0.0918731689453125,-0.3336334228515625,-0.934539794921875,12171.4444185,-1.490678494604516,0.09357408018766548,0.3187965151547592,0.07750694453716278,0.07919619977474213,0.05346022546291351,-0.008077137172222137,-0.009872287511825562,0.0103456974029541,XArbitraryZVertical,-0.1478302885875088,0.07359866175927361,0.6634353064582733,-0.7297829263192676,0.08872957527637482,-0.3134239315986633,-0.9454588890075684
2020-08-20 22:19:38.945 +0200,12171.4844925,0.076751708984375,-0.3008880615234375,-0.93792724609375,12171.4644555,-1.489558321338676,0.09353417980672507,0.3201710302759711,-0.004327735397964716,0.0587652251124382,0.03864600881934166,0.006952084600925446,-0.02935954928398132,0.01066499948501587,XArbitraryZVertical,-0.1483531164051546,0.07399357878278219,0.6629320744415129,-0.730094102178645,0.08865153044462204,-0.3147289156913757,-0.9450325965881348
2020-08-20 22:19:38.964 +0200,12171.5045295,0.0768585205078125,-0.2840118408203125,-0.951507568359375,12171.4844925,-1.488951374356568,0.09546189537697154,0.3203807334867664,-0.0330941341817379,0.06916087865829468,0.03557751700282097,-0.01078307628631592,-0.0003428161144256592,0.01154786348342896,XArbitraryZVertical,-0.1490897492159522,0.07331525230399373,0.6625522091693625,-0.7303573180048831,0.09046681970357895,-0.3149279356002808,-0.944794237613678
2020-08-20 22:19:38.983 +0200,12171.5245675,0.08551025390625,-0.2966156005859375,-0.9547882080078125,12171.5045295,-1.488255068505222,0.09681312994118471,0.3191926127737698,0.01982220821082592,0.07844945043325424,0.03077351674437523,-0.01361159235239029,0.01994168758392334,-0.003729343414306641,XArbitraryZVertical,-0.1491348346382538,0.07236958786304651,0.6622818635556114,-0.7306875255486394,0.09177948534488678,-0.3138000667095184,-0.9450429081916809
2020-08-20 22:19:39.003 +0200,12171.5446045,0.0772552490234375,-0.2936553955078125,-0.9515380859375,12171.5245675,-1.487504298535238,0.09724940958402851,0.3205568357127853,0.02648943290114403,0.07265467941761017,0.01986353471875191,-0.004342488944530487,0.01106494665145874,-0.007996678352355957,XArbitraryZVertical,-0.1497978214051522,0.07261343942995799,0.6618774255719406,-0.7308940986042033,0.09215012192726135,-0.315095067024231,-0.9445757865905762
2020-08-20 22:19:39.023 +0200,12171.5646415,0.0744476318359375,-0.28472900390625,-0.95263671875,12171.5446045,-1.487294566395823,0.09850439633751609,0.3218792561850153,-0.02255094796419144,0.04714612290263176,0.002660427242517471,-0.01147865504026413,0.01151794195175171,-0.006467461585998535,XArbitraryZVertical,-0.1506969607907313,0.07258418815124949,0.6616114938854613,-0.7309530104925124,0.0932944193482399,-0.3163498640060425,-0.9440439343452454
2020-08-20 22:19:39.043 +0200,12171.5846785,0.07861328125,-0.2800750732421875,-0.9581146240234375,12171.5646415,-1.487061000253174,0.09863798224090042,0.3221099046271841,-0.01958165504038334,0.03949832171201706,-0.004651129245758057,-0.01597317308187485,0.02097684144973755,-0.006427884101867676,XArbitraryZVertical,-0.150832699089471,0.07259540802038572,0.6614994329782163,-0.73102521535561,0.093413345515728,-0.3165686428546906,-0.9439588189125061
2020-08-20 22:19:39.064 +0200,12171.6047165,0.08154296875,-0.287750244140625,-0.9617919921875,12171.5846785,-1.4870952372774,0.09843675882907317,0.3209316096656876,-0.005361841060221195,0.02282214164733887,-0.02694623917341232,-0.0119946077466011,0.02558502554893494,-0.01186418533325195,XArbitraryZVertical,-0.1503404956621444,0.07227494659565341,0.661611936692705,-0.7310565430888627,0.09325999021530151,-0.3154507279396057,-0.944348156452179
2020-08-20 22:19:39.083 +0200,12171.6247535,0.081512451171875,-0.2962188720703125,-0.959259033203125,12171.6047165,-1.487527833932971,0.09832812795913956,0.3196207326942082,-0.01568052545189857,0.005340885370969772,-0.03242478147149086,-0.008791126310825348,0.0192827582359314,-0.01545417308807373,XArbitraryZVertical,-0.1498167829365317,0.07190581076743223,0.6618722879846141,-0.7309648250479769,0.09319791942834854,-0.3142065107822418,-0.9447689652442932
2020-08-20 22:19:39.103 +0200,12171.6447905,0.0847625732421875,-0.2967376708984375,-0.95611572265625,12171.6247535,-1.487922805542655,0.09762242305527058,0.3182551276412909,-0.03990144282579422,-0.004279783926904202,-0.03969596698880196,-0.008719466626644135,0.008031517267227173,-0.01274985074996948,XArbitraryZVertical,-0.1490771200632192,0.07173337669336181,0.6621669860957218,-0.7308661455388987,0.0925729051232338,-0.3129097819328308,-0.9452606439590454
2020-08-20 22:19:39.123 +0200,12171.6648275,0.08734130859375,-0.2920989990234375,-0.957916259765625,12171.6447905,-1.48849526582263,0.09679973142455038,0.3163587284864956,-0.04760343953967094,-0.01259230822324753,-0.05273697525262833,-0.006052866578102112,0.004240870475769043,-0.008260428905487061,XArbitraryZVertical,-0.1481010955908415,0.07143777638007841,0.6625721009526778,-0.7307262074656083,0.09185239672660828,-0.3111080527305603,-0.9459254145622253
2020-08-20 22:19:39.144 +0200,12171.68486425,0.0885009765625,-0.3014984130859375,-0.960784912109375,12171.6648275,-1.489360243997581,0.09618455175523828,0.314449149242266,-0.02215360477566719,-0.01561606116592884,-0.05986439436674118,-5.088746547698975e-06,0.007181227207183838,-0.009297668933868408,XArbitraryZVertical,-0.1471786150338636,0.07108285538681186,0.6630684218008543,-0.7304970352423694,0.09132735431194305,-0.3092926740646362,-0.9465713500976562
2020-08-20 22:19:39.164 +0200,12171.70490125,0.091339111328125,-0.3160858154296875,-0.958709716796875,12171.68486425,-1.490436269451831,0.09564483500173997,0.3131183743861713,0.009315372444689274,-0.01951919123530388,-0.05750776082277298,0.001352272927761078,-0.001247584819793701,-0.01189029216766357,XArbitraryZVertical,-0.146482212383597,0.0709102365627481,0.6635945371835728,-0.7301759930460813,0.09085568785667419,-0.3080268800258636,-0.9470294117927551
2020-08-20 22:19:39.183 +0200,12171.72493825,0.0962066650390625,-0.3141632080078125,-0.95794677734375,12171.70490125,-1.491341371830131,0.09476933336367237,0.3122883719108483,-0.009103848598897457,-0.01347354799509048,-0.04928746074438095,0.003978736698627472,-0.01664617657661438,-0.009736120700836182,XArbitraryZVertical,-0.1458607209431187,0.07101595626240007,0.6640470165642456,-0.7298786816802674,0.09005068987607956,-0.3072371184825897,-0.9473627805709839
2020-08-20 22:19:39.203 +0200,12171.74497525,0.1002349853515625,-0.2978668212890625,-0.9581146240234375,12171.72493825,-1.491957848863514,0.09370861999941529,0.3112678328988309,-0.0317578949034214,-0.0179913341999054,-0.04557455331087112,0.009654484689235687,-0.01957124471664429,-0.009082615375518799,XArbitraryZVertical,-0.1451192138993288,0.07110341428477585,0.6644202620005182,-0.7296783340674008,0.08907505124807358,-0.30626580119133,-0.9477694630622864
2020-08-20 22:19:39.224 +0200,12171.76501325,0.1055755615234375,-0.3031005859375,-0.9565582275390625,12171.74497525,-1.492810515772282,0.09377686142055736,0.309460973385267,-0.01382163725793362,-0.01551139913499355,-0.0447487086057663,0.01282237470149994,-0.002836525440216064,-0.007899940013885498,XArbitraryZVertical,-0.1444614640528364,0.07053019242451675,0.6648517587305918,-0.7294714041507466,0.08919139951467514,-0.3045452535152435,-0.9483127593994141
2020-08-20 22:19:39.244 +0200,12171.78505025,0.1136627197265625,-0.315582275390625,-0.9570159912109375,12171.76501325,-1.493820239809148,0.09449947522510992,0.3095809946646157,0.04144468158483505,-0.001101567409932613,-0.02961286343634129,0.01741068810224533,-0.005838572978973389,-0.00723499059677124,XArbitraryZVertical,-0.1447093386159117,0.07038022316155036,0.665159397628215,-0.7291562699466104,0.08987319469451904,-0.3046595752239227,-0.948211669921875
2020-08-20 22:19:39.264 +0200,12171.80508725,0.1145477294921875,-0.3126068115234375,-0.953094482421875,12171.78505025,-1.494515521192662,0.09489059470218016,0.3114053253932851,0.02539806813001633,0.0008438723161816597,-0.02029472775757313,0.0260746106505394,-0.01636213064193726,-0.006570875644683838,XArbitraryZVertical,-0.1454707808465413,0.0709046916317403,0.6652574358592194,-0.7288643306606696,0.09019123762845993,-0.3063966631889343,-0.9476215243339539
2020-08-20 22:19:39.284 +0200,12171.82512425,0.10699462890625,-0.296783447265625,-0.94866943359375,12171.80508725,-1.494958132614633,0.09525995924562766,0.3125762994518957,-0.01758681423962116,-0.01274836994707584,-0.0109142754226923,0.02680616825819016,-0.01668602228164673,-0.005302011966705322,XArbitraryZVertical,-0.1459987314600129,0.07119820051108265,0.6653098835068129,-0.7286823066703307,0.09050706028938293,-0.3075111210346222,-0.9472303986549377
2020-08-20 22:19:39.304 +0200,12171.84516125,0.1096649169921875,-0.2985992431640625,-0.943359375,12171.82512425,-1.495416210082808,0.09624711786631196,0.3122181059133142,-0.01247887220233679,-0.009892129339277744,-0.004581506829708815,0.01871816068887711,-0.0001096725463867188,0.001247882843017578,XArbitraryZVertical,-0.1461822060985313,0.0707509028895011,0.6654297904616021,-0.7285795915478045,0.09145265817642212,-0.3071702718734741,-0.9472501277923584
2020-08-20 22:19:39.324 +0200,12171.86519925,0.1143951416015625,-0.3061370849609375,-0.9421234130859375,12171.84516125,-1.495684594368164,0.09736402761257472,0.3122600616129882,0.02220680192112923,0.006288704462349415,0.01323268283158541,0.0189301073551178,-0.0009713172912597656,0.004767537117004395,XArbitraryZVertical,-0.1465594180907836,0.07037786005240175,0.6654428627629143,-0.7285280656110016,0.09250934422016144,-0.3072101771831512,-0.9471346139907837
2020-08-20 22:19:39.344 +0200,12171.88523625,0.1116943359375,-0.31103515625,-0.937042236328125,12171.86519925,-1.495757860042953,0.09858321372800165,0.3132748846013556,0.02174581028521061,0.006199754774570465,0.01623984612524509,0.02388336509466171,-0.005589753389358521,0.00566864013671875,XArbitraryZVertical,-0.1473268464742608,0.07028244382966865,0.6653083018935358,-0.7285053470534938,0.09363327920436859,-0.3081757724285126,-0.9467103481292725
2020-08-20 22:19:39.364 +0200,12171.90527325,0.1151885986328125,-0.30731201171875,-0.93280029296875,12171.88523625,-1.495569543438691,0.09968594570667107,0.3141244573171609,-0.01282255351543427,0.01049330364912748,0.03183280676603317,0.02050138264894485,-0.01094070076942444,0.01061004400253296,XArbitraryZVertical,-0.1480052307103899,0.07015423960111007,0.6650979754392565,-0.7285722378974797,0.09465109556913376,-0.3089838922023773,-0.9463456869125366
2020-08-20 22:19:39.384 +0200,12171.92531025,0.107452392578125,-0.2981719970703125,-0.928741455078125,12171.90527325,-1.494990291498527,0.100832702898508,0.3137863407830172,-0.03666862845420837,0.01199932117015123,0.0507260337471962,0.02369678765535355,-0.008856803178787231,0.01399236917495728,XArbitraryZVertical,-0.1482853478478103,0.06957914943627547,0.6648260647680153,-0.7288185901879571,0.09574677050113678,-0.3086622953414917,-0.9463403820991516
2020-08-20 22:19:39.407 +0200,12171.94534825,0.1086578369140625,-0.2957916259765625,-0.9332122802734375,12171.92531025,-1.494051061788338,0.1018613592909831,0.313059063651109,-0.03406232595443726,0.01227123010903597,0.06676358729600906,0.01440005004405975,0.0001468360424041748,0.01974314451217651,XArbitraryZVertical,-0.1483985231032336,0.06888864408155129,0.6644592856742643,-0.7291954480340402,0.09674298018217087,-0.3079704642295837,-0.946464478969574
2020-08-20 22:19:39.424 +0200,12171.96538525,0.1033477783203125,-0.299774169921875,-0.9359283447265625,12171.94534825,-1.492766910167912,0.1029956900410444,0.3130123088122169,-0.01620610058307648,0.02521685510873795,0.08550471067428589,0.01311411708593369,0.001782149076461792,0.01574385166168213,XArbitraryZVertical,-0.1488024843010554,0.06836370760806222,0.6639099925637448,-0.7296627964904295,0.09781800210475922,-0.3079259693622589,-0.9463684558868408
2020-08-20 22:19:39.444 +0200,12171.98542225,0.089874267578125,-0.2936553955078125,-0.937286376953125,12171.96538525,-1.491212445877365,0.1039908554952199,0.3134316142224822,-0.03655744343996048,0.02904115244746208,0.08727087825536728,0.008537113666534424,0.0001392066478729248,0.01416647434234619,XArbitraryZVertical,-0.1493364046088018,0.0680262449822681,0.6632384624434843,-0.7301958005086338,0.09874633699655533,-0.3083248734474182,-0.9461421370506287
2020-08-20 22:19:39.464 +0200,12172.00545925,0.096893310546875,-0.2915496826171875,-0.9378509521484375,12171.98542225,-1.489435850068534,0.1051298550670845,0.313336085719937,-0.05402884632349014,0.04086266085505486,0.0983513817191124,-0.006151504814624786,0.004613429307937622,0.01127767562866211,XArbitraryZVertical,-0.1497397219366814,0.06744516293175798,0.6625112503319027,-0.7308269246413975,0.09982702136039734,-0.3082340061664581,-0.9460583329200745
2020-08-20 22:19:39.484 +0200,12172.02549725,0.0985107421875,-0.2866363525390625,-0.9404296875,12172.00545925,-1.48761290433801,0.1065618583680046,0.313125804901131,-0.05019829049706459,0.05477660894393921,0.09841107577085495,-0.003152690827846527,0.006876051425933838,0.009552717208862305,XArbitraryZVertical,-0.1501992512494403,0.06671406497380444,0.6617525766942007,-0.7314868070299912,0.101188562810421,-0.3080339431762695,-0.9459788203239441
2020-08-20 22:19:39.504 +0200,12172.04553425,0.082977294921875,-0.2745208740234375,-0.950836181640625,12172.02549725,-1.485779754699892,0.1081200993524859,0.3123334674159819,-0.07902035117149353,0.04992193356156349,0.09461397677659988,-0.0005629807710647583,0.009258121252059937,0.008489251136779785,XArbitraryZVertical,-0.1504898072852014,0.06573919197907631,0.6610218107857527,-0.7321757126976272,0.1026888117194176,-0.307280033826828,-0.9460623264312744
2020-08-20 22:19:39.524 +0200,12172.06557125,0.090484619140625,-0.2886199951171875,-0.9610748291015625,12172.04553425,-1.483983448295636,0.1095577130364225,0.3115833847559147,-0.07607289403676987,0.06266968697309494,0.08930378407239914,-0.01691991835832596,0.02165818214416504,-0.00183945894241333,XArbitraryZVertical,-0.1507528886178586,0.06482491390623367,0.6603098132502616,-0.7328453613665125,0.1040739491581917,-0.3065661489963531,-0.9461426138877869
2020-08-20 22:19:39.545 +0200,12172.08560825,0.103515625,-0.3075103759765625,-0.9664459228515625,12172.06557125,-1.481727242632005,0.1094251190950916,0.3111517285023594,-0.05418610572814941,0.06788602471351624,0.08393078297376633,-0.01289074867963791,0.01164674758911133,-0.008351504802703857,XArbitraryZVertical,-0.1506263404526765,0.06455840267961602,0.6595238229356682,-0.733602283141089,0.1039629355072975,-0.306155264377594,-0.9462878108024597
2020-08-20 22:19:39.565 +0200,12172.10564625,0.0998687744140625,-0.308441162109375,-0.9832916259765625,12172.08560825,-1.479417250867457,0.108737009748919,0.3099175230186136,-0.07380028814077377,0.04180009290575981,0.08267312496900558,0.002501703798770905,-0.0106867253780365,-0.01498383283615112,XArbitraryZVertical,-0.1500279887090614,0.06422285542988153,0.6588165918166253,-0.7343893837471673,0.1033526882529259,-0.3049800992012024,-0.9467340707778931
2020-08-20 22:19:39.585 +0200,12172.12568325,0.08917236328125,-0.2812042236328125,-0.9722442626953125,12172.10564625,-1.477695006546952,0.109040876931684,0.3074474454453821,-0.08586840331554413,0.0115146255120635,0.07631143927574158,-0.0005874782800674438,-0.01588195562362671,-0.03084719181060791,XArbitraryZVertical,-0.1492893980076051,0.06315370926678356,0.6583379680836036,-0.7350615500501836,0.1037220284342766,-0.302626758813858,-0.9474485516548157
2020-08-20 22:19:39.605 +0200,12172.14572025,0.0963287353515625,-0.286529541015625,-0.9716949462890625,12172.12568325,-1.47545897577096,0.107646273965163,0.3052803270889037,-0.0717412605881691,0.008494068868458271,0.08680129051208496,-0.007614642381668091,0.004607021808624268,-0.02489012479782104,XArbitraryZVertical,-0.1481160798908646,0.06277401069138594,0.6577734124846885,-0.7358363867420297,0.102470837533474,-0.3005605638027191,-0.9482421278953552
2020-08-20 22:19:39.625 +0200,12172.16575725,0.09869384765625,-0.3046722412109375,-0.970001220703125,12172.14572025,-1.473114290441696,0.1063283422164006,0.3034373084215524,-0.03597381338477135,0.00704237911850214,0.08889731019735336,-0.003316916525363922,0.00236886739730835,-0.0205504298210144,XArbitraryZVertical,-0.1470878415899126,0.06246920416037376,0.6571373768011615,-0.7366364898328659,0.1012796461582184,-0.2988022267818451,-0.9489255547523499
2020-08-20 22:19:39.645 +0200,12172.18579525,0.0860595703125,-0.28955078125,-0.973876953125,12172.16575725,-1.470841212273189,0.1054907219005386,0.3041683484293305,-0.0168756190687418,-0.01928536593914032,0.1239639893174171,0.001229427754878998,-0.01344999670982361,-0.0174749493598938,XArbitraryZVertical,-0.1471494686276558,0.06285504026419321,0.6563101295334274,-0.7373285337857043,0.1004617437720299,-0.2994998097419739,-0.948792576789856
2020-08-20 22:19:39.665 +0200,12172.20583225,0.0802459716796875,-0.290252685546875,-0.9667816162109375,12172.18579525,-1.46823706421846,0.1045574277782962,0.304880664951478,-0.05604006350040436,-0.009282265789806843,0.1139812842011452,-0.009166993200778961,-0.001469582319259644,-0.02648615837097168,XArbitraryZVertical,-0.1471844662937698,0.0632454696249808,0.6553683537312271,-0.7381254032851091,0.0995539054274559,-0.3001793324947357,-0.9486734867095947
2020-08-20 22:19:39.685 +0200,12172.22586925,0.0849609375,-0.290863037109375,-0.9568328857421875,12172.20583225,-1.465608656366028,0.1027743102733022,0.3038950093253618,-0.04644948616623878,-0.01893675699830055,0.1142627000808716,-0.01472845673561096,0.0002892613410949707,-0.0164177417755127,XArbitraryZVertical,-0.146324926107246,0.0633825217452708,0.6545972937444325,-0.7389682381855419,0.09789246320724487,-0.2992390096187592,-0.9491433501243591
2020-08-20 22:19:39.705 +0200,12172.24590625,0.0855712890625,-0.2905731201171875,-0.9543609619140625,12172.22586925,-1.46292982777038,0.1013806460722315,0.3025120319086245,-0.02293910458683968,-0.007364789489656687,0.1135970652103424,-0.009824790060520172,-0.0008984208106994629,-0.007953763008117676,XArbitraryZVertical,-0.1454496877273105,0.06324206827515035,0.6538042276115784,-0.7398546110045148,0.09661137312650681,-0.2979190945625305,-0.9496896862983704
2020-08-20 22:19:39.725 +0200,12172.26594325,0.0792694091796875,-0.28741455078125,-0.9384613037109375,12172.24590625,-1.460725264667402,0.1011719894976904,0.3023548285927313,-0.04275142401456833,-0.01140081044286489,0.1097160428762436,-0.006249852478504181,-0.001257628202438354,-0.000549614429473877,XArbitraryZVertical,-0.1453937736565876,0.06310674880452036,0.6530142975593864,-0.7405744242042924,0.09641794115304947,-0.2977690398693085,-0.949756383895874
2020-08-20 22:19:39.745 +0200,12172.28598125,0.092010498046875,-0.2838287353515625,-0.9366912841796875,12172.26594325,-1.458276646321653,0.0998025657751616,0.301992446656789,-0.04177830368280411,0.006189102306962013,0.1000868454575539,-0.01401763409376144,0.001473933458328247,0.01349073648452759,XArbitraryZVertical,-0.1448918702984512,0.06331608679359467,0.6522313744771656,-0.7413445583150045,0.09512797743082047,-0.2974230647087097,-0.9499948620796204
2020-08-20 22:19:39.765 +0200,12172.30601825,0.0945892333984375,-0.2719879150390625,-0.9445037841796875,12172.28598125,-1.456100269532192,0.09859184501950383,0.3009197152273515,-0.03659486025571823,0.02239896357059479,0.08076397329568863,-0.001229792833328247,0.0009236633777618408,0.01310014724731445,XArbitraryZVertical,-0.1441735921615306,0.06325219054756055,0.6515849343991773,-0.7420581224411368,0.09400907903909683,-0.2963987290859222,-0.9504262804985046
2020-08-20 22:19:39.785 +0200,12172.32605525,0.082855224609375,-0.277984619140625,-0.9643096923828125,12172.30601825,-1.454043922360344,0.09735320862475601,0.3010196859692422,0.02203463017940521,0.01958906278014183,0.08443541079759598,0.005849622189998627,0.01784658432006836,0.01115429401397705,XArbitraryZVertical,-0.1438721016270258,0.06359699038536012,0.6509040634999161,-0.7426843519984563,0.0928288921713829,-0.29649418592453,-0.9505124688148499
2020-08-20 22:19:39.805 +0200,12172.34609225,0.080230712890625,-0.2761077880859375,-0.9709930419921875,12172.32605525,-1.452215336803704,0.09682480198596018,0.3025569937884079,0.01735825091600418,0.03114398568868637,0.07568875700235367,-0.004927590489387512,0.007626533508300781,-0.01173049211502075,XArbitraryZVertical,-0.1443222458802496,0.06416992658477269,0.6501586310859909,-0.743200616169527,0.09228245168924332,-0.2979620397090912,-0.9501066207885742
2020-08-20 22:19:39.825 +0200,12172.36613025,0.09130859375,-0.28094482421875,-0.9673309326171875,12172.34609225,-1.45051924215946,0.09564133910926899,0.3030072261287651,0.003718872321769595,0.01639247313141823,0.06364844739437103,-0.00910496711730957,0.01619118452072144,-0.02084904909133911,XArbitraryZVertical,-0.1441575111860877,0.06463627239740383,0.6495829933180701,-0.7436953182778251,0.09114515036344528,-0.2983917891979218,-0.9500815272331238
2020-08-20 22:19:39.845 +0200,12172.38616725,0.08123779296875,-0.273040771484375,-0.9515228271484375,12172.36613025,-1.448994662237177,0.09556191614468826,0.3029688038210355,-0.04942064732313156,0.01563240587711334,0.06868867576122284,0.002624809741973877,0.008297383785247803,-0.01639068126678467,XArbitraryZVertical,-0.1441668555692036,0.06454324431264287,0.6490242189853375,-0.7441892537611877,0.09107078611850739,-0.2983551025390625,-0.9501001834869385
2020-08-20 22:19:39.865 +0200,12172.40620425,0.084014892578125,-0.2662506103515625,-0.94659423828125,12172.38616725,-1.447814277814887,0.09613811860353795,0.3008926131798533,-0.07287030667066574,0.02103196457028389,0.05563157796859741,-0.00740833580493927,0.01261726021766663,-0.0007399320602416992,XArbitraryZVertical,-0.1436287119021727,0.06355906654529159,0.6486835478299341,-0.7446748994706287,0.0916774794459343,-0.2963728308677673,-0.9506620764732361
2020-08-20 22:19:39.885 +0200,12172.42624125,0.0861053466796875,-0.278106689453125,-0.956939697265625,12172.40620425,-1.44645051574482,0.0960707845486795,0.2989891276114738,-0.02820909954607487,0.02170414477586746,0.05605250969529152,-0.005109764635562897,0.01842331886291504,0.006675004959106445,XArbitraryZVertical,-0.142950040489425,0.06285900343197069,0.6483083298926918,-0.7451914695505008,0.09166742116212845,-0.2945543229579926,-0.9512280821800232
2020-08-20 22:19:39.907 +0200,12172.44627925,0.087127685546875,-0.2969970703125,-0.9565887451171875,12172.42624125,-1.445241941255726,0.09557403004879335,0.2981575667411025,0.03512073680758476,0.01867799460887909,0.04593797400593758,-0.001210711896419525,0.009962677955627441,-0.00238335132598877,XArbitraryZVertical,-0.1425209864133132,0.06268396013618806,0.6479489773287744,-0.7456008829782421,0.09121822565793991,-0.2937595546245575,-0.9515169858932495
2020-08-20 22:19:39.925 +0200,12172.46631625,0.08721923828125,-0.2939910888671875,-0.9591522216796875,12172.44627925,-1.444169997445443,0.09559477203938606,0.2979045631195755,0.01816905103623867,0.03034983202815056,0.05213997885584831,-0.001389272511005402,-0.01096266508102417,-0.002466142177581787,XArbitraryZVertical,-0.1424680997909765,0.06251656278946897,0.6475646689493929,-0.7459588418717463,0.09124504774808884,-0.2935177087783813,-0.951589047908783
2020-08-20 22:19:39.945 +0200,12172.48635325,0.0854644775390625,-0.276031494140625,-0.9564666748046875,12172.46631625,-1.443015150996423,0.09520368677036481,0.2967939091421112,-0.04082236438989639,0.01643401756882668,0.04849575087428093,-0.0006313398480415344,-0.01086264848709106,-0.005261003971099854,XArbitraryZVertical,-0.1419683365482184,0.06221494297836475,0.6472355737118244,-0.7463648374895845,0.09090382605791092,-0.292455792427063,-0.9519485831260681
2020-08-20 22:19:39.965 +0200,12172.50639025,0.0923614501953125,-0.2791290283203125,-0.959991455078125,12172.48635325,-1.441732820520252,0.09485066325780832,0.2950849180429998,-0.03746571391820908,0.02480672672390938,0.05224616453051567,-0.002640187740325928,0.005634725093841553,-0.005145847797393799,XArbitraryZVertical,-0.1412637797127285,0.06169402654835055,0.6468951103714186,-0.7468367724668015,0.09061495959758759,-0.2908211052417755,-0.9524767994880676
2020-08-20 22:19:39.985 +0200,12172.52642825,0.0902252197265625,-0.2851715087890625,-0.9613037109375,12172.50639025,-1.440678188310589,0.09478534777124474,0.2936329853616357,-0.004729340318590403,0.0155085688456893,0.04094275832176208,0.004843026399612427,0.002121388912200928,-0.004779458045959473,XArbitraryZVertical,-0.1407393923317312,0.0611669827072903,0.646601536763953,-0.7472331762248561,0.09059261530637741,-0.2894316017627716,-0.9529020190238953
2020-08-20 22:19:40.005 +0200,12172.54646525,0.092864990234375,-0.284912109375,-0.956878662109375,12172.52642825,-1.439622553338947,0.09464732640234505,0.2949634151764027,0.01469296030700207,0.010613146238029,0.05171341821551323,0.003174789249897003,-0.002733051776885986,-0.007245361804962158,XArbitraryZVertical,-0.1412182539322321,0.06158105687510794,0.6461291227939925,-0.7475174458463436,0.09042462706565857,-0.2907048463821411,-0.9525303840637207
2020-08-20 22:19:40.025 +0200,12172.56650225,0.0870819091796875,-0.2843017578125,-0.9566192626953125,12172.54646525,-1.438568441432136,0.09444826786276417,0.2961868852083777,-0.01984171569347382,0.002565072849392891,0.04195411503314972,0.00642763078212738,-0.002056598663330078,-0.005267679691314697,XArbitraryZVertical,-0.1416382933313046,0.06198246145221866,0.6456683393218616,-0.7478028310593694,0.09020140022039413,-0.2918752729892731,-0.952193558216095
2020-08-20 22:19:40.045 +0200,12172.58653925,0.0824737548828125,-0.279571533203125,-0.9505462646484375,12172.56650225,-1.437449111592937,0.09370133402241845,0.2956961021869451,-0.02401475422084332,0.005709201097488403,0.0503915399312973,0.001610763370990753,-0.003716975450515747,-0.001112520694732666,XArbitraryZVertical,-0.1412506115789195,0.06202168314014682,0.6453349333841202,-0.7481606338393769,0.08950354158878326,-0.2914057970046997,-0.9524031281471252
2020-08-20 22:19:40.065 +0200,12172.60657625,0.088104248046875,-0.2751007080078125,-0.9496307373046875,12172.58653925,-1.43655986531165,0.09429859751791279,0.2944678545626367,-0.01902345754206181,0.01475888770073652,0.04205261170864105,-0.005290217697620392,0.002285242080688477,0.004078149795532227,XArbitraryZVertical,-0.1410167203179857,0.06133284302496879,0.6450409044779609,-0.7485150184084807,0.09010599553585052,-0.2902306616306305,-0.9527051448822021
2020-08-20 22:19:40.085 +0200,12172.62661425,0.0874481201171875,-0.27911376953125,-0.9548187255859375,12172.60657625,-1.436040465094047,0.09524088613368026,0.2943132186043625,-0.0180981419980526,0.007900982163846493,0.03125433251261711,-0.00146455317735672,0.005376607179641724,0.003077507019042969,XArbitraryZVertical,-0.1412792592421322,0.06089279365639577,0.6447901635447941,-0.7487175402541489,0.09100794792175293,-0.2900826632976532,-0.9526644945144653
2020-08-20 22:19:40.106 +0200,12172.64665125,0.0823974609375,-0.27130126953125,-0.949432373046875,12172.62661425,-1.43569402277567,0.09621180886231827,0.2943271931153387,-0.02065956965088844,0.008092730306088924,0.03060588799417019,-0.001109287142753601,0.002337813377380371,0.001782059669494629,XArbitraryZVertical,-0.1416079160031128,0.06050936910508838,0.6445908720137844,-0.7488580910319959,0.09193247556686401,-0.2900960445404053,-0.9525716304779053
2020-08-20 22:19:40.126 +0200,12172.66669029167,0.097869873046875,-0.281707763671875,-0.960205078125,12172.64665125,-1.435046254872971,0.09664954526295258,0.2949089846453313,-0.0314156785607338,0.03915184363722801,0.02937429025769234,-0.008119881153106689,0.01012524962425232,0.004540205001831055,XArbitraryZVertical,-0.1419837241219027,0.06049009688459088,0.6442787725602716,-0.7490569634054705,0.09233314543962479,-0.2906527519226074,-0.952363133430481
2020-08-20 22:19:40.146 +0200,12172.68672729167,0.087860107421875,-0.2821044921875,-0.949798583984375,12172.66669029167,-1.43410982821455,0.09593699909376451,0.2942738240892561,-0.002968857064843178,0.009008058346807957,0.02324475906789303,0.008221976459026337,0.0005639493465423584,-0.002451002597808838,XArbitraryZVertical,-0.1415475617737439,0.06048268203910294,0.6440204820945147,-0.7493622359535481,0.09167218208312988,-0.2900449633598328,-0.9526122808456421
2020-08-20 22:19:40.166 +0200,12172.70676529167,0.0902099609375,-0.2990875244140625,-0.9417724609375,12172.68672729167,-1.433550511123935,0.09513455761930063,0.2936794396311121,-0.007163070142269135,-2.991128712892532e-05,0.01219507679343224,0.001470163464546204,0.0001346766948699951,0.003767609596252441,XArbitraryZVertical,-0.1410861159174334,0.06054934747467657,0.6439067418047906,-0.749541563733189,0.09092409908771515,-0.2894760966300964,-0.9528569579124451
2020-08-20 22:19:40.186 +0200,12172.72680229167,0.090850830078125,-0.315521240234375,-0.9311981201171875,12172.70676529167,-1.433041507355853,0.09516085802189046,0.2923736208453204,-0.03211036324501038,0.004486543126404285,0.03519892692565918,0.001487448811531067,-0.01709863543510437,0.01247572898864746,XArbitraryZVertical,-0.140626432315256,0.06007642314798826,0.6437998014291241,-0.7497578620559147,0.0909850001335144,-0.288225919008255,-0.953230082988739
2020-08-20 22:19:40.206 +0200,12172.74683929167,0.079620361328125,-0.2602081298828125,-0.9033203125,12172.72680229167,-1.431651662770328,0.09399551283154811,0.2904586416137237,-0.09086169302463531,0.0100152650848031,0.06211104243993759,0.003933049738407135,-0.03738510608673096,0.02317947149276733,XArbitraryZVertical,-0.1395835598293223,0.05978987522860665,0.643485191450767,-0.7502455417063794,0.08992573618888855,-0.2863916754722595,-0.9538832306861877
2020-08-20 22:19:40.226 +0200,12172.76687629167,0.085784912109375,-0.2319793701171875,-0.9394378662109375,12172.74683929167,-1.430395401298461,0.09466313313602986,0.2891361644664814,-0.01748774573206902,0.015547183342278,0.05613061413168907,-0.008055947721004486,0.004248529672622681,0.04826599359512329,XArbitraryZVertical,-0.1393452571378485,0.05901959555506757,0.6430530789361922,-0.7507212388377086,0.09059826284646988,-0.2851243615150452,-0.9541991949081421
2020-08-20 22:19:40.246 +0200,12172.78691429167,0.0958099365234375,-0.2853851318359375,-0.9463043212890625,12172.76687629167,-1.42973159120641,0.09557675919972877,0.292037494554452,0.2625313997268677,0.03802159801125526,0.05853430926799774,-0.00310179591178894,0.0478968620300293,0.01616400480270386,XArbitraryZVertical,-0.1407346202204864,0.05957771177912509,0.6425508392235734,-0.7508480470090135,0.09139067679643631,-0.2879040539264679,-0.9532885551452637
2020-08-20 22:19:40.266 +0200,12172.80695129167,0.0921783447265625,-0.351837158203125,-0.9531097412109375,12172.78691429167,-1.429243950064394,0.09660465851307484,0.3005816000311971,0.4246662557125092,0.08291637152433395,0.05291876196861267,0.005932211875915527,0.01147398352622986,0.01026332378387451,XArbitraryZVertical,-0.1442470968168383,0.06194611954594777,0.6417284500245151,-0.7506931182582436,0.09212987869977951,-0.2960757911205292,-0.9507108926773071
2020-08-20 22:19:40.286 +0200,12172.82698829167,0.0890960693359375,-0.358978271484375,-0.96075439453125,12172.80695129167,-1.428780030383059,0.09831526517866769,0.3091277171106728,0.2732092142105103,0.08303328603506088,0.07225921005010605,0.002845577895641327,-0.05080115795135498,-0.002160727977752686,XArbitraryZVertical,-0.1479762284649344,0.06405825406431766,0.6408493341187913,-0.7505409469991675,0.09350425004959106,-0.3042278289794922,-0.9479991793632507
2020-08-20 22:19:40.306 +0200,12172.84702529167,0.099029541015625,-0.2991943359375,-0.942840576171875,12172.82698829167,-1.42717063263932,0.09934030750592888,0.3117876627369527,-0.02556444704532623,0.1046190038323402,0.08595588803291321,-0.005281127989292145,-0.06165242195129395,-0.006150484085083008,XArbitraryZVertical,-0.1493413363247662,0.06442093792220055,0.6399854701555912,-0.7509765091203683,0.09439534693956375,-0.3067606091499329,-0.947094202041626
2020-08-20 22:19:40.326 +0200,12172.86706329167,0.1110992431640625,-0.27520751953125,-0.956207275390625,12172.84702529167,-1.425178094477557,0.10065479358116,0.3089320112183805,-0.08725537359714508,0.1003353074193001,0.08428384363651276,0.004703804850578308,-0.01132434606552124,0.001069605350494385,XArbitraryZVertical,-0.1487667393296984,0.06284858970141076,0.639336437802673,-0.7517762208792564,0.09572784602642059,-0.3040413856506348,-0.9478369951248169
2020-08-20 22:19:40.346 +0200,12172.88710029167,0.10626220703125,-0.27838134765625,-0.968170166015625,12172.86706329167,-1.423170551678286,0.1020764825100254,0.3075735634411645,0.05056813731789589,0.09719756990671158,0.09306991100311279,0.01663248986005783,0.01700794696807861,-0.004830420017242432,XArbitraryZVertical,-0.1487794828938208,0.06172260567048984,0.6385694844720302,-0.7525184735441323,0.09711727499961853,-0.3027469515800476,-0.9481099843978882
2020-08-20 22:19:40.366 +0200,12172.90713729167,0.098114013671875,-0.2838897705078125,-0.964996337890625,12172.88710029167,-1.421771479310332,0.1035058211081213,0.3109042234557046,0.1242854967713356,0.07834239304065704,0.06709891557693481,0.01249112188816071,0.0189991295337677,-0.01990467309951782,XArbitraryZVertical,-0.1505151583193763,0.06216267482908792,0.6377047710836694,-0.7528702353089929,0.09836761653423309,-0.3059196472167969,-0.9469619989395142
2020-08-20 22:19:40.386 +0200,12172.92717429167,0.0953369140625,-0.3114776611328125,-0.9615325927734375,12172.90713729167,-1.420688408543659,0.1042207661385368,0.3153674932555541,0.1330049633979797,0.04876159504055977,0.05645068734884262,0.002238541841506958,0.01846018433570862,-0.02056580781936646,XArbitraryZVertical,-0.1524337090225704,0.06326112507456563,0.6369294610001441,-0.7530490284463004,0.09890158474445343,-0.3101658523082733,-0.9455239772796631
2020-08-20 22:19:40.408 +0200,12172.94721229167,0.0899200439453125,-0.3204193115234375,-0.957244873046875,12172.92717429167,-1.419860750689526,0.1049026064381264,0.3188676265319996,0.07653436064720154,0.03531263023614883,0.05551580339670181,0.0001834854483604431,-0.005508333444595337,-0.0196537971496582,XArbitraryZVertical,-0.1539762622194927,0.06407698321036166,0.6363171825217901,-0.7531839517947548,0.09943196922540665,-0.3134914636611938,-0.9443709254264832
2020-08-20 22:19:40.426 +0200,12172.96724929167,0.08624267578125,-0.28399658203125,-0.9853973388671875,12172.94721229167,-1.418949144239023,0.1060406338227569,0.3181912196044128,-0.05188193917274475,0.0583452433347702,0.05891852453351021,-0.006342366337776184,-0.02190840244293213,-0.01324284076690674,XArbitraryZVertical,-0.1541161747521642,0.06335869114907515,0.635934405789,-0.7535391587367989,0.1005290448665619,-0.3128490746021271,-0.9444677829742432
2020-08-20 22:19:40.447 +0200,12172.98728629167,0.085113525390625,-0.27069091796875,-0.94891357421875,12172.96724929167,-1.417937055358998,0.1070150816388765,0.3152345181617151,-0.1039086505770683,0.023966234177351,0.01798733696341515,-0.01082373410463333,0.01064696907997131,-0.03373688459396362,XArbitraryZVertical,-0.1533594756993049,0.06195483164191697,0.6356886392454156,-0.7540175637270238,0.1015476882457733,-0.3100394308567047,-0.9452849626541138
2020-08-20 22:19:40.467 +0200,12173.00732329167,0.1031494140625,-0.28619384765625,-0.9643096923828125,12172.98728629167,-1.417646584102902,0.1073677755768326,0.3127165442120404,-0.01723341271281242,0.03370141983032227,0.006079811602830887,-0.0153626874089241,0.02871179580688477,0.0001197457313537598,XArbitraryZVertical,-0.152544811517246,0.06098328139317141,0.6357306652931262,-0.7542265040344578,0.1019644141197205,-0.3076445758342743,-0.9460222125053406
2020-08-20 22:19:40.487 +0200,12173.02736129167,0.1018524169921875,-0.310028076171875,-0.95654296875,12173.00732329167,-1.417391441535798,0.1076510189516141,0.3131476864903663,0.05674467608332634,0.02769998461008072,-0.0009688145946711302,0.002717278897762299,0.01545265316963196,-0.01671403646469116,XArbitraryZVertical,-0.1528028612907804,0.06099675150025141,0.6355823012365855,-0.7542982324963734,0.1022181063890457,-0.3080547749996185,-0.9458613395690918
2020-08-20 22:19:40.507 +0200,12173.04739829167,0.09503173828125,-0.3249969482421875,-0.9650726318359375,12173.02736129167,-1.417555049236039,0.1074797233022038,0.3152661721187032,0.02904060855507851,-0.005689661018550396,-0.006957541219890118,0.003720544278621674,-0.006841033697128296,-0.01357424259185791,XArbitraryZVertical,-0.1535307199952914,0.06176060740495962,0.6355067118914743,-0.7541519204455599,0.1019858419895172,-0.3100695312023163,-0.9452278614044189
2020-08-20 22:19:40.526 +0200,12173.06743529167,0.09716796875,-0.3064117431640625,-0.9572906494140625,12173.04739829167,-1.417274763886346,0.1063404190861438,0.3150268704785399,-0.04345862567424774,-0.0141017884016037,0.0145278163254261,-0.001865707337856293,-0.02520430088043213,-0.01818203926086426,XArbitraryZVertical,-0.1530884444854252,0.06209117387025513,0.6355053446026482,-0.7542158866113317,0.100916750729084,-0.3098420202732086,-0.9454172253608704
2020-08-20 22:19:40.546 +0200,12173.08747229167,0.105560302734375,-0.2895965576171875,-0.9560089111328125,12173.06743529167,-1.416590591918837,0.1052597656866638,0.3122572588650677,-0.09717578440904617,-0.01529035717248917,0.011215565726161,-0.001084603369235992,-0.01236125826835632,-0.007869243621826172,XArbitraryZVertical,-0.1517364374726753,0.06154920705313612,0.6355250873153097,-0.7545168262873719,0.09998480230569839,-0.3072075247764587,-0.9463754892349243
2020-08-20 22:19:40.567 +0200,12173.10750929167,0.1054840087890625,-0.2857666015625,-0.9377899169921875,12173.08747229167,-1.416365444662011,0.1047160874757402,0.3095172319680493,-0.04493681341409683,-0.03295616805553436,0.0002154549583792686,0.008881121873855591,0.005832135677337646,-0.006291687488555908,XArbitraryZVertical,-0.1505512165769665,0.06084965176580349,0.635672952416188,-0.7546863263295708,0.09955786913633347,-0.3045988380908966,-0.9472633004188538
2020-08-20 22:19:40.586 +0200,12173.12754729167,0.1026611328125,-0.307586669921875,-0.9508819580078125,12173.10750929167,-1.416542068589075,0.1051867385098508,0.3094246074708711,-0.007637379225343466,-0.01370497699826956,0.005517694167792797,0.00806475430727005,0.01201790571212769,0.009070873260498047,XArbitraryZVertical,-0.1506609779286366,0.06065533963535674,0.6357106122905248,-0.7546484075809995,0.1000066548585892,-0.304510623216629,-0.94724440574646
2020-08-20 22:19:40.606 +0200,12173.14758429167,0.0937347412109375,-0.310882568359375,-0.9493865966796875,12173.12754729167,-1.416443208087242,0.1047287523187236,0.3105436656083441,-0.0006147562526166439,-0.03265390172600746,0.004989627748727798,0.006368279457092285,-0.007945358753204346,-0.001681387424468994,XArbitraryZVertical,-0.1509347761625713,0.06118326415855405,0.6356297132571169,-0.7546191369187376,0.09953713417053223,-0.305576354265213,-0.9469506144523621
2020-08-20 22:19:40.627 +0200,12173.16762129167,0.1005706787109375,-0.2996368408203125,-0.9582977294921875,12173.14758429167,-1.41616232577442,0.1039341745912202,0.3117000339983312,-0.004152366891503334,-0.01881957799196243,0.0132388062775135,-0.00069466233253479,-0.01296687126159668,0.0002663135528564453,XArbitraryZVertical,-0.1511211429961024,0.0618364154464035,0.6355029196823642,-0.7546354687478027,0.09874795377254486,-0.3066771924495697,-0.9466773271560669
2020-08-20 22:19:40.647 +0200,12173.18765829167,0.10101318359375,-0.2825927734375,-0.9490203857421875,12173.16762129167,-1.416174411109426,0.1046086031364216,0.3108335090133169,-0.01680198311805725,-0.008440973237156868,0.008285365998744965,0.003100089728832245,-0.004061698913574219,-0.01065105199813843,XArbitraryZVertical,-0.1510126586198051,0.06130218380607611,0.6355170994480493,-0.7546888419706578,0.09941410273313522,-0.3058523237705231,-0.9468744397163391
2020-08-20 22:19:40.667 +0200,12173.20769629167,0.101715087890625,-0.2892608642578125,-0.957000732421875,12173.18765829167,-1.416253195332351,0.1050574430800585,0.3099886857451018,0.024049311876297,-0.007232164032757282,0.00058000348508358,0.004798270761966705,0.0121721625328064,-0.001626074314117432,XArbitraryZVertical,-0.1508385347821185,0.0608650951827658,0.635571975730193,-0.7547128597191787,0.09986615180969238,-0.305047869682312,-0.9470863342285156
2020-08-20 22:19:40.687 +0200,12173.22773329167,0.102783203125,-0.314300537109375,-0.955230712890625,12173.20769629167,-1.416666445513903,0.1060412631633615,0.3111682561611842,0.06472896039485931,0.004025550559163094,-0.002984789432957768,0.00211653858423233,0.0120551586151123,-0.00625002384185791,XArbitraryZVertical,-0.1515774154326438,0.06090729259160602,0.6355709250820128,-0.7545622424329639,0.1007597073912621,-0.3061710000038147,-0.9466291666030884
2020-08-20 22:19:40.707 +0200,12173.24777029167,0.0988922119140625,-0.3270111083984375,-0.9484100341796875,12173.22773329167,-1.416680306030197,0.1061506639493453,0.3133971747812635,0.02598503045737743,0.007060488685965538,0.01222646329551935,0.00509248673915863,-0.01324832439422607,-0.01218491792678833,XArbitraryZVertical,-0.1524406713957871,0.0615892579248764,0.6354109170431358,-0.7544677469508221,0.1007907167077065,-0.3082921206951141,-0.9459372162818909
2020-08-20 22:19:40.727 +0200,12173.26780729167,0.0984344482421875,-0.3035125732421875,-0.9543609619140625,12173.24777029167,-1.416239346429655,0.1061204183238597,0.3130419740381543,-0.06951539218425751,0.002984520979225636,0.02123886719346046,0.00144687294960022,-0.03043681383132935,-0.0007544755935668945,XArbitraryZVertical,-0.1523125277156918,0.06145199539630362,0.6352719170634468,-0.7546219084131431,0.1007736995816231,-0.3079541921615601,-0.9460490942001343
2020-08-20 22:19:40.747 +0200,12173.28784529167,0.0937957763671875,-0.2700347900390625,-0.9499359130859375,12173.26780729167,-1.415667340704832,0.1063190509373131,0.3099632865751717,-0.1139771342277527,0.004886816255748272,0.02031288482248783,0.0003590360283851624,-0.01134994626045227,-0.005250930786132812,XArbitraryZVertical,-0.1512476611578927,0.06033648595135755,0.635257368254449,-0.7549382136301964,0.1010617464780807,-0.3050236701965332,-0.9469673037528992
2020-08-20 22:19:40.767 +0200,12173.30788229167,0.098541259765625,-0.2826995849609375,-0.947509765625,12173.28784529167,-1.415341499812703,0.1064460747941277,0.3072945341453163,-0.03756864741444588,0.01028850581496954,-0.001457428792491555,-0.004006609320640564,0.02212035655975342,0.000797271728515625,XArbitraryZVertical,-0.1503044218697962,0.05939968188892958,0.6353111922451431,-0.755155599957529,0.1012681573629379,-0.3024810254573822,-0.9477605223655701
2020-08-20 22:19:40.787 +0200,12173.32791929167,0.0955657958984375,-0.302398681640625,-0.9443206787109375,12173.30788229167,-1.415510861994599,0.1072329551108581,0.3084557238160662,0.04469999298453331,0.01764176040887833,-0.0004880381748080254,-0.0006339848041534424,0.01501405239105225,0.0003654956817626953,XArbitraryZVertical,-0.150981567613061,0.05949140796235775,0.6352348002781214,-0.7550775419836723,0.1019762381911278,-0.3035876154899597,-0.94733065366745
2020-08-20 22:19:40.807 +0200,12173.34795629167,0.09088134765625,-0.293792724609375,-0.949066162109375,12173.32791929167,-1.415627850436132,0.1077605641477654,0.3103027460450702,0.00130564859136939,0.02644883468747139,-7.189996540546417e-05,-0.00331801176071167,-0.00380408763885498,0.003830254077911377,XArbitraryZVertical,-0.151832977221894,0.05989929431351133,0.6351094033557212,-0.7549800172856804,0.1024155616760254,-0.3053469359874725,-0.9467176198959351
2020-08-20 22:19:40.827 +0200,12173.36799429167,0.0877838134765625,-0.279052734375,-0.950653076171875,12173.34795629167,-1.415484960383409,0.1079817720545382,0.3110417953179631,-0.04378646239638329,0.01578713580965996,-0.0008299117907881737,-0.007083162665367126,-0.0001315474510192871,-0.001719474792480469,XArbitraryZVertical,-0.1521824764095464,0.06004426823116554,0.6349865777220439,-0.7550015087222328,0.102600634098053,-0.3060505986213684,-0.9464703798294067
2020-08-20 22:19:40.847 +0200,12173.38803129167,0.0899505615234375,-0.2821197509765625,-0.945587158203125,12173.36799429167,-1.415431397423578,0.1079729313486217,0.3091246498828644,-0.0204374622553587,0.02323146909475327,-0.01237859576940536,-0.01088977605104446,0.01363256573677063,0.0004777312278747559,XArbitraryZVertical,-0.1514678828490076,0.05942265976550556,0.6351019499074554,-0.7550973708094053,0.1026553064584732,-0.3042249083518982,-0.9470528364181519
2020-08-20 22:19:40.867 +0200,12173.40806829167,0.09246826171875,-0.2856903076171875,-0.9454803466796875,12173.38803129167,-1.415706113214431,0.1085002468810412,0.3078521880857701,0.01301450282335281,0.02792955189943314,-0.01834479905664921,-0.01136846840381622,0.01273226737976074,0.004749417304992676,XArbitraryZVertical,-0.1511536958022005,0.05883220363868924,0.6352550677715827,-0.7550777662613199,0.1031965240836143,-0.303012490272522,-0.9473826885223389
2020-08-20 22:19:40.887 +0200,12173.42810529167,0.0927734375,-0.274017333984375,-0.953460693359375,12173.40806829167,-1.415898694325676,0.1082535242461983,0.3081885330659676,-0.003763811197131872,0.01855868846178055,-0.02123836055397987,-0.007026657462120056,0.005871236324310303,0.004416406154632568,XArbitraryZVertical,-0.1511948138780992,0.05904887353911568,0.6353228351421027,-0.7549955410172441,0.1029517650604248,-0.3033330142498016,-0.9473066926002502
2020-08-20 22:19:40.908 +0200,12173.44814329167,0.1009521484375,-0.2757110595703125,-0.950164794921875,12173.42810529167,-1.416198442323156,0.1080520461803038,0.3085698471911665,-0.01267022080719471,0.02038508281111717,-0.03406110033392906,-0.007348403334617615,0.01788103580474854,-0.002694070339202881,XArbitraryZVertical,-0.15126382048617,0.05927114363192748,0.6354244693423629,-0.7548787003089479,0.102748416364193,-0.30369633436203,-0.9472123980522156
2020-08-20 22:19:40.927 +0200,12173.46818029167,0.102630615234375,-0.2927703857421875,-0.959075927734375,12173.44814329167,-1.416691761732503,0.1077436345244846,0.3076873149591192,0.00396734569221735,0.01579778641462326,-0.04316770657896996,0.0003531351685523987,0.01978203654289246,0.0009819269180297852,XArbitraryZVertical,-0.1508228773386245,0.05913877819002927,0.6356957766371093,-0.7547490008040644,0.1024850681424141,-0.302855372428894,-0.9475101232528687
2020-08-20 22:19:40.947 +0200,12173.48821729167,0.0977783203125,-0.2881927490234375,-0.965423583984375,12173.46818029167,-1.417286742495951,0.1074010362498837,0.3068383013494085,-0.004533065482974052,0.002516869455575943,-0.0361526720225811,0.004226870834827423,0.002182543277740479,-0.009478867053985596,XArbitraryZVertical,-0.1503805664219801,0.05903763725856142,0.6360054182679412,-0.7545842391978178,0.1021879687905312,-0.3020461201667786,-0.9478004574775696
2020-08-20 22:19:40.967 +0200,12173.50825429167,0.1043701171875,-0.2791900634765625,-0.96771240234375,12173.48821729167,-1.417765077771438,0.1067148266264019,0.3055494859985258,-0.0517815388739109,0.004416768439114094,-0.04292166605591774,-0.0009507164359092712,0.0003660321235656738,-0.01745963096618652,XArbitraryZVertical,-0.149668817651239,0.05891447606896473,0.636327095896439,-0.7544641028479847,0.1015789359807968,-0.3008172512054443,-0.9482566714286804
2020-08-20 22:19:40.987 +0200,12173.52829229167,0.11041259765625,-0.28753662109375,-0.9701080322265625,12173.50825429167,-1.418381322346956,0.1063325350230575,0.3037571288815237,-0.02297359332442284,-0.002943675965070724,-0.04716351255774498,0.006333842873573303,0.009573251008987427,-0.01800262928009033,XArbitraryZVertical,-0.1488624053249439,0.0585232327219796,0.6367122757884764,-0.7543291836307924,0.1012734770774841,-0.2991074323654175,-0.9488300085067749
2020-08-20 22:19:41.007 +0200,12173.54832929167,0.1138458251953125,-0.300811767578125,-0.9669036865234375,12173.52829229167,-1.41943057918169,0.1065076990740777,0.3024434904825477,0.01635703630745411,-0.007957076653838158,-0.05482211709022522,0.01167132705450058,0.001995354890823364,-0.01741307973861694,XArbitraryZVertical,-0.1483991032395046,0.05810879898779276,0.637185635184678,-0.7540527161660565,0.1014813557267189,-0.2978536784648895,-0.9492021203041077
2020-08-20 22:19:41.027 +0200,12173.56836629167,0.1147613525390625,-0.3007659912109375,-0.975250244140625,12173.54832929167,-1.420851772372872,0.1074851925086723,0.3022565280144482,0.01877611875534058,-0.01389086619019508,-0.04635980725288391,0.01423019170761108,-0.01033893227577209,-0.0155029296875,XArbitraryZVertical,-0.1485999739043356,0.05778514913104669,0.6376616452318244,-0.753635561252319,0.1024151220917702,-0.2976751923561096,-0.9491578340530396
2020-08-20 22:19:41.047 +0200,12173.58840329167,0.11761474609375,-0.2967681884765625,-0.969757080078125,12173.56836629167,-1.421676318062402,0.1071250166326729,0.3025210431055912,-0.002776045352220535,-0.02322657778859138,-0.04453984275460243,0.01560726761817932,-0.014809250831604,-0.02416431903839111,XArbitraryZVertical,-0.148559487670874,0.05806807053610569,0.637980755451659,-0.7533517042907808,0.1020648255944252,-0.2979277074337006,-0.9491163492202759
2020-08-20 22:19:41.068 +0200,12173.60844129167,0.1206817626953125,-0.302734375,-0.9620208740234375,12173.58840329167,-1.422677605008283,0.1069861123852121,0.3014293323254044,0.02715602144598961,-0.02823731303215027,-0.0465061329305172,0.01815809309482574,-0.008052587509155273,-0.01839035749435425,XArbitraryZVertical,-0.1480807457669618,0.05783962866577198,0.6384435387779114,-0.7530713128176684,0.1019676625728607,-0.2968854010105133,-0.9494533538818359
2020-08-20 22:19:41.087 +0200,12173.62847829167,0.1210784912109375,-0.3118133544921875,-0.955474853515625,12173.60844129167,-1.423919494953997,0.1075413114285653,0.301380943009948,0.05433664470911026,-0.02317171543836594,-0.03822620958089828,0.02039238065481186,-0.01275140047073364,-0.01130563020706177,XArbitraryZVertical,-0.1482041989469958,0.05770686407058383,0.6388732503860914,-0.7526927295524948,0.102496325969696,-0.29683917760849,-0.9494108557701111
2020-08-20 22:19:41.107 +0200,12173.64851529167,0.1193389892578125,-0.3020172119140625,-0.9495086669921875,12173.62847829167,-1.425071784511365,0.1083205562785519,0.3023711140997267,0.04261753708124161,-0.03536286950111389,-0.03203827887773514,0.02208665758371353,-0.02283677458763123,-0.006387412548065186,XArbitraryZVertical,-0.1487871943065753,0.05782166400569782,0.6391803727880565,-0.7523081578319455,0.1032042875885963,-0.2977845966815948,-0.949038028717041
2020-08-20 22:19:41.127 +0200,12173.6685515,0.1167144775390625,-0.2997589111328125,-0.948760986328125,12173.64851529167,-1.425926758375073,0.1089223664982366,0.3036455502499679,0.03102053329348564,-0.02096342295408249,-0.01846018992364407,0.0170413926243782,-0.01428797841072083,-0.002633213996887207,XArbitraryZVertical,-0.1494272491638939,0.0580743502782183,0.6393683814861925,-0.7520019171865283,0.1037340685725212,-0.2990009486675262,-0.9485977292060852
2020-08-20 22:19:41.148 +0200,12173.6885895,0.111236572265625,-0.3062286376953125,-0.945068359375,12173.6685515,-1.426764527102829,0.1099387196132105,0.3044940693919635,0.05745160952210426,-0.01229430083185434,-0.01225582417100668,0.01622570306062698,-0.008452773094177246,-0.0005391836166381836,XArbitraryZVertical,-0.1500422762772486,0.05803159896853914,0.6395479139914405,-0.751730065332082,0.1046702563762665,-0.2998105585575104,-0.9482393264770508
2020-08-20 22:19:41.168 +0200,12173.7086265,0.101898193359375,-0.2994384765625,-0.9320068359375,12173.6885895,-1.427283181832032,0.1110107387569863,0.3057921479999575,0.05420388281345367,-0.0101653691381216,0.005910016596317291,0.0103539451956749,-0.01544693112373352,0.002836465835571289,XArbitraryZVertical,-0.1508507376285853,0.05809105190725392,0.6395709501244429,-0.7515441220559452,0.105643518269062,-0.3010486662387848,-0.9477389454841614
2020-08-20 22:19:41.187 +0200,12173.7286635,0.0974884033203125,-0.29327392578125,-0.9400787353515625,12173.7086265,-1.427577307617215,0.1119595461254852,0.3074301857688613,0.04776795580983162,0.005009322427213192,0.009821856394410133,-7.694214582443237e-05,-0.007341742515563965,0.01524800062179565,XArbitraryZVertical,-0.1517519295392614,0.05829112561835367,0.6394938499262998,-0.7514127810357714,0.1064874604344368,-0.3026103079319,-0.947147011756897
2020-08-20 22:19:41.208 +0200,12173.7487005,0.096160888671875,-0.2926025390625,-0.9357452392578125,12173.7286635,-1.427633409648395,0.113206053629369,0.3092947612014444,0.05903925374150276,0.02522431313991547,0.01832631975412369,-0.005339957773685455,0.001276910305023193,0.01005715131759644,XArbitraryZVertical,-0.1528387588967466,0.05843537792010327,0.6392872466079321,-0.7513570379726312,0.1076040714979172,-0.3043869435787201,-0.9464512467384338
2020-08-20 22:19:41.228 +0200,12173.7687385,0.09967041015625,-0.294647216796875,-0.939239501953125,12173.7487005,-1.427851672789819,0.1148923933106387,0.3107717523428,0.06603577733039856,0.02863156050443649,0.01203699875622988,-0.009888216853141785,0.003784447908401489,0.01101785898208618,XArbitraryZVertical,-0.1539176940824673,0.05830052191619308,0.6391339537632382,-0.7512775786065028,0.1091483011841774,-0.3057935237884521,-0.9458208084106445
2020-08-20 22:19:41.248 +0200,12173.7887755,0.09954833984375,-0.2943115234375,-0.9411773681640625,12173.7687385,-1.427957630559268,0.1162874683536692,0.3130174284415029,0.05532174557447433,0.029709342867136,0.02132656052708626,-0.007335670292377472,0.005855709314346313,0.007200121879577637,XArbitraryZVertical,-0.1551906567107711,0.05851742176344815,0.6389035098622281,-0.7511949313165935,0.1103877276182175,-0.3079308271408081,-0.9449831247329712
2020-08-20 22:19:41.268 +0200,12173.8088125,0.0945892333984375,-0.2931976318359375,-0.94549560546875,12173.7887755,-1.427547653395284,0.1166610710788556,0.3146725679877077,0.0008083037100732327,0.02608504518866539,0.02255694195628166,-0.008306793868541718,0.003917574882507324,0.007126033306121826,XArbitraryZVertical,-0.1559338474954459,0.05888518907440724,0.6385999567102377,-0.7512704227759801,0.1106812953948975,-0.3095051348209381,-0.9444343447685242
2020-08-20 22:19:41.288 +0200,12173.8288495,0.1022186279296875,-0.299468994140625,-0.9529266357421875,12173.8088125,-1.426555218003401,0.1157653231350177,0.3150260201596548,0.02388965524733067,0.0132480775937438,0.05292382463812828,-0.01127411425113678,0.006501555442810059,0.0005245804786682129,XArbitraryZVertical,-0.1558079099403712,0.05925964311639211,0.6382711389791286,-0.7515464756286546,0.1098226308822632,-0.3098412156105042,-0.9444243907928467
2020-08-20 22:19:41.308 +0200,12173.8488865,0.103179931640625,-0.2853546142578125,-0.9479522705078125,12173.8288495,-1.425271453452867,0.1147195628828401,0.3153878949740757,0.07525070756673813,0.005671650171279907,0.01821218430995941,-0.005391158163547516,-0.001481086015701294,-0.004416465759277344,XArbitraryZVertical,-0.1556463258443651,0.05967066554845511,0.6378437142440341,-0.7519102615746586,0.1088220924139023,-0.3101852536201477,-0.9444272518157959
2020-08-20 22:19:41.328 +0200,12173.8689245,0.0993804931640625,-0.296478271484375,-0.95550537109375,12173.8488865,-1.42520831672381,0.1136993621786317,0.3156771628991473,0.006725315004587173,-0.009322745725512505,-0.01803259924054146,-0.0003429129719734192,0.01529541611671448,-0.001771271228790283,XArbitraryZVertical,-0.1554298997660448,0.06014352219542866,0.6378783178926245,-0.7518879796912835,0.1078483462333679,-0.310460239648819,-0.9444485902786255
2020-08-20 22:19:41.348 +0200,12173.8889615,0.1085052490234375,-0.290130615234375,-0.95501708984375,12173.8689245,-1.425941547447796,0.1126399886978164,0.3152392531479696,0.007849035784602165,-0.0258636400103569,-0.06574340164661407,-0.003416337072849274,0.004271745681762695,-0.009998857975006104,XArbitraryZVertical,-0.1549077524433827,0.06045594956031609,0.6382678212767201,-0.7516401383844663,0.1068630293011665,-0.3100439310073853,-0.9446973204612732
2020-08-20 22:19:41.368 +0200,12173.9089985,0.112640380859375,-0.30364990234375,-0.94940185546875,12173.8889615,-1.42744410104339,0.1117429771323858,0.3155998060190751,0.1237006708979607,-0.03784679993987083,-0.09391865134239197,0.004191920161247253,0.00970032811164856,-0.009235858917236328,XArbitraryZVertical,-0.1547090999110046,0.06102678492478548,0.6388757056115117,-0.7511182226098155,0.106003113090992,-0.3103867173194885,-0.9446816444396973
2020-08-20 22:19:41.388 +0200,12173.9290355,0.103729248046875,-0.31732177734375,-0.9599609375,12173.9089985,-1.430044084482427,0.1107222053827028,0.3176578368023152,0.1328266561031342,-0.04784829914569855,-0.1504836231470108,0.01164954900741577,0.001341760158538818,-0.005277812480926514,XArbitraryZVertical,-0.1550632547282649,0.06228276215464459,0.6397817965109214,-0.7501702484429748,0.1049679443240166,-0.3123424351215363,-0.9441524744033813
2020-08-20 22:19:41.420 +0200,12173.9490735,0.0952606201171875,-0.311309814453125,-0.9537506103515625,12173.9290355,-1.433564979549973,0.1109919174388603,0.3174690525546303,0.02366182208061218,-0.05750944837927818,-0.1513938903808594,0.004362143576145172,-0.015250563621521,-0.01229804754257202,XArbitraryZVertical,-0.1549702007246377,0.06239285671987059,0.6410942205851931,-0.7490591414768304,0.1052291244268417,-0.3121630847454071,-0.9441827535629272
2020-08-20 22:19:41.428 +0200,12173.9691105,0.11309814453125,-0.2995452880859375,-0.956146240234375,12173.9490735,-1.436258943925769,0.1108253107436673,0.3160369275509389,-0.03943392634391785,-0.0231701172888279,-0.1284774243831635,-0.006458476185798645,-0.01096946001052856,-0.00527489185333252,XArbitraryZVertical,-0.1543049914840845,0.06219462632356501,0.6422191959140864,-0.7482487877255541,0.1051211506128311,-0.3108022212982178,-0.9446436166763306
2020-08-20 22:19:41.449 +0200,12173.9891475,0.1028900146484375,-0.304443359375,-0.951629638671875,12173.9691105,-1.438564365802255,0.1110630349292636,0.3134565193874332,-0.04847442358732224,-0.03272340819239616,-0.09337201714515686,0.00954977422952652,-0.002742499113082886,-0.006513416767120361,XArbitraryZVertical,-0.1533599032713552,0.06143690730448839,0.6432491667999087,-0.7476207379826501,0.1054342463612556,-0.3083485662937164,-0.9454125165939331
2020-08-20 22:19:41.468 +0200,12174.0091845,0.10943603515625,-0.313446044921875,-0.9529266357421875,12173.9891475,-1.440464837272775,0.1123421151096425,0.3127476840600659,0.02178296074271202,0.0003751553595066071,-0.06893337517976761,0.0008622035384178162,-0.004357337951660156,-0.00596153736114502,XArbitraryZVertical,-0.1534525822321232,0.06087198718058254,0.6439122806808318,-0.7470768814552178,0.1066678985953331,-0.3076741993427277,-0.9454938173294067
2020-08-20 22:19:41.488 +0200,12174.0292225,0.1042022705078125,-0.3106842041015625,-0.944366455078125,12174.0091845,-1.441908192337434,0.113074451366384,0.314447843407529,0.03614738583564758,-0.01133582927286625,-0.04337185248732567,0.004780404269695282,-0.01038894057273865,-0.006542503833770752,XArbitraryZVertical,-0.15426934732735,0.06126833162351605,0.6442719194041149,-0.7465660168422973,0.1073011085391045,-0.3092914223670959,-0.9448943138122559
2020-08-20 22:19:41.508 +0200,12174.0492595,0.1043548583984375,-0.2845001220703125,-0.95404052734375,12174.0292225,-1.442204791283114,0.1123726387804113,0.3155159964130697,-0.01103370822966099,-0.001289053820073605,0.01592540368437767,0.0007898434996604919,-0.01480633020401001,0.002931416034698486,XArbitraryZVertical,-0.154426575071502,0.06190438172099438,0.6443592593464736,-0.7464055790378595,0.1066008359193802,-0.3103070259094238,-0.944640576839447
2020-08-20 22:19:41.534 +0200,12174.0692965,0.09814453125,-0.2843170166015625,-0.890594482421875,12174.0492595,-1.441957002969069,0.1126677490182922,0.3169252891211978,0.1277934163808823,-0.001074403058737516,0.02129681035876274,0.0008573755621910095,0.0174974799156189,-0.008339583873748779,XArbitraryZVertical,-0.1550470506418669,0.06223840557666664,0.6441414291110956,-0.7464372325422408,0.1068303287029266,-0.3116464614868164,-0.9441735744476318
2020-08-20 22:19:41.548 +0200,12174.0893335,0.0391998291015625,-0.320526123046875,-0.918975830078125,12174.0692965,-1.442010423140479,0.1128401772416409,0.3193290449985875,0.09350161999464035,-0.04139093309640884,0.02975470572710037,-0.007152900099754333,0.0155443549156189,0.01475280523300171,XArbitraryZVertical,-0.1559837976937214,0.06296839020552333,0.6439722566495998,-0.7463268825760473,0.1069084703922272,-0.3139295876026154,-0.9434080719947815
2020-08-20 22:19:41.568 +0200,12174.1093715,0.0970916748046875,-0.2873992919921875,-0.968292236328125,12174.0893335,-1.439674181462139,0.1097854357629641,0.3193286620703372,-0.1588813662528992,-0.06423259526491165,0.1658589392900467,-0.02924672514200211,-0.03691580891609192,-0.01558977365493774,XArbitraryZVertical,-0.1550746688625438,0.06392699993072833,0.6433376505288615,-0.7469818954141716,0.10402612388134,-0.3139292299747467,-0.943730354309082
2020-08-20 22:19:41.588 +0200,12174.1294085,0.08843994140625,-0.2798309326171875,-0.94677734375,12174.1093715,-1.437452671397519,0.1096172718754499,0.315539838782608,-0.2439306080341339,0.0116136958822608,0.06131693348288536,-0.01162490993738174,0.01266595721244812,-0.02314645051956177,XArbitraryZVertical,-0.1536965765493099,0.06257543894969173,0.6427945584958282,-0.7478481455949958,0.1039967909455299,-0.3103297054767609,-0.9449233412742615
2020-08-20 22:19:41.608 +0200,12174.1494455,0.0820159912109375,-0.2620697021484375,-0.9512481689453125,12174.1294085,-1.435835498277603,0.1102349001539077,0.3115280443963662,-0.09784357249736786,0.06856965273618698,0.06559073179960251,-0.0127037838101387,0.01743623614311218,0.001389980316162109,XArbitraryZVertical,-0.1524667764285776,0.06090567510414025,0.6424300414927882,-0.7485506753885199,0.1047165095806122,-0.3065134882926941,-0.9460887908935547
2020-08-20 22:19:41.628 +0200,12174.1694825,0.101531982421875,-0.278839111328125,-0.952056884765625,12174.1494455,-1.434299199956602,0.1114605036935969,0.3094064975655543,-0.05188713222742081,0.1084195971488953,0.06031124293804169,-0.02108410745859146,0.03214102983474731,-0.0006743669509887695,XArbitraryZVertical,-0.1521241781809399,0.05963490595944362,0.6419128962940013,-0.7491660522773144,0.1059480458498001,-0.3044933676719666,-0.9466038346290588
2020-08-20 22:19:41.649 +0200,12174.1895205,0.131256103515625,-0.306060791015625,-0.957244873046875,12174.1694825,-1.433152448350445,0.1137478979176011,0.3122609931441192,0.1466255635023117,0.1043593436479568,0.05388933792710304,-0.009688861668109894,0.02062970399856567,-0.003140747547149658,XArbitraryZVertical,-0.1539451932106342,0.05962447990127552,0.6411034798907073,-0.7494880048626354,0.1080139353871346,-0.3072110712528229,-0.94549161195755
2020-08-20 22:19:41.669 +0200,12174.2095575,0.086517333984375,-0.355682373046875,-0.9531707763671875,12174.1895205,-1.432634596112267,0.1131463322601144,0.3147433563533174,0.146674171090126,-0.01480326429009438,0.008575649932026863,0.02909307181835175,-0.001740127801895142,-0.008728384971618652,XArbitraryZVertical,-0.154683837480035,0.06062207321682354,0.6407763771138105,-0.7495355172743401,0.1073587015271187,-0.3095724582672119,-0.9447957277297974
2020-08-20 22:19:41.689 +0200,12174.2295945,0.1028594970703125,-0.2783203125,-0.9596099853515625,12174.2095575,-1.432024521456377,0.1108623283338878,0.3144929460789903,-0.1192039921879768,-0.05899229645729065,0.06108082458376884,-8.895248174667358e-05,-0.07330584526062012,-0.0107988715171814,XArbitraryZVertical,-0.1538782773143985,0.06134917321436829,0.6407419857116764,-0.749671585493174,0.105209082365036,-0.3093343377113342,-0.9451155066490173
2020-08-20 22:19:41.709 +0200,12174.2496315,0.1071014404296875,-0.2918243408203125,-0.9594879150390625,12174.2295945,-1.431844138223374,0.1095110083521438,0.3106393574005534,-0.08022315800189972,-0.03056891262531281,-0.05409686267375946,-0.003996804356575012,0.009581565856933594,-0.009810328483581543,XArbitraryZVertical,-0.1520277914249831,0.06058215513573059,0.641053318507897,-0.7498453744732387,0.1040613427758217,-0.3056674599647522,-0.9464346766471863
2020-08-20 22:19:41.733 +0200,12174.2696695,0.0894012451171875,-0.3243408203125,-0.9496612548828125,12174.2496315,-1.432410238968235,0.1082589349111548,0.3091196500544365,0.02254582196474075,-0.04698304086923599,-0.01614567451179028,0.01034774631261826,0.003937035799026489,-0.01322090625762939,XArbitraryZVertical,-0.1510478579639021,0.06059754914768387,0.6414680898761341,-0.7496873718689745,0.1029263287782669,-0.3042201399803162,-0.947024941444397
2020-08-20 22:19:41.752 +0200,12174.2897065,0.10247802734375,-0.3144683837890625,-0.9517059326171875,12174.2696695,-1.432850424195333,0.1085732371098674,0.3089767114453091,-0.02109260112047195,-0.03851738199591637,-0.0002884531859308481,-0.01075825095176697,-0.02660566568374634,-0.0004388093948364258,XArbitraryZVertical,-0.1510825631927769,0.06046624583094151,0.6416194352267183,-0.7495614419949492,0.1032286882400513,-0.3040839731693268,-0.9470357894897461
2020-08-20 22:19:41.769 +0200,12174.3097435,0.0887298583984375,-0.3004913330078125,-0.951141357421875,12174.2897065,-1.432587656159766,0.1080451619013937,0.3099194686244739,-0.06508056819438934,-0.03430559486150742,0.03693816438317299,0.003641903400421143,-0.02228695154190063,-0.002631068229675293,XArbitraryZVertical,-0.1512693119901725,0.06095264085148182,0.641494222722081,-0.7495915919977191,0.1026976034045219,-0.3049819469451904,-0.9468047618865967
2020-08-20 22:19:41.789 +0200,12174.3297805,0.1077423095703125,-0.290985107421875,-0.95123291015625,12174.3097435,-1.431056599306365,0.1067371007329297,0.3087303556070269,-0.07284314930438995,0.0145362475886941,0.06336478888988495,-0.00981314480304718,-0.007561177015304565,-0.0006575584411621094,XArbitraryZVertical,-0.1504571674673826,0.06093886280368174,0.6411026789397158,-0.7500909837787154,0.1014976054430008,-0.3038492798805237,-0.9472981691360474
2020-08-20 22:19:41.809 +0200,12174.3498185,0.1140594482421875,-0.27099609375,-0.960662841796875,12174.3297805,-1.429989697877485,0.1076362116463048,0.3063138460782847,-0.0959138423204422,0.012359912507236,0.04411549493670464,0.006039544939994812,-0.001446723937988281,-0.002849161624908447,XArbitraryZVertical,-0.1498839204730596,0.05973204941417182,0.640804381046567,-0.7505575152017714,0.1024278700351715,-0.3015461266040802,-0.9479337930679321
2020-08-20 22:19:41.836 +0200,12174.3698555,0.1041259765625,-0.293121337890625,-0.94720458984375,12174.3498185,-1.428827886229321,0.1069520885580615,0.3062764315928743,-0.009403854608535767,-0.0003412347286939621,0.0413421168923378,0.01637145131826401,0.01730227470397949,-0.008507907390594482,XArbitraryZVertical,-0.1496856923364583,0.05988962099384994,0.6404221274101348,-0.7509106921007388,0.1017805486917496,-0.3015104532241821,-0.9480148553848267
2020-08-20 22:19:41.851 +0200,12174.3898925,0.099212646484375,-0.308685302734375,-0.9495086669921875,12174.3698555,-1.428243867473839,0.1068228567456111,0.3083683649481889,0.05738463252782822,-0.003967128694057465,0.03002999909222126,0.00883464515209198,0.008507579565048218,0.00137782096862793,XArbitraryZVertical,-0.1504361835011659,0.06057691670375234,0.6400660935252743,-0.7510091791323191,0.101590558886528,-0.3035043776035309,-0.9473987817764282
2020-08-20 22:19:41.870 +0200,12174.4099295,0.1075439453125,-0.302337646484375,-0.9520263671875,12174.3898925,-1.427660074905724,0.1063409391276378,0.3093125844702437,-0.05505736172199249,0.01964232698082924,0.002060455037280917,-0.0002606213092803955,-0.01427185535430908,-0.001964151859283447,XArbitraryZVertical,-0.1506492524875919,0.06102191349320583,0.6398168665325332,-0.7511428461614561,0.1011035144329071,-0.3044039011001587,-0.9471622705459595
2020-08-20 22:19:41.889 +0200,12174.4299675,0.1050872802734375,-0.2862701416015625,-0.9475555419921875,12174.4099295,-1.427504500843655,0.1069168103599165,0.3082339201191086,-0.07318669557571411,0.02670769393444061,-0.0001754967961460352,0.009125672280788422,-0.008523374795913696,-0.001552283763885498,XArbitraryZVertical,-0.1504388434259233,0.06044216518568061,0.6397907756583707,-0.7512540636937104,0.1016839221119881,-0.3033762574195862,-0.9474297761917114
2020-08-20 22:19:41.909 +0200,12174.4500045,0.09893798828125,-0.2926788330078125,-0.9424591064453125,12174.4299675,-1.427538470147477,0.1080194618368622,0.3066143036302724,0.02197923511266708,0.002547762356698513,0.02309063822031021,0.007329694926738739,0.00562092661857605,7.712841033935547e-05,XArbitraryZVertical,-0.1501908826965958,0.05950231758440306,0.6398342089390956,-0.7513416966627311,0.1027813851833344,-0.3018325865268707,-0.94780433177948
2020-08-20 22:19:41.932 +0200,12174.4700415,0.0987396240234375,-0.3146209716796875,-0.947509765625,12174.4500045,-1.427617601759145,0.1090381282254919,0.3069857232584037,0.07458678632974625,0.03354961797595024,-0.002745485631749034,-0.001726999878883362,0.0006082057952880859,0.006260573863983154,XArbitraryZVertical,-0.1506519175824781,0.05924672843227084,0.6397612454041172,-0.7513317457144222,0.1037346199154854,-0.3021866679191589,-0.9475876688957214
2020-08-20 22:19:41.950 +0200,12174.4900785,0.1036224365234375,-0.3014068603515625,-0.9536895751953125,12174.4700415,-1.427551028079006,0.10952688423037,0.3086220692754245,-0.03390906378626823,0.03615179285407066,0.005943723954260349,-0.002520009875297546,-0.01925814151763916,0.002193748950958252,XArbitraryZVertical,-0.151415955764403,0.05959181501926426,0.6395839591178624,-0.7513017979370876,0.1041435599327087,-0.3037461042404175,-0.9470440745353699
2020-08-20 22:19:41.971 +0200,12174.5101165,0.10223388671875,-0.282989501953125,-0.95086669921875,12174.4900785,-1.427561440251592,0.1106822878333864,0.3081803174955237,-0.08730903267860413,0.01969532296061516,-0.008953047916293144,8.269399404525757e-05,-0.008298277854919434,-0.008872151374816895,XArbitraryZVertical,-0.1516216101524996,0.05901446534774132,0.6395315882040331,-0.7513505425502442,0.1052525192499161,-0.3033251762390137,-0.9470563530921936
2020-08-20 22:19:41.989 +0200,12174.5301535,0.098846435546875,-0.290008544921875,-0.9484710693359375,12174.5101165,-1.427851096161721,0.1120371146033555,0.3064277067638438,-0.02130339108407497,0.0192553699016571,-0.01422865595668554,0.000994458794593811,0.01049908995628357,-0.00294649600982666,XArbitraryZVertical,-0.1513977678152586,0.05795566888186397,0.6396618768399728,-0.7513671498062544,0.1065947860479355,-0.3016546964645386,-0.9474397301673889
2020-08-20 22:19:42.010 +0200,12174.5501905,0.0933990478515625,-0.30096435546875,-0.953887939453125,12174.5301535,-1.427912349628881,0.1116964376442437,0.3066161325438913,0.02794658020138741,0.01202275697141886,-0.01614278368651867,-0.004851140081882477,0.004233896732330322,0.0002687573432922363,XArbitraryZVertical,-0.151356763271965,0.05814977403271814,0.6396973376652596,-0.7513301992223974,0.1062656715512276,-0.3018343150615692,-0.9474194645881653
2020-08-20 22:19:42.033 +0200,12174.5702275,0.1120147705078125,-0.2877960205078125,-0.9568328857421875,12174.5501905,-1.427830491942028,0.111521461197113,0.3079411098976634,0.004489724524319172,0.02023115009069443,-8.350401185452938e-05,-0.01068972796201706,-0.006138980388641357,-0.00524139404296875,XArbitraryZVertical,-0.1517935232152449,0.05864160279717442,0.6395859652380452,-0.7512986852277297,0.1060552969574928,-0.3030972480773926,-0.947039783000946
2020-08-20 22:19:42.049 +0200,12174.5902655,0.1046142578125,-0.2989501953125,-0.9561004638671875,12174.5702275,-1.427816983658278,0.1114485970312381,0.309230890406868,0.02475611492991447,-0.007758138235658407,0.003870643908157945,0.008172467350959778,0.005275189876556396,-0.008205115795135498,XArbitraryZVertical,-0.1522478779535295,0.05908872366967674,0.6394948010766446,-0.751249335302371,0.1059427261352539,-0.3043260872364044,-0.946658194065094
2020-08-20 22:19:42.070 +0200,12174.6103025,0.1003875732421875,-0.2965545654296875,-0.955780029296875,12174.5902655,-1.428040756222515,0.1117088845633394,0.3085048162010181,0.002138685900717974,-0.008352822624146938,-0.01024882774800062,0.002538740634918213,-0.003467023372650146,-0.006905436515808105,XArbitraryZVertical,-0.152055876037576,0.05877110181889753,0.6396106836912258,-0.7512144186084079,0.1062137261033058,-0.303634375333786,-0.9468499422073364
2020-08-20 22:19:42.089 +0200,12174.6303395,0.0923309326171875,-0.2954559326171875,-0.9546966552734375,12174.6103025,-1.428158758901,0.1108536242783699,0.3073732661118755,-0.01098750159144402,-0.02556722983717918,-0.01884790882468224,-0.001580782234668732,-0.003382861614227295,-0.007326662540435791,XArbitraryZVertical,-0.1513601590702019,0.05873206813334213,0.6398001137250574,-0.7511966613390973,0.1054418236017227,-0.3025560677051544,-0.9472813010215759
2020-08-20 22:19:42.109 +0200,12174.6503765,0.1075286865234375,-0.30340576171875,-0.9554595947265625,12174.6303395,-1.428006160781398,0.1095019497530518,0.3074413264733016,-0.01023156382143497,0.002984787337481976,-0.0104419831186533,-0.009157255291938782,-0.002007782459259033,-0.002463698387145996,XArbitraryZVertical,-0.1509574332516734,0.05925043000504784,0.6398401503242443,-0.7512028949508197,0.1041590645909309,-0.30262091755867,-0.9474024772644043
2020-08-20 22:19:42.129 +0200,12174.67041375,0.0863800048828125,-0.3282470703125,-0.949859619140625,12174.6503765,-1.42828988928386,0.1102527770729145,0.3067860115606389,-0.06924029439687729,-0.006327754817903042,-0.004513824358582497,0.005070686340332031,-0.009586483240127563,-0.003981590270996094,XArbitraryZVertical,-0.1509467560878844,0.058776011990829,0.6399362540289674,-0.7511604788396473,0.1048921719193459,-0.3019962906837463,-0.947520911693573
2020-08-20 22:19:42.149 +0200,12174.69045175,0.1004180908203125,-0.259124755859375,-0.960235595703125,12174.67041375,-1.427940140648077,0.1100127170508285,0.304379305559713,-0.223654493689537,-0.02808897569775581,0.06925314664840698,-0.003208734095096588,-0.05728194117546082,-0.0003148317337036133,XArbitraryZVertical,-0.1499893293843503,0.05805453787852563,0.6399921703953553,-0.7513606848901141,0.1047441959381104,-0.299701064825058,-0.9482657313346863
2020-08-20 22:19:42.184 +0200,12174.71048875,0.120819091796875,-0.2724151611328125,-0.9511566162109375,12174.69045175,-1.426964340173185,0.1096741251266617,0.302217295675577,-0.001685346942394972,-0.0044640745036304,-0.004700398072600365,-0.008093014359474182,0.02923470735549927,-0.008447587490081787,XArbitraryZVertical,-0.149108464865798,0.05740351882638181,0.6398018937073946,-0.7517480045307983,0.1044937968254089,-0.2976377308368683,-0.948943018913269
2020-08-20 22:19:42.198 +0200,12174.73052575,0.09429931640625,-0.2970123291015625,-0.94830322265625,12174.71048875,-1.426614286156905,0.1088042483294482,0.3045027255505378,0.1002741754055023,0.006723864935338497,0.00226430082693696,0.02135854959487915,0.02350524067878723,-0.0006099343299865723,XArbitraryZVertical,-0.1496870761398974,0.05844957677597509,0.6395758464117309,-0.7517447234186525,0.1035941541194916,-0.2998188138008118,-0.9483548402786255
2020-08-20 22:19:42.210 +0200,12174.75056375,0.0884246826171875,-0.29608154296875,-0.94268798828125,12174.73052575,-1.427233374876917,0.1088737041380229,0.30709038046391,0.08688952028751373,-0.005962102673947811,-0.03281668201088905,-0.003434009850025177,-0.005078911781311035,0.001150310039520264,XArbitraryZVertical,-0.1506494652542862,0.05931369446626925,0.6396219203136972,-0.7514455560976456,0.1035753786563873,-0.3022864162921906,-0.9475732445716858
2020-08-20 22:19:42.230 +0200,12174.77060075,0.098846435546875,-0.310943603515625,-0.9485931396484375,12174.75056375,-1.428243271820556,0.1092965367816873,0.3098852191781375,0.08943045139312744,-0.005588727071881294,-0.02608607523143291,-0.01253688335418701,0.000187218189239502,0.005386829376220703,XArbitraryZVertical,-0.1517890097630267,0.06014284544357607,0.6397720254836535,-0.7510224391894281,0.1038834750652313,-0.3049493134021759,-0.9466858506202698
2020-08-20 22:19:42.250 +0200,12174.79063775,0.1008758544921875,-0.3062286376953125,-0.950286865234375,12174.77060075,-1.42849526692374,0.1087209094262421,0.3103025343994041,0.07573220878839493,0.006028247065842152,0.001414181897416711,-0.0003377050161361694,-0.01445755362510681,-9.495019912719727e-05,XArbitraryZVertical,-0.1517516517172094,0.06051426126684157,0.6398807654252149,-0.750907518722264,0.1033246964216232,-0.3053467273712158,-0.946618914604187
2020-08-20 22:19:42.269 +0200,12174.81067475,0.09722900390625,-0.29345703125,-0.955657958984375,12174.79063775,-1.428948072724737,0.109566654772028,0.3094424982383823,-0.03756145387887955,0.004005310125648975,-0.03413662314414978,-0.0008971318602561951,-0.01113146543502808,0.0003015398979187012,XArbitraryZVertical,-0.1516904955202819,0.05995042631104402,0.6400475229866761,-0.7508229731687748,0.1041539385914803,-0.3045276701450348,-0.9467918872833252
2020-08-20 22:19:42.290 +0200,12174.83071175,0.1004180908203125,-0.285858154296875,-0.95684814453125,12174.81067475,-1.429408117538614,0.1096667137812982,0.3079455983901137,-0.1027330011129379,-0.01362215261906385,-0.02964653074741364,-0.003081835806369781,-0.000962674617767334,-0.007708549499511719,XArbitraryZVertical,-0.1511551296186138,0.05945902908943207,0.6403185346594136,-0.7507389337554928,0.1042984426021576,-0.303101509809494,-0.9472334980964661
2020-08-20 22:19:42.310 +0200,12174.85074975,0.1064605712890625,-0.2818756103515625,-0.95977783203125,12174.83071175,-1.429470825794415,0.1084522575948869,0.3065600235019294,-0.04407261684536934,-0.01492683589458466,-0.0246344618499279,-0.002041421830654144,0.006119251251220703,-0.008205115795135498,XArbitraryZVertical,-0.1502518521082943,0.05946721596996039,0.640531144532286,-0.7507382500812807,0.1031933575868607,-0.3017808198928833,-0.9477760791778564
2020-08-20 22:19:42.330 +0200,12174.87078675,0.0961761474609375,-0.3051910400390625,-0.957916259765625,12174.85074975,-1.429719019074426,0.1078879838728365,0.3080141857871013,0.07739216089248657,-0.01949761807918549,-0.009671987034380436,0.006350554525852203,0.01307761669158936,-0.009442329406738281,XArbitraryZVertical,-0.150601613477888,0.06017249113146892,0.6405645779506096,-0.7505834122971702,0.102611169219017,-0.3031668663024902,-0.9473968744277954
2020-08-20 22:19:42.350 +0200,12174.89082375,0.0934295654296875,-0.3065032958984375,-0.9584503173828125,12174.87078675,-1.430015366097062,0.1076504476274968,0.3108407707490941,0.07242083549499512,-0.01683579012751579,0.01782039552927017,-0.0003607869148254395,-0.005294084548950195,-0.009500384330749512,XArbitraryZVertical,-0.1515618086537678,0.06120698167785266,0.6404943646061012,-0.7503663722334862,0.1022936478257179,-0.3058592081069946,-0.9465654492378235
2020-08-20 22:19:42.370 +0200,12174.91086075,0.1067047119140625,-0.2962188720703125,-0.9566650390625,12174.89082375,-1.429530669725861,0.1073640967965422,0.3118256989643743,0.02512842416763306,-0.002783619798719883,0.02201506495475769,-0.008474364876747131,-0.01013809442520142,-0.009579598903656006,XArbitraryZVertical,-0.1518491808443676,0.06159922064573996,0.6402645059332851,-0.7504723142733442,0.1019902601838112,-0.3067967891693115,-0.9462947249412537
2020-08-20 22:19:42.390 +0200,12174.93089875,0.1003570556640625,-0.298370361328125,-0.9637298583984375,12174.91086075,-1.428876809909753,0.1066190522476555,0.3111971114658748,0.0163598321378231,-0.01476731151342392,0.03642189130187035,0.00874483585357666,0.0003293752670288086,-0.009106934070587158,XArbitraryZVertical,-0.1513983515068127,0.06162410884459537,0.64012004681052,-0.7506845678375522,0.1013057082891464,-0.3061984777450562,-0.9465619921684265
2020-08-20 22:19:42.424 +0200,12174.95093575,0.107208251953125,-0.29486083984375,-0.954315185546875,12174.93089875,-1.428253349553199,0.1065578402445259,0.3103477180662381,0.007075387518852949,-0.006277154665440321,0.04223808273673058,0.003479413688182831,-0.003918051719665527,-0.01330620050430298,XArbitraryZVertical,-0.1510836475893659,0.06132282378744282,0.6399505084183493,-0.7509171928320503,0.1012753918766975,-0.3053897619247437,-0.9468264579772949
2020-08-20 22:19:42.430 +0200,12174.97097275,0.1279449462890625,-0.278564453125,-0.9570770263671875,12174.95093575,-1.427652694309934,0.1065425609795366,0.3103784596866446,-0.009162704460322857,-0.01179495826363564,0.006163168698549271,0.007324375212192535,0.0007946789264678955,-0.004311084747314453,XArbitraryZVertical,-0.1511085491244095,0.06129320702092122,0.63972394761428,-0.7511076343887905,0.1012599244713783,-0.3054190278053284,-0.9468187093734741
2020-08-20 22:19:42.451 +0200,12174.99100975,0.0671539306640625,-0.3095703125,-0.95184326171875,12174.97097275,-1.428923094540872,0.1053733645326806,0.3117065321660157,0.07803770899772644,-0.07136827707290649,-0.1365614235401154,0.03193721175193787,0.01939964294433594,-0.009654581546783447,XArbitraryZVertical,-0.1511866552877554,0.06226136370585822,0.6401957331999362,-0.7506100988652432,0.1001100838184357,-0.3066833913326263,-0.9465322494506836
2020-08-20 22:19:42.470 +0200,12175.01104775,0.0997467041015625,-0.3050689697265625,-0.94952392578125,12174.99100975,-1.430185686036306,0.1059327165006799,0.3130847779785335,0.0940752699971199,0.004371761344373226,0.03215352818369865,-0.02659210562705994,-0.009068846702575684,-0.004822373390197754,XArbitraryZVertical,-0.1518360291948894,0.06259698962441612,0.6405297633248533,-0.7501659825836365,0.1005947291851044,-0.307994931936264,-0.9460548758506775
2020-08-20 22:19:42.490 +0200,12175.03108475,0.1171112060546875,-0.301361083984375,-0.9437103271484375,12175.01104775,-1.430318230894459,0.1069675218025994,0.3145305357445052,0.1009793728590012,0.01282436866313219,0.007497336715459824,-0.004957295954227448,-0.007019251585006714,0.0001089572906494141,XArbitraryZVertical,-0.1526976253371315,0.06269100599030739,0.6403980488639855,-0.7500957393665927,0.1015260070562363,-0.3093700706958771,-0.9455065727233887
2020-08-20 22:19:42.510 +0200,12175.05112175,0.088104248046875,-0.3094024658203125,-0.9438629150390625,12175.03108475,-1.430889586852614,0.1074299012413954,0.3149798785852594,0.06641753762960434,-0.01544561982154846,-0.06122306361794472,0.0188034400343895,-0.0009747147560119629,0.002996325492858887,XArbitraryZVertical,-0.1529938144657772,0.06270802400275921,0.6405449376308446,-0.7499085043086444,0.1019482687115669,-0.3097973465919495,-0.9453212022781372
2020-08-20 22:19:42.530 +0200,12175.07115875,0.1006317138671875,-0.3067779541015625,-0.947601318359375,12175.05112175,-1.432730484554822,0.1085478122538606,0.314586233533042,-0.002389885950833559,-0.007384230382740498,-0.04592148959636688,-0.008554838597774506,-0.009317785501480103,0.001171708106994629,XArbitraryZVertical,-0.1531491269710497,0.06230123703025608,0.6411775091106825,-0.7493700344627618,0.103018194437027,-0.30942302942276,-0.9453278183937073
2020-08-20 22:19:42.550 +0200,12175.09119675,0.1041412353515625,-0.2996826171875,-0.956298828125,12175.07115875,-1.433740678693687,0.1087155093141059,0.3138441140023582,-0.02343032509088516,0.01840342581272125,-0.06473139673471451,-0.00243069976568222,-0.00835379958152771,-0.002011537551879883,XArbitraryZVertical,-0.1528976315594638,0.06207296790634858,0.6415961926130961,-0.7490818863594698,0.1032016053795815,-0.3087172508239746,-0.9455385208129883
2020-08-20 22:19:42.570 +0200,12175.11123375,0.0897064208984375,-0.305572509765625,-0.9459991455078125,12175.09119675,-1.434628113754916,0.1081173968663212,0.314313309874182,0.02309603244066238,-0.005973820574581623,-0.04910792410373688,0.007257334887981415,-0.002138346433639526,-0.009003758430480957,XArbitraryZVertical,-0.1528511441813683,0.0625183169778627,0.6419406777492053,-0.7487591781821691,0.1026204079389572,-0.3091634809970856,-0.9454559683799744
2020-08-20 22:19:42.590 +0200,12175.13127075,0.10186767578125,-0.314788818359375,-0.945556640625,12175.11123375,-1.435691267769337,0.1095672120053451,0.3150385233188814,0.04656407609581947,0.01034682895988226,-0.0214085765182972,-0.01238822191953659,-0.003209531307220459,0.00122445821762085,XArbitraryZVertical,-0.1535507955071158,0.06229458888292955,0.6421755844660909,-0.7484330186006996,0.1039664894342422,-0.3098531067371368,-0.9450830817222595
2020-08-20 22:19:42.611 +0200,12175.15130775,0.1015472412109375,-0.3051605224609375,-0.948883056640625,12175.13127075,-1.435982643085574,0.1099439213148267,0.3164372139386706,0.03429116308689117,0.009787566028535366,0.01350801531225443,0.0002982243895530701,-0.01196148991584778,0.000127255916595459,XArbitraryZVertical,-0.1541780740157528,0.06263421202914843,0.6421548776613131,-0.7482935577477767,0.1042748466134071,-0.3111826479434967,-0.9446121454238892
2020-08-20 22:19:42.631 +0200,12175.17134575,0.1013946533203125,-0.294677734375,-0.9431610107421875,12175.15130775,-1.435514899444142,0.1090869221364566,0.3175952653886963,0.003546832129359245,0.003028728999197483,-0.002260904293507338,-0.0002219304442405701,-0.005463063716888428,-0.0001952648162841797,XArbitraryZVertical,-0.1543444022011564,0.06329810209772681,0.6419623671282296,-0.7483685569850566,0.1034259796142578,-0.3122829794883728,-0.944342315196991
2020-08-20 22:19:42.650 +0200,12175.19138275,0.09918212890625,-0.3010711669921875,-0.94415283203125,12175.17134575,-1.436185878966168,0.1103072326851233,0.3172973002415826,0.008161824196577072,0.003183458931744099,-0.021455904468894,0.0009708032011985779,0.008087068796157837,0.0007173418998718262,XArbitraryZVertical,-0.1546052200866337,0.06279576065303974,0.6421406982541905,-0.7482040037193582,0.1045885309576988,-0.3119999170303345,-0.9443078637123108
2020-08-20 22:19:42.670 +0200,12175.21141975,0.096954345703125,-0.2979583740234375,-0.934173583984375,12175.19138275,-1.436272976321392,0.1093971084282538,0.3172534326235667,0.0260328333824873,-0.002505319658666849,-0.01262082904577255,-0.002348132431507111,0.00244671106338501,0.00410306453704834,XArbitraryZVertical,-0.1542940777401355,0.06312857579590628,0.6422467345332933,-0.748149243430981,0.1037305444478989,-0.3119582235813141,-0.9444162249565125
2020-08-20 22:19:42.691 +0200,12175.23145675,0.0977630615234375,-0.3100433349609375,-0.9345550537109375,12175.21141975,-1.436294640435538,0.1091831841132594,0.3187549110741605,0.01199531182646751,0.006222657859325409,-0.001662644324824214,-0.004040606319904327,0.006544798612594604,0.01098126173019409,XArbitraryZVertical,-0.1547777906900058,0.06370217246674885,0.6421627831371371,-0.7480727849518859,0.1034773513674736,-0.3133844435214996,-0.9439717531204224
2020-08-20 22:19:42.710 +0200,12175.25149475,0.094207763671875,-0.309783935546875,-0.92413330078125,12175.23145675,-1.436309516145613,0.1092512949745075,0.3200757316985748,0.002620584797114134,0.01029516477137804,0.001749055227264762,-0.001358255743980408,-0.003913044929504395,0.01045286655426025,XArbitraryZVertical,-0.1552856582486442,0.06411055140390409,0.6420672690989878,-0.7480145823637286,0.1034964248538017,-0.3146384358406067,-0.9435523748397827
2020-08-20 22:19:42.730 +0200,12175.27153175,0.096160888671875,-0.3046722412109375,-0.9224853515625,12175.25149475,-1.436249799031043,0.1096792042991936,0.3186252956279893,-0.0358426496386528,0.01916588842868805,0.003803684143349528,-0.005932897329330444,-0.007231324911117554,0.0209803581237793,XArbitraryZVertical,-0.1548907321063244,0.06347070578386334,0.6421170015190754,-0.7481083729027369,0.1039500087499619,-0.3132613599300385,-0.9439606666564941
2020-08-20 22:19:42.751 +0200,12175.29156875,0.1071624755859375,-0.2895355224609375,-0.913604736328125,12175.27153175,-1.435792213819366,0.109313124963032,0.316862466912452,-0.05609652772545815,0.02125700190663338,0.01446583867073059,-0.006327629089355469,-0.003879815340042114,0.02307355403900146,XArbitraryZVertical,-0.15413822381478,0.06299485258302781,0.6421015667954832,-0.7483172144474788,0.1036645248532295,-0.3115867674350739,-0.944546103477478
2020-08-20 22:19:42.771 +0200,12175.31160575,0.1110382080078125,-0.2924041748046875,-0.911651611328125,12175.29156875,-1.435000790111984,0.1084000468772957,0.3157475097102572,-0.05563326925039291,0.02139309048652649,0.01431377325206995,0.006022751331329346,0.01001641154289246,0.0305485725402832,XArbitraryZVertical,-0.1534590620156572,0.06291058261303512,0.6419558293923849,-0.7485888439344168,0.1028395593166351,-0.310527116060257,-0.9449851512908936
2020-08-20 22:19:42.790 +0200,12175.33164375,0.1259765625,-0.303985595703125,-0.8748016357421875,12175.31160575,-1.434426180140659,0.1088145519247685,0.3158887091371134,-0.06939156353473663,0.03199033811688423,0.03354282304644585,0.01121725142002106,0.007857620716094971,0.03029710054397583,XArbitraryZVertical,-0.1536621929903714,0.06275750256257599,0.6416987583376939,-0.7487804995454692,0.1032264903187752,-0.3106613159179688,-0.9448988437652588
2020-08-20 22:19:42.811 +0200,12175.35168075,0.14666748046875,-0.3174285888671875,-0.8350677490234375,12175.33164375,-1.432973249301768,0.1087552294583369,0.3151335739998339,-0.1512599140405655,0.03097886964678764,0.07661648094654083,0.0234234556555748,-0.003305613994598389,0.06997275352478027,XArbitraryZVertical,-0.1534100677272076,0.06242113393052218,0.6412133686766556,-0.7492759191629113,0.1031958684325218,-0.3099434673786163,-0.9451379179954529
2020-08-20 22:19:42.831 +0200,12175.37171775,0.207427978515625,-0.380279541015625,-0.767364501953125,12175.35168075,-1.430202755241835,0.1081568305704093,0.3122055646625106,-0.2958164513111115,0.01665559038519859,0.1428573280572891,0.04298104345798492,-0.01534301042556763,0.1054487228393555,XArbitraryZVertical,-0.1522227462857594,0.06147690480916948,0.6404294486171359,-0.7502659461293836,0.1027278006076813,-0.3071583211421967,-0.9460976719856262
2020-08-20 22:19:42.851 +0200,12175.39175475,0.3010406494140625,-0.4131317138671875,-0.6507110595703125,12175.37171775,-1.424271399175791,0.1069133350636787,0.3051332167329273,-0.6055259704589844,-0.03612026944756508,0.3982488811016083,0.09837289154529572,-0.08281633257865906,0.168997585773468,XArbitraryZVertical,-0.1493853758914468,0.05919086646589389,0.6387922511291039,-0.7524126973791124,0.1017805188894272,-0.3004202544689178,-0.9483609199523926
2020-08-20 22:19:42.871 +0200,12175.41179275,0.3488311767578125,-0.3489990234375,-0.55517578125,12175.39175475,-1.410178083952362,0.1010565173718549,0.2893335948236547,-1.172637701034546,-0.1990591287612915,0.7886704206466675,0.1972989737987518,-0.1362590193748474,0.2903843522071838,XArbitraryZVertical,-0.1420391331431277,0.05525102523572004,0.634968033446862,-0.7573557671661766,0.09669125080108643,-0.2853135764598846,-0.9535444378852844
2020-08-20 22:19:42.891 +0200,12175.43182975,0.33209228515625,-0.227447509765625,-0.5005340576171875,12175.41179275,-1.386853128951704,0.08871694710610667,0.2620364071887846,-1.755694150924683,-0.3941053152084351,1.184357047080994,0.2647567391395569,-0.1138456463813782,0.3928501009941101,XArbitraryZVertical,-0.1284747037470261,0.04961130927970396,0.6286193114789917,-0.7654219900186352,0.08557618409395218,-0.2590479850769043,-0.9620659351348877
2020-08-20 22:19:42.922 +0200,12175.45186675,0.3256378173828125,-0.0729217529296875,-0.4143524169921875,12175.43182975,-1.355582962690916,0.07165548558074765,0.224433517706651,-2.14133095741272,-0.5375044941902161,1.538157820701599,0.2667102515697479,-0.02678975462913513,0.4733781814575195,XArbitraryZVertical,-0.1094935618981189,0.04244868709381922,0.6196056651096196,-0.7760786379424223,0.06979862600564957,-0.2225541174411774,-0.9724185466766357
2020-08-20 22:19:42.931 +0200,12175.47190375,0.3521270751953125,0.010498046875,-0.3827972412109375,12175.45186675,-1.318428993610887,0.05357712768397764,0.182823749925192,-2.263274192810059,-0.5089938044548035,1.816678047180176,0.2697547972202301,0.08554801344871521,0.5552361011505127,XArbitraryZVertical,-0.08846962286124858,0.03480669514108001,0.6077872310631052,-0.7883884337944016,0.05265902355313301,-0.1818069815635681,-0.9819232225418091
2020-08-20 22:19:42.951 +0200,12175.49194175,0.305419921875,0.059234619140625,-0.3618011474609375,12175.47190375,-1.277255175303261,0.03723193836810548,0.1372862778391075,-2.425863742828369,-0.4581570029258728,2.017579317092896,0.3147309422492981,0.1354160010814667,0.6062902808189392,XArbitraryZVertical,-0.06613185871151403,0.02596758309028907,0.5935620661657781,-0.8016460640371691,0.03687310218811035,-0.1368554383516312,-0.989904522895813
2020-08-20 22:19:42.971 +0200,12175.51197875,0.1436614990234375,0.1297454833984375,-0.376922607421875,12175.49194175,-1.233907982503108,0.02442645028732351,0.08891268115953253,-2.510348081588745,-0.3006579279899597,2.115720987319946,0.2950739860534668,0.1407984048128128,0.6342812776565552,XArbitraryZVertical,-0.04330477019312496,0.0157584173973479,0.5774959584863311,-0.8150918833828665,0.02432754263281822,-0.08879557996988297,-0.99575275182724
2020-08-20 22:19:42.991 +0200,12175.53201575,0.0217742919921875,0.263427734375,-0.46826171875,12175.51197875,-1.189670259723102,0.01864277383173453,0.03963096900568667,-2.51013445854187,0.03385614976286888,2.215692520141602,0.148193433880806,0.1565442532300949,0.6280075907707214,XArbitraryZVertical,-0.02163255279311041,0.003384111349798327,0.5600848870061824,-0.8281458217138403,0.01862705685198307,-0.03962059691548347,-0.9990411400794983
2020-08-20 22:19:43.011 +0200,12175.55205275,0.054718017578125,0.3238067626953125,-0.70989990234375,12175.53201575,-1.142559436677284,0.02429119029091492,-0.009769737396877788,-2.522862672805786,0.6054155230522156,2.362156391143799,0.006355341523885727,0.231789231300354,0.5430028438568115,XArbitraryZVertical,-0.002458113233335799,-0.01285770660500444,0.5407125776184359,-0.8411055528719725,0.02428764291107655,0.009769582189619541,-0.9996572732925415
2020-08-20 22:19:43.031 +0200,12175.57209075,0.156341552734375,0.1390838623046875,-0.7877655029296875,12175.55205275,-1.093415557341143,0.04171069119206774,-0.05884077008927615,-2.403109788894653,0.9165734052658081,2.402917385101318,0.002232756465673447,0.2821381688117981,0.3225699663162231,XArbitraryZVertical,0.01428624914933555,-0.03309595367508994,0.520063738992564,-0.8533664590028064,0.04162643477320671,0.05880682170391083,-0.9974011182785034
2020-08-20 22:19:43.051 +0200,12175.59212775,0.2233734130859375,0.055450439453125,-0.794342041015625,12175.57209075,-1.04037052113226,0.0664652717255248,-0.09854545536379443,-1.986917018890381,1.161093950271606,2.6792893409729,0.08200676739215851,0.05672534555196762,0.2024280428886414,XArbitraryZVertical,0.02621948991499352,-0.05326369600565131,0.4975835925396651,-0.8653820364745839,0.06609411537647247,0.09838603436946869,-0.9929510354995728
2020-08-20 22:19:43.071 +0200,12175.61216475,0.3060302734375,0.049774169921875,-0.7570037841796875,12175.59212775,-0.9812373651975334,0.09942767131100393,-0.1387070566508899,-2.505771636962891,1.411176204681396,2.799118518829346,0.1178641691803932,-0.06590263545513153,0.1871395111083984,XArbitraryZVertical,0.03769032971756544,-0.07633712819182983,0.472495712849725,-0.8772113970466999,0.09831055998802185,0.1382627040147781,-0.985504150390625
2020-08-20 22:19:43.091 +0200,12175.63220175,0.3863677978515625,0.137725830078125,-0.772674560546875,12175.61216475,-0.9167394690374941,0.1406013386471638,-0.1847982621437199,-2.816437244415283,1.675224900245667,2.995120525360107,0.1633821278810501,-0.1396600008010864,0.2165923714637756,XArbitraryZVertical,0.05159009105716494,-0.1034496412605388,0.4453229635676134,-0.8878762452693789,0.1377524584531784,0.1837482303380966,-0.9732732772827148
2020-08-20 22:19:43.111 +0200,12175.65223975,0.480804443359375,0.169342041015625,-0.8192901611328125,12175.63220175,-0.8436760362946214,0.1927361435392786,-0.2317227389594141,-2.902170658111572,2.004561424255371,3.258123636245728,0.1935303807258606,-0.09073254466056824,0.1885529756546021,XArbitraryZVertical,0.06584744646375011,-0.1343080654779665,0.414954079034581,-0.8974622749336926,0.186425507068634,0.2296545505523682,-0.9552509188652039
2020-08-20 22:19:43.131 +0200,12175.6722765,0.5974884033203125,0.2516632080078125,-0.8872528076171875,12175.65223975,-0.761593100976689,0.2564255832581474,-0.272129300758185,-2.800546169281006,2.302252769470215,3.608078479766846,0.2319209277629852,-0.09668388962745667,0.1326862573623657,XArbitraryZVertical,0.07781324200650459,-0.1676059168853662,0.3813040905848596,-0.9057927770696473,0.2442914396524429,0.2687830030918121,-0.9317067265510559
2020-08-20 22:19:43.151 +0200,12175.6923135,0.7006072998046875,0.2547607421875,-0.8327484130859375,12175.6722765,-0.6692672500738298,0.3309591855342685,-0.303794019625347,-2.84605884552002,2.48151683807373,3.922966003417969,0.2797941267490387,-0.04605716466903687,0.0207066535949707,XArbitraryZVertical,0.08749122882524389,-0.2028127347894151,0.3437494387535837,-0.9127149717975315,0.3100703060626984,0.2991426289081573,-0.9024245738983154
2020-08-20 22:19:43.171 +0200,12175.7123505,0.7646026611328125,0.2137451171875,-0.759674072265625,12175.6923135,-0.5663362361802154,0.4136707290410724,-0.3281500174470583,-2.979440689086914,2.586514472961426,4.31196117401123,0.3226335644721985,-0.05710792541503906,0.03059470653533936,XArbitraryZVertical,0.09688419101000012,-0.239201197817131,0.301979606446692,-0.9177170395123621,0.3805239200592041,0.3222923278808594,-0.8667925000190735
2020-08-20 22:19:43.192 +0200,12175.7323885,0.868408203125,0.1830902099609375,-0.7237091064453125,12175.7123505,-0.4507212261908701,0.5045630783443253,-0.3440052647519971,-3.288567781448364,2.67161750793457,4.755362987518311,0.3127702176570892,-0.1038244664669037,0.05703067779541016,XArbitraryZVertical,0.1065918622493511,-0.2767473565613913,0.2548339951775209,-0.9203850836297059,0.4551018178462982,0.3372603952884674,-0.8240981698036194
2020-08-20 22:19:43.211 +0200,12175.7524255,1.125961303710938,0.45672607421875,-0.7257537841796875,12175.7323885,-0.3207693399777756,0.6034091081759236,-0.3514298392400367,-3.744542598724365,2.751725912094116,5.211784362792969,0.3337398767471313,-0.1587303876876831,0.07004475593566895,XArbitraryZVertical,0.1180506035876262,-0.3154739244152636,0.2014150704674917,-0.9197674404601835,0.5327709317207336,0.3442406058311462,-0.7730805277824402
2020-08-20 22:19:43.232 +0200,12175.7724625,1.429046630859375,0.6564178466796875,-0.65380859375,12175.7524255,-0.181879610655422,0.7053053238912941,-0.346520687389302,-3.657666683197021,2.624276399612427,5.35906982421875,0.4933795928955078,0.08425033092498779,-0.007108151912689209,XArbitraryZVertical,0.1302203928170198,-0.3535039070384704,0.1432468930113149,-0.915181905743841,0.6097334027290344,0.3396273553371429,-0.7161552906036377
2020-08-20 22:19:43.252 +0200,12175.7924995,1.455825805664062,0.5301971435546875,-0.581634521484375,12175.7724625,-0.04706449697337125,0.8009094068211489,-0.3241788931382455,-3.43781304359436,2.485827207565308,5.459079265594482,0.7433927655220032,0.3451733589172363,0.009795606136322021,XArbitraryZVertical,0.1395189939454175,-0.3881175784964105,0.08427918113245253,-0.9070811264961587,0.6805911660194397,0.3185305595397949,-0.6597983837127686
2020-08-20 22:19:43.271 +0200,12175.8125375,1.4512939453125,0.4911346435546875,-0.448974609375,12175.7924995,0.08186658363733472,0.8890663490552149,-0.2872231299977241,-3.346848487854004,2.462286710739136,5.393641948699951,0.7421431541442871,0.2772427201271057,0.02341866493225098,XArbitraryZVertical,0.1465174651378528,-0.4199655100882203,0.02493018660519802,-0.8952877052826398,0.7446745038032532,0.2832902073860168,-0.6043232083320618
2020-08-20 22:19:43.291 +0200,12175.8325745,1.58416748046875,0.5682373046875,-0.37109375,12175.8125375,0.2068453834354567,0.9733218251402008,-0.2452484355779283,-3.915552854537964,2.686893463134766,5.120415687561035,0.6652085781097412,0.2514505386352539,0.09246963262557983,XArbitraryZVertical,0.1554580263968572,-0.4505233836498415,-0.03366791635700979,-0.8784805373307406,0.8020199537277222,0.2427973300218582,-0.5457229614257812
2020-08-20 22:19:43.311 +0200,12175.8526115,1.69683837890625,0.6779632568359375,-0.4713134765625,12175.8325745,0.3358149843578593,1.05784393990796,-0.206831576617611,-4.672707557678223,2.803965330123901,4.744433403015137,0.7377868294715881,0.3573102355003357,0.131051778793335,XArbitraryZVertical,0.1717502314376305,-0.479953932817732,-0.09215377723861144,-0.8553676342036314,0.8527289628982544,0.2053600400686264,-0.4802921712398529
2020-08-20 22:19:43.332 +0200,12175.8726485,1.693740844726562,0.7736358642578125,-0.62847900390625,12175.8526115,0.4656964639171417,1.136365651805283,-0.1693727065083896,-4.855521202087402,2.551522016525269,4.390213489532471,0.8239633440971375,0.4999478459358215,-0.0227239727973938,XArbitraryZVertical,0.1930929335610669,-0.5052518845874546,-0.1495103669757913,-0.8276969239014598,0.8941296339035034,0.1685640662908554,-0.4148713052272797
2020-08-20 22:19:43.352 +0200,12175.8926865,1.572830200195312,0.826690673828125,-0.6413726806640625,12175.8726485,0.5868462774508855,1.200871840420382,-0.1279395733528633,-4.45616340637207,2.061498165130615,4.094927310943604,0.8039333820343018,0.6389277577400208,-0.2328585982322693,XArbitraryZVertical,0.213572212188857,-0.5244920068781032,-0.2035784102938902,-0.7986556930639667,0.9247344136238098,0.1275908350944519,-0.3585900962352753
2020-08-20 22:19:43.372 +0200,12175.9127235,1.381439208984375,0.790313720703125,-0.504150390625,12175.8926865,0.6907544104557843,1.248343280877715,-0.08200273494451407,-3.663717031478882,1.552391648292542,3.676752328872681,0.6759511828422546,0.7471295595169067,-0.3099721670150757,XArbitraryZVertical,0.2289888273367313,-0.5381909310228875,-0.2519451004305699,-0.7709983111826194,0.9452738165855408,0.0819108635187149,-0.3158292770385742
2020-08-20 22:19:43.408 +0200,12175.9327605,1.148178100585938,0.7031097412109375,-0.350799560546875,12175.9127235,0.7720675519378603,1.278017343345745,-0.03648644123347952,-2.665585517883301,0.9434359669685364,3.08296275138855,0.483361542224884,0.7639508247375488,-0.2198023200035095,XArbitraryZVertical,0.2380826216071583,-0.5469055488290213,-0.2920961671815992,-0.7475900028393282,0.9568082690238953,0.03647834807634354,-0.2884219586849213
2020-08-20 22:19:43.422 +0200,12175.9527975,1.006057739257812,0.6273345947265625,-0.29150390625,12175.9327605,0.8272849635284372,1.293598341849176,0.004633284830120812,-1.445962905883789,0.5660231113433838,2.396674156188965,0.2407311797142029,0.7195779085159302,-0.06755936145782471,XArbitraryZVertical,0.2405340894398604,-0.5525522346313749,-0.3220381688547969,-0.7301512900725158,0.9618157744407654,-0.004633268341422081,-0.2736587524414062
2020-08-20 22:19:43.432 +0200,12175.9728355,0.937713623046875,0.55108642578125,-0.298370361328125,12175.9527975,0.8553367451228733,1.302850594690062,0.03891097959493855,-0.3778680264949799,0.4325670599937439,1.649331092834473,0.0849616527557373,0.6753172874450684,-0.007935225963592529,XArbitraryZVertical,0.2373469118006846,-0.5580243079786406,-0.3404886472167372,-0.7185699605352506,0.9635868668556213,-0.03890116140246391,-0.2645506262779236
2020-08-20 22:19:43.452 +0200,12175.9928725,0.923614501953125,0.5101318359375,-0.3064422607421875,12175.9728355,0.8620631896447075,1.310520791390549,0.06375071695781889,0.3238351047039032,0.3747924268245697,0.9287869334220886,0.01025694608688354,0.619446337223053,-0.01412582397460938,XArbitraryZVertical,0.2315106050138624,-0.5639067421996345,-0.3487515873259371,-0.7118879052239415,0.9643561840057373,-0.06370754539966583,-0.2568240463733673
2020-08-20 22:19:43.472 +0200,12176.0129095,0.96630859375,0.450469970703125,-0.330047607421875,12175.9928725,0.8554471712315795,1.31809441636879,0.0774805870901715,0.6023362278938293,0.3232815563678741,0.2431098222732544,-0.01554882526397705,0.5924504995346069,-0.03307265043258667,XArbitraryZVertical,0.2259572081931692,-0.5694803718032314,-0.3492659148244449,-0.708977334060454,0.9653356671333313,-0.07740309089422226,-0.249270886182785
2020-08-20 22:19:43.492 +0200,12176.0329465,0.97479248046875,0.373443603515625,-0.376129150390625,12176.0129095,0.8430091083168565,1.324290865835789,0.08012376251693475,0.6394721865653992,0.1979707926511765,-0.267355740070343,0.02625840902328491,0.5350369215011597,-0.06028562784194946,XArbitraryZVertical,0.2225151809214282,-0.5734720046388753,-0.3448833389125254,-0.708993916985739,0.9666599035263062,-0.08003806322813034,-0.24323371052742
2020-08-20 22:19:43.512 +0200,12176.0529845,0.96978759765625,0.30413818359375,-0.3797149658203125,12176.0329465,0.8292540966386265,1.327987194354832,0.07366868287139317,0.5001612901687622,0.06908950209617615,-0.6779578328132629,0.03505885601043701,0.4552220702171326,-0.1089682579040527,XArbitraryZVertical,0.2215494020997803,-0.575349257108738,-0.3378148020587098,-0.7111752979583753,0.9680336713790894,-0.07360206544399261,-0.2397781908512115
2020-08-20 22:19:43.532 +0200,12176.0730215,0.9351806640625,0.2722015380859375,-0.3888702392578125,12176.0529845,0.8182539613256784,1.328973440197621,0.05896372933639654,0.1856986582279205,-0.03968624398112297,-1.001143455505371,0.03356236219406128,0.367425411939621,-0.1174036860466003,XArbitraryZVertical,0.2239135199473438,-0.5747472356135537,-0.3297093518238963,-0.7147167990937701,0.9692157506942749,-0.05892957001924515,-0.2390567064285278
2020-08-20 22:19:43.552 +0200,12176.0930585,0.9072418212890625,0.3098602294921875,-0.3858184814453125,12176.0730215,0.8128325755672746,1.327656162220594,0.03660846495722059,-0.1936075091362,-0.1106869205832481,-1.303180456161499,-0.0004611611366271973,0.3076395392417908,-0.1252405047416687,XArbitraryZVertical,0.2302882958603769,-0.5715523997236956,-0.3216761724149522,-0.7189016853856626,0.9699364900588989,-0.03660028800368309,-0.2405903041362762
2020-08-20 22:19:43.572 +0200,12176.1130955,0.873870849609375,0.346038818359375,-0.370086669921875,12176.0930585,0.8123284411324874,1.325183994629274,0.00686996152587893,-0.4224653244018555,-0.1238298863172531,-1.57349157333374,-0.02868783473968506,0.3085831701755524,-0.1196983456611633,XArbitraryZVertical,0.24055439961496,-0.5661813250215745,-0.3134272650201083,-0.7234193626983609,0.9699656963348389,-0.0068699074909091,-0.2431445717811584
2020-08-20 22:19:43.592 +0200,12176.1331335,0.8657684326171875,0.335205078125,-0.3710174560546875,12176.1130955,0.8114356113870803,1.323067069008712,-0.02790050925126985,-0.2792939245700836,-0.08825644105672836,-1.805989980697632,-0.06328952312469482,0.3194775879383087,-0.101392388343811,XArbitraryZVertical,0.2525517525371028,-0.5600568975685117,-0.3035170588406274,-0.7283072292286076,0.9690945148468018,0.02789689041674137,-0.2451077699661255
2020-08-20 22:19:43.612 +0200,12176.1531705,0.85052490234375,0.3145904541015625,-0.371673583984375,12176.1331335,0.8031355942006015,1.321385530539305,-0.06482525233058807,0.2280242741107941,-0.0319521576166153,-1.955084443092346,-0.06997919082641602,0.2749307453632355,-0.1025728583335876,XArbitraryZVertical,0.2632838632931753,-0.5545487555828214,-0.2901447199101694,-0.7341480049211423,0.9670225977897644,0.0647798627614975,-0.2463145703077316
2020-08-20 22:19:43.632 +0200,12176.1732075,0.85174560546875,0.2694091796875,-0.37005615234375,12176.1531705,0.7825754537391102,1.319448131980967,-0.1012086128680053,0.8472249507904053,0.01433890778571367,-2.066421031951904,-0.08374261856079102,0.2213478684425354,-0.1010422706604004,XArbitraryZVertical,0.2703952483596818,-0.5506067184074078,-0.2723063834558916,-0.7413284240393538,0.9636214971542358,0.1010359153151512,-0.2474372982978821
2020-08-20 22:19:43.652 +0200,12176.1932445,0.854339599609375,0.221893310546875,-0.3739776611328125,12176.1732075,0.7505013713440827,1.316544341177326,-0.1364172842238011,1.320242166519165,0.07730056345462799,-2.113592386245728,-0.07888412475585938,0.1439979076385498,-0.09826552867889404,XArbitraryZVertical,0.2738519637475338,-0.5480991912129545,-0.2504572978055434,-0.7495755065783246,0.958859920501709,0.1359945684671402,-0.2491847574710846
2020-08-20 22:19:43.672 +0200,12176.2132825,0.8616943359375,0.1853790283203125,-0.388214111328125,12176.1932445,0.7107536621743478,1.312489839459281,-0.1697170886098442,1.607888460159302,0.1194000840187073,-2.08971905708313,-0.06976842880249023,0.06304953992366791,-0.09690111875534058,XArbitraryZVertical,0.2744884191830307,-0.5465979715218008,-0.2261973126377805,-0.7581039208963609,0.9529331922531128,0.1689035147428513,-0.2517735362052917
2020-08-20 22:19:43.692 +0200,12176.2333195,0.8866119384765625,0.1453399658203125,-0.3793487548828125,12176.2132825,0.6664438022692553,1.306884194264472,-0.2009479802597356,1.75858473777771,0.1403064280748367,-2.040386199951172,-0.05734133720397949,-0.004247963428497314,-0.1099830269813538,XArbitraryZVertical,0.273103310347336,-0.5455359784568971,-0.2007743316465218,-0.7664820458444181,0.9459513425827026,0.1995983272790909,-0.2556101679801941
2020-08-20 22:19:43.712 +0200,12176.2533565,0.874359130859375,0.13128662109375,-0.3194732666015625,12176.2333195,0.6206309867714789,1.300058782488884,-0.2303267143872845,1.747511267662048,0.1549178659915924,-1.964918494224548,-0.02450644969940186,-0.07107466459274292,-0.09731978178024292,XArbitraryZVertical,0.2706881668381159,-0.5445531596532249,-0.1752533691776495,-0.7742584002269589,0.9381277561187744,0.228295624256134,-0.2603795528411865
2020-08-20 22:19:43.733 +0200,12176.2733935,0.8621978759765625,0.1401214599609375,-0.2881927490234375,12176.2533565,0.5773649001933626,1.293140724249645,-0.2586647682007918,1.484516382217407,0.2028861790895462,-1.902335286140442,-0.0220075249671936,-0.1150070875883102,-0.04323720932006836,XArbitraryZVertical,0.2687594966675628,-0.5433937702797861,-0.1508441029178988,-0.7808569842209898,0.9297072291374207,0.2557899653911591,-0.2649830877780914
2020-08-20 22:19:43.753 +0200,12176.2934315,0.8668670654296875,0.1903839111328125,-0.2935943603515625,12176.2733935,0.5395581539884376,1.287509189612921,-0.2868604613282824,1.256137490272522,0.26542067527771,-1.781775951385498,-0.02872347831726074,-0.1387717127799988,0.003582954406738281,XArbitraryZVertical,0.26851664950827,-0.5420821531427953,-0.1282960579899619,-0.7858663225422856,0.9209074974060059,0.2829423844814301,-0.2680914998054504
2020-08-20 22:19:43.773 +0200,12176.3134685,0.9043121337890625,0.2177276611328125,-0.3094024658203125,12176.2934315,0.5040777621485673,1.28390902567109,-0.3122673534655037,1.317741990089417,0.4304506480693817,-1.600250363349915,-0.02146971225738525,-0.1137424111366272,-0.001014232635498047,XArbitraryZVertical,0.2681116615099231,-0.5417327010551949,-0.107138836759446,-0.7894068235307036,0.9127452969551086,0.3072171211242676,-0.2692836225032806
2020-08-20 22:19:43.792 +0200,12176.3335055,0.9261932373046875,0.240142822265625,-0.32208251953125,12176.3134685,0.4667138652067774,1.282315746410989,-0.3327803427426754,1.509391903877258,0.5772004127502441,-1.35476016998291,0.02142524719238281,-0.100354015827179,-0.01482570171356201,XArbitraryZVertical,0.2655364187851982,-0.5431818238872574,-0.08638269539124736,-0.7918219212428595,0.9060820341110229,0.3266721069812775,-0.268887847661972
2020-08-20 22:19:43.812 +0200,12176.3535425,0.91046142578125,0.253173828125,-0.298675537109375,12176.3335055,0.4255932622050259,1.281062619362817,-0.3469771876267783,1.804399371147156,0.6567919254302979,-1.110714673995972,0.05283546447753906,-0.09260329604148865,-0.03302586078643799,XArbitraryZVertical,0.2596004496667082,-0.5461429711325564,-0.06595479567191989,-0.7937162558688059,0.9012088775634766,0.3400566875934601,-0.268670916557312
2020-08-20 22:19:43.832 +0200,12176.3735805,0.8950347900390625,0.257080078125,-0.2798309326171875,12176.3535425,0.3799260472488415,1.278955104236371,-0.3548242852634314,2.05707311630249,0.6965747475624084,-0.8773940801620483,0.04230940341949463,-0.08399724960327148,-0.01011788845062256,XArbitraryZVertical,0.2499799539118127,-0.5501029509361898,-0.0457082563272938,-0.795491975889997,0.8980572819709778,0.3474256098270416,-0.2697935402393341
2020-08-20 22:19:43.855 +0200,12176.3936175,0.924560546875,0.245025634765625,-0.255767822265625,12176.3735805,0.3314761203366786,1.276120027873126,-0.3572895758963366,2.189211130142212,0.701763391494751,-0.6780020594596863,0.02671539783477783,-0.0822233259677887,0.01302647590637207,XArbitraryZVertical,0.2374836424488322,-0.5545782562364665,-0.02601968492917851,-0.7970994637496082,0.8964665532112122,0.3497362732887268,-0.2720889449119568
2020-08-20 22:19:43.873 +0200,12176.4136545,0.936798095703125,0.2263336181640625,-0.2249298095703125,12176.3936175,0.28284229511919,1.27293672203319,-0.3557211373666214,2.178524017333984,0.6666759848594666,-0.506714403629303,0.05167984962463379,-0.09050354361534119,0.03886508941650391,XArbitraryZVertical,0.2233154717379276,-0.5590878614251356,-0.007457212033704677,-0.7984330807840099,0.8961191177368164,0.3482664525508881,-0.2751019299030304
2020-08-20 22:19:43.909 +0200,12176.4336915,0.9082794189453125,0.2064666748046875,-0.191375732421875,12176.4136545,0.2371249788342648,1.269299854113801,-0.3516643672405734,2.013249635696411,0.5418229699134827,-0.3802189528942108,0.06926888227462769,-0.1043326258659363,0.07324874401092529,XArbitraryZVertical,0.2089259045298029,-0.5629935726619464,0.00920195817503679,-0.7995645803351737,0.896454393863678,0.3444607853889465,-0.2787764072418213
2020-08-20 22:19:43.929 +0200,12176.4537295,0.86346435546875,0.2019500732421875,-0.134674072265625,12176.4336915,0.1962807905356668,1.26484128091601,-0.3468666055818733,1.78745973110199,0.4108982384204865,-0.3107799291610718,0.04421478509902954,-0.1207007467746735,0.1090009808540344,XArbitraryZVertical,0.1955698475872038,-0.5657913936647138,0.02366495994533981,-0.8006700579670274,0.8967681527137756,0.3399527072906494,-0.2832650542259216
2020-08-20 22:19:43.933 +0200,12176.4737665,0.8877105712890625,0.2090301513671875,-0.07025146484375,12176.4537295,0.1603250856561552,1.260132391362382,-0.3417579259660737,1.596696376800537,0.3514647483825684,-0.2264292538166046,-0.002643883228302002,-0.124112457036972,0.162398636341095,XArbitraryZVertical,0.1834499657939689,-0.56775010977517,0.03611182684479348,-0.8016869349679987,0.8970662355422974,0.3351438641548157,-0.2880118489265442
2020-08-20 22:19:43.957 +0200,12176.4938035,0.96649169921875,0.2523040771484375,-0.0908355712890625,12176.4737665,0.1290703530249816,1.256981959510726,-0.3354028519430239,1.390466690063477,0.3629914224147797,-0.03884809464216232,0.009614884853363037,-0.1116507947444916,0.2403827905654907,XArbitraryZVertical,0.1721238457528323,-0.5697625083613004,0.04649460519623465,-0.8022358370575817,0.8981621265411377,0.329149603843689,-0.2914881408214569
2020-08-20 22:19:43.973 +0200,12176.5138405,1.056961059570312,0.2734832763671875,-0.0999603271484375,12176.4938035,0.1025785467241876,1.255283793744282,-0.3249731104072486,1.344793200492859,0.3229297697544098,0.2505992650985718,0.08309143781661987,-0.06348481774330139,0.2300446629524231,XArbitraryZVertical,0.160478064839276,-0.5720276785975963,0.05392448294447845,-0.8025729574345136,0.9008805155754089,0.3192833065986633,-0.2940622568130493
2020-08-20 22:19:43.993 +0200,12176.5338785,1.144821166992188,0.2560272216796875,-0.0838623046875,12176.5138405,0.07783850533164789,1.253353498974081,-0.3084615250072271,1.386714220046997,0.2567480802536011,0.6129270195960999,0.1675165295600891,-0.02043250203132629,0.2185143232345581,XArbitraryZVertical,0.1468828943048984,-0.574214693990912,0.05888140800770837,-0.8032657457217609,0.9051966667175293,0.3035931289196014,-0.2974058091640472
2020-08-20 22:19:44.013 +0200,12176.5539155,1.235488891601562,0.2477874755859375,-0.0432891845703125,12176.5338785,0.05667351928986313,1.251751669176833,-0.2843088944782709,1.252145767211914,0.2012739032506943,1.042057275772095,0.2500199675559998,-0.01222318410873413,0.2366049289703369,XArbitraryZVertical,0.1312056338625784,-0.5764122691105042,0.06023076090623441,-0.8043048586976254,0.9114171266555786,0.2804941534996033,-0.3010679483413696
