loggingTime(txt),accelerometerTimestamp_sinceReboot(s),accelerometerAccelerationX(G),accelerometerAccelerationY(G),accelerometerAccelerationZ(G),motionTimestamp_sinceReboot(s),motionYaw(rad),motionRoll(rad),motionPitch(rad),motionRotationRateX(rad/s),motionRotationRateY(rad/s),motionRotationRateZ(rad/s),motionUserAccelerationX(G),motionUserAccelerationY(G),motionUserAccelerationZ(G),motionAttitudeReferenceFrame(txt),motionQuaternionX(R),motionQuaternionY(R),motionQuaternionZ(R),motionQuaternionW(R),motionGravityX(G),motionGravityY(G),motionGravityZ(G)
2020-08-20 22:25:43.448 +0200,12516.03403416667,0.0860595703125,-0.462249755859375,-0.874053955078125,12516.01900616667,-1.131814105341536,0.1074001399616259,0.5084765447394053,0.1208315119147301,-0.1967959702014923,0.06734240800142288,0.01599769294261932,0.01817578077316284,-0.009958386421203613,XArbitraryZVertical,0.2398467789859152,-0.09080949032762781,-0.5068031550496295,0.8230296502898368,0.09363240003585815,-0.4868471026420593,-0.8684543371200562
2020-08-20 22:25:43.475 +0200,12516.05407116667,0.0663299560546875,-0.502532958984375,-0.873504638671875,12516.03904316667,-1.129243267766354,0.1040631670648977,0.5075249878956831,-0.05191110074520111,-0.06363844871520996,0.1641697734594345,0.02239067852497101,0.01321986317634583,-0.0003643035888671875,XArbitraryZVertical,0.2387339713838572,-0.09162396267784004,-0.5062285988537332,0.8236162576347614,0.09078195691108704,-0.4860157072544098,-0.8692222833633423
2020-08-20 22:25:43.488 +0200,12516.07410816667,0.112701416015625,-0.4906768798828125,-0.8730010986328125,12516.05908016667,-1.127621048008107,0.1040980228236067,0.5043698754306174,-0.1895173043012619,-0.02350061573088169,0.05013835057616234,-0.03275471925735474,-0.03152233362197876,0.001106023788452148,XArbitraryZVertical,0.2375387897406766,-0.09058343315297102,-0.5058341017557347,0.8243190442997314,0.09097114205360413,-0.4832558631896973,-0.8707399368286133
2020-08-20 22:25:43.489 +0200,12516.09414516667,0.0779876708984375,-0.4647674560546875,-0.8755950927734375,12516.07911716667,-1.12577123483506,0.1028867438775973,0.498847808962829,-0.2979059517383575,-0.0779942199587822,0.1003396213054657,0.02537597715854645,-0.02833941578865051,0.003801286220550537,XArbitraryZVertical,0.2350763345728049,-0.08940802917857696,-0.5056967894131245,0.8252369851155624,0.09018906950950623,-0.4784140884876251,-0.8734906315803528
2020-08-20 22:25:43.490 +0200,12516.11418216667,0.070892333984375,-0.4654541015625,-0.87982177734375,12516.09915516667,-1.124233778122604,0.1018262417672432,0.4931561263008358,-0.1533072292804718,-0.05946953594684601,0.02274157479405403,-0.004739776253700256,-0.009446084499359131,0.00632089376449585,XArbitraryZVertical,0.2325648561964236,-0.08816654238934786,-0.5056775096949433,0.8260934704493937,0.08953802287578583,-0.4734082818031311,-0.8762804865837097
2020-08-20 22:25:43.490 +0200,12516.13422016667,0.095611572265625,-0.46539306640625,-0.886016845703125,12516.11919216667,-1.124919256473831,0.1029043821144592,0.4911552229459258,-0.07767957448959351,-0.04393105581402779,-0.008238407783210278,-0.01809337735176086,-0.006363332271575928,0.0001952648162841797,XArbitraryZVertical,0.2319942675343044,-0.08727363134730588,-0.5060071841365228,0.8261469135710883,0.09057985246181488,-0.4716448783874512,-0.8771239519119263
2020-08-20 22:25:43.491 +0200,12516.15425716667,0.075836181640625,-0.463134765625,-0.88983154296875,12516.13922916667,-1.124684742597174,0.1005238177198057,0.4911571057151143,-0.03041073679924011,-0.06760016828775406,-0.02695951797068119,0.006299138069152832,-0.007933437824249268,-0.003261208534240723,XArbitraryZVertical,0.2314029257322971,-0.08823028259245631,-0.506185942400037,0.82610162897298,0.08849145472049713,-0.4716465175151825,-0.8773362040519714
2020-08-20 22:25:43.491 +0200,12516.17429416667,0.0734405517578125,-0.4699859619140625,-0.89276123046875,12516.15926616667,-1.125021207152217,0.1003756668539034,0.4925028942766591,-0.01022397540509701,-0.0354241207242012,0.01406537648290396,-0.006559506058692932,-0.004693746566772461,-0.008438706398010254,XArbitraryZVertical,0.2318975838503401,-0.08868497783392072,-0.5062271018496965,0.8258889822008868,0.08829779177904129,-0.4728327989578247,-0.8767169713973999
2020-08-20 22:25:43.492 +0200,12516.19433116667,0.0854034423828125,-0.44488525390625,-0.89202880859375,12516.17930316667,-1.124747968030152,0.09994854768795662,0.4938440481281757,-0.005376221612095833,-0.03471785038709641,0.01544207893311977,-0.01229989528656006,-0.01069051027297974,-0.01246273517608643,XArbitraryZVertical,0.2323467017300478,-0.08918290066083061,-0.5060491296948746,0.8258182088709535,0.08785996586084366,-0.4740141332149506,-0.8761228322982788
2020-08-20 22:25:43.507 +0200,12516.21436916667,0.0861663818359375,-0.4677581787109375,-0.886199951171875,12516.19934116667,-1.123983690848966,0.09726301220782997,0.4947772325070318,0.1101162880659103,-0.03815066441893578,-0.0129481703042984,0.001633346080780029,0.01248988509178162,-0.0131981372833252,XArbitraryZVertical,0.2320808905234356,-0.0904486495223001,-0.5059657230235113,0.8258064192484132,0.08546379953622818,-0.474835604429245,-0.875914990901947
2020-08-20 22:25:43.527 +0200,12516.23440616667,0.0805206298828125,-0.4766693115234375,-0.8806610107421875,12516.21937816667,-1.124385476813589,0.09710693444979894,0.4974322162162474,0.04883934557437897,-0.02420901879668236,0.04306583106517792,0.005577147006988525,0.002025842666625977,-0.01036012172698975,XArbitraryZVertical,0.2331023055135783,-0.09125824735277147,-0.5059233588306049,0.8254554998274497,0.08520455658435822,-0.4771705269813538,-0.8746705055236816
2020-08-20 22:25:43.546 +0200,12516.25444316667,0.083740234375,-0.445953369140625,-0.8812255859375,12516.23941516667,-1.123373511154519,0.09635058100716243,0.4964897619028183,-0.004650910384953022,-0.0307856947183609,0.04516877979040146,-0.002994328737258911,-0.01940673589706421,-0.001182436943054199,XArbitraryZVertical,0.2325741014127849,-0.09120482206288175,-0.5056740249475009,0.8257631572857371,0.08458620309829712,-0.4763420820236206,-0.8751819133758545
2020-08-20 22:25:43.566 +0200,12516.27448016667,0.0768890380859375,-0.4634246826171875,-0.874664306640625,12516.25945216667,-1.121562808138469,0.09338340589342382,0.4973600260353973,0.05807651951909065,-0.02578267827630043,0.02155544236302376,0.003770634531974792,0.01418653130531311,-0.003998160362243652,XArbitraryZVertical,0.2322613487126591,-0.09244820040852929,-0.5051973061641549,0.8260046581715758,0.08195032924413681,-0.4771070778369904,-0.8750159740447998
2020-08-20 22:25:43.587 +0200,12516.29451716667,0.0728912353515625,-0.4768524169921875,-0.878204345703125,12516.27949016667,-1.121049457507368,0.0924865121452869,0.4961098874995474,-0.04809878394007683,-0.02281991206109524,0.006554767489433289,-0.001671671867370605,0.0008689761161804199,0.002796649932861328,XArbitraryZVertical,0.2315497354954923,-0.09243126161326415,-0.5051947096847416,0.8262079314964386,0.08122052252292633,-0.4760080277919769,-0.8756823539733887
2020-08-20 22:25:43.607 +0200,12516.31455516667,0.07958984375,-0.4540252685546875,-0.892578125,12516.29952716667,-1.121109351652309,0.09314580788097039,0.4928178391140073,-0.1563149988651276,-0.008548297919332981,0.03766083344817162,-0.005515038967132568,-0.01834142208099365,0.003519058227539062,XArbitraryZVertical,0.2303732107641043,-0.09130236983712492,-0.5054199573303166,0.8265245066673043,0.08194314688444138,-0.4731102883815765,-0.8771840929985046
2020-08-20 22:25:43.627 +0200,12516.33459216667,0.083282470703125,-0.4474029541015625,-0.894561767578125,12516.31956416667,-1.120295908522374,0.09266753962743401,0.4920521181248292,-0.08620729297399521,-0.005843325518071651,0.01672283001244068,-0.001616254448890686,0.0003834664821624756,-0.008804380893707275,XArbitraryZVertical,0.229977601964731,-0.09120562665709819,-0.5052029311605906,0.8267780081732392,0.08155710250139236,-0.4724355340003967,-0.8775836825370789
2020-08-20 22:25:43.647 +0200,12516.35462916667,0.077239990234375,-0.4617156982421875,-0.8811798095703125,12516.33960116667,-1.120434282444357,0.09312503647078467,0.491165862999609,0.01251103263348341,-0.02339488826692104,-0.003397503634914756,0.003877550363540649,0.01017040014266968,-0.01290792226791382,XArbitraryZVertical,0.2297258130633324,-0.09080002049334721,-0.5052816911739568,0.826844546619694,0.08199749141931534,-0.4716542363166809,-0.8779628276824951
2020-08-20 22:25:43.667 +0200,12516.37466616667,0.071319580078125,-0.4698944091796875,-0.8769989013671875,12516.35963816667,-1.120662436772815,0.09291931732823668,0.4921403537797719,0.05175657197833061,-0.02136662602424622,-0.006629249546676874,-0.001185670495033264,-0.003325402736663818,-0.0009299516677856445,XArbitraryZVertical,0.2300604412043446,-0.09116683926209442,-0.5053180992692592,0.8266888547793321,0.08177419006824493,-0.4725133180618286,-0.8775215744972229
2020-08-20 22:25:43.687 +0200,12516.39470416667,0.069671630859375,-0.458984375,-0.8820648193359375,12516.37967616667,-1.120399498666047,0.09221063553374372,0.4950744950165294,0.05025268346071243,0.00171765498816967,0.04446452111005783,-0.005433544516563416,-0.008924663066864014,0.002911865711212158,XArbitraryZVertical,0.2310885005376934,-0.0921986395838021,-0.5050451117648138,0.8264544922860515,0.08102427423000336,-0.4750972092151642,-0.8761950135231018
2020-08-20 22:25:43.707 +0200,12516.41474116667,0.0733642578125,-0.463134765625,-0.88702392578125,12516.39971316667,-1.119125451633808,0.0912719121158537,0.4949588976952101,-0.01529583148658276,0.01297084148973227,0.01961719244718552,-0.01205730438232422,-0.0002952516078948975,0.001359701156616211,XArbitraryZVertical,0.2308632649492492,-0.09240920567772654,-0.5046366553359036,0.826743347973939,0.0802067369222641,-0.474995493888855,-0.8763253688812256
2020-08-20 22:25:43.727 +0200,12516.43477816667,0.07177734375,-0.453887939453125,-0.8845977783203125,12516.41975016667,-1.117892585531671,0.09117384036253842,0.4931824615525582,-0.01628066785633564,0.03537708148360252,0.09809613972902298,-0.0002380609512329102,-0.002466559410095215,-0.008195936679840088,XArbitraryZVertical,0.230171286301949,-0.09184279209682625,-0.5042865797758458,0.8272129023549578,0.08019749820232391,-0.4734314978122711,-0.8771721720695496
2020-08-20 22:25:43.747 +0200,12516.45481516667,0.0816192626953125,-0.45404052734375,-0.880584716796875,12516.43978716667,-1.11645495769646,0.09148270671965771,0.4934033832730785,0.0309707336127758,0.01540124323219061,0.04599005728960037,-0.00975334644317627,0.002177506685256958,-0.003972113132476807,XArbitraryZVertical,0.2304051354815696,-0.09160723328518335,-0.5036378477752212,0.8275690843719424,0.080458864569664,-0.4736260771751404,-0.8770431876182556
2020-08-20 22:25:43.767 +0200,12516.47485216667,0.0651702880859375,-0.4698333740234375,-0.878662109375,12516.45982416667,-1.11532308471219,0.09048913101906658,0.4957407599303927,0.01485927402973175,0.005098005756735802,0.04069116339087486,0.004890397191047668,0.008992254734039307,-0.002188384532928467,XArbitraryZVertical,0.2311605755705234,-0.09249810465203177,-0.503089124408465,0.8275930801319888,0.0794871598482132,-0.4756833612918854,-0.8760177493095398
2020-08-20 22:25:43.787 +0200,12516.49489016667,0.0908966064453125,-0.4484710693359375,-0.8865814208984375,12516.47986216667,-1.113327054295401,0.08832317683051738,0.4969960329966816,0.04560960084199905,0.01718822494149208,0.05038298293948174,-0.009653940796852112,-0.0115448534488678,0.002480685710906982,XArbitraryZVertical,0.2312211584235344,-0.09349104641566362,-0.5024088966745052,0.8278777038413142,0.07753682881593704,-0.4767871499061584,-0.8755924105644226
2020-08-20 22:25:43.807 +0200,12516.51492716667,0.0797271728515625,-0.4527587890625,-0.8870086669921875,12516.49989916667,-1.113055721281222,0.08890537944682833,0.4958376784041683,0.007865680381655693,-0.001569218467921019,0.01972512528300285,0.01112131774425507,0.01285895705223083,-0.005087435245513916,XArbitraryZVertical,0.2309071465691891,-0.09291699424999096,-0.5023255019645693,0.8280806147187351,0.07809557020664215,-0.4757686257362366,-0.8760966658592224
2020-08-20 22:25:43.827 +0200,12516.53496416667,0.068634033203125,-0.463897705078125,-0.8813934326171875,12516.51993616667,-1.111750832285933,0.08678593642143667,0.4956602276935346,0.01069821882992983,-0.01072836201637983,0.01956803724169731,0.008656039834022522,0.008023321628570557,-0.006510734558105469,XArbitraryZVertical,0.2303633510015963,-0.09359802011597604,-0.5020442555249908,0.8283258363197935,0.07624587416648865,-0.4756125211715698,-0.8763442635536194
2020-08-20 22:25:43.847 +0200,12516.55500116667,0.0760650634765625,-0.474822998046875,-0.8821868896484375,12516.53997316667,-1.112007355870378,0.08781515170870151,0.4942513500748476,-0.01691982708871365,0.01231623720377684,0.009936182759702206,-0.00715184211730957,-0.003141850233078003,-0.002096176147460938,XArbitraryZVertical,0.2300341775717021,-0.09283476090798634,-0.5021483344602451,0.8284401313429387,0.07720647752285004,-0.4743727445602417,-0.8769319653511047
2020-08-20 22:25:43.873 +0200,12516.57503916667,0.0764617919921875,-0.453765869140625,-0.892578125,12516.56001116667,-1.110915479493369,0.08720161165485869,0.4949955769241391,-0.07718263566493988,0.0327482745051384,0.05791181325912476,0.003469958901405334,-0.01187610626220703,-0.0005603432655334473,XArbitraryZVertical,0.2302350761668458,-0.09315683723565517,-0.5017051930881967,0.8286166196410552,0.07663766294717789,-0.4750277698040009,-0.8766272068023682
2020-08-20 22:25:43.887 +0200,12516.59507616667,0.070465087890625,-0.456756591796875,-0.8914642333984375,12516.58004816667,-1.109647229175543,0.0869533498510671,0.4930257502863568,-0.0203598327934742,0.02126126363873482,0.02878820709884167,0.002488359808921814,-0.001562923192977905,-0.009436607360839844,XArbitraryZVertical,0.2294264011482331,-0.0926021805046076,-0.5013702371920894,0.8291057444953833,0.07650113850831985,-0.4732934534549713,-0.8775767087936401
2020-08-20 22:25:43.907 +0200,12516.61511316667,0.0728912353515625,-0.4587249755859375,-0.8839874267578125,12516.60008516667,-1.109468630310303,0.08858366339433872,0.4918731492161501,0.002228168305009604,0.0251593291759491,0.04455891251564026,-0.003231972455978394,0.005128353834152222,-0.01068073511123657,XArbitraryZVertical,0.2293718721074657,-0.09160639513742591,-0.5012039644301108,0.8293319105609187,0.07797996699810028,-0.4722777903079987,-0.877993643283844
2020-08-20 22:25:43.927 +0200,12516.63515016667,0.0856170654296875,-0.4696197509765625,-0.8854827880859375,12516.62012216667,-1.108348205581231,0.08730396845952994,0.4923859233301102,0.04581892490386963,0.01832086592912674,0.01158544048666954,-0.003343701362609863,-0.003650188446044922,-0.002807676792144775,XArbitraryZVertical,0.2293125138756308,-0.09214172036365365,-0.5008439018990377,0.8295066004864202,0.07683521509170532,-0.4727297127246857,-0.8778513669967651
2020-08-20 22:25:43.948 +0200,12516.65518716667,0.0848236083984375,-0.4637603759765625,-0.8870697021484375,12516.64016016667,-1.108163329304046,0.08792022713422896,0.4951624817227985,0.0590822622179985,0.01463318709284067,0.03036392107605934,0.01020598411560059,-0.007171690464019775,-0.00535959005355835,XArbitraryZVertical,0.2306111508315953,-0.09258523209369503,-0.5004678986694735,0.8293240577157158,0.07726063579320908,-0.4751746356487274,-0.8764929175376892
2020-08-20 22:25:43.968 +0200,12516.67522516667,0.068695068359375,-0.4604034423828125,-0.8858642578125,12516.66019716667,-1.107314336320639,0.08759673619845518,0.4962114331726944,0.03714447468519211,0.001564523205161095,0.0416456051170826,0.01185046136379242,-0.00411108136177063,-0.006595075130462646,XArbitraryZVertical,0.2309986627904954,-0.09289340385676813,-0.5000666019188548,0.8294237366602757,0.07693344354629517,-0.4760973155498505,-0.8760208487510681
2020-08-20 22:25:43.988 +0200,12516.69526216667,0.075286865234375,-0.4667816162109375,-0.8856353759765625,12516.68023416667,-1.106468925752387,0.08722260519977265,0.494931734415386,0.003280648961663246,0.01354928035289049,0.03093033656477928,-0.00555303692817688,0.0003981888294219971,-0.00457608699798584,XArbitraryZVertical,0.2304207378336147,-0.09261948198579964,-0.4998645421282789,0.8297369244426287,0.0766587033867836,-0.4749715924263,-0.8766558170318604
2020-08-20 22:25:44.008 +0200,12516.71529916667,0.08843994140625,-0.46478271484375,-0.8800048828125,12516.70027116667,-1.104969722624582,0.08517309322513825,0.4947975970465368,-0.005543468985706568,0.007341185584664345,0.02309611812233925,0.001477241516113281,-0.007177770137786865,-0.006012141704559326,XArbitraryZVertical,0.2299234455153717,-0.09326265858786033,-0.4994893353555592,0.8300287204669546,0.07486724853515625,-0.4748535454273224,-0.876874566078186
2020-08-20 22:25:44.028 +0200,12516.73533616667,0.0805511474609375,-0.4694366455078125,-0.8801422119140625,12516.72030816667,-1.10510213354098,0.08655171925116832,0.4941037985933309,-0.05374281853437424,-0.00341026159003377,0.03501592949032784,0.01483553647994995,-0.004473507404327393,0.0005372166633605957,XArbitraryZVertical,0.2299774511505027,-0.09252622496979099,-0.499442577787788,0.8301243380162306,0.07610452175140381,-0.4742428362369537,-0.877098560333252
2020-08-20 22:25:44.048 +0200,12516.75537416667,0.0637664794921875,-0.452178955078125,-0.88226318359375,12516.74034616667,-1.104893332387613,0.08773314727846562,0.4934430206795425,-0.08585827797651291,-0.006872637197375298,0.03579829260706902,0.007304906845092773,-0.01118645071983337,0.001911401748657227,XArbitraryZVertical,0.2300114510389376,-0.09184082396133905,-0.4992742529697874,0.8302922825851846,0.07716813683509827,-0.4736609756946564,-0.8773199915885925
2020-08-20 22:25:44.068 +0200,12516.77541116667,0.07672119140625,-0.450225830078125,-0.885894775390625,12516.76038316667,-1.103702673646332,0.08687248739402756,0.4920663872092551,-0.01794327981770039,0.00909141544252634,0.05370896309614182,-0.006788834929466248,0.003278881311416626,0.0006049871444702148,XArbitraryZVertical,0.2292873546068541,-0.09170547779554469,-0.4989914530505695,0.8306773499322488,0.0764695331454277,-0.4724481105804443,-0.8780348300933838
2020-08-20 22:25:44.088 +0200,12516.79544816667,0.0906219482421875,-0.458953857421875,-0.877960205078125,12516.78042016667,-1.102823556524828,0.0861513206989467,0.4931460426509203,-0.02093560621142387,0.005531568080186844,0.001191313378512859,-0.001265257596969604,0.008899927139282227,-0.003954410552978516,XArbitraryZVertical,0.2295903777213922,-0.09218311211289998,-0.4986208233901032,0.8307634157559014,0.07579237222671509,-0.4733994007110596,-0.8775810599327087
2020-08-20 22:25:44.108 +0200,12516.81548516667,0.0877532958984375,-0.4541473388671875,-0.88006591796875,12516.80045716667,-1.103242741240967,0.08787499556717003,0.4931204674316442,-0.04479540139436722,0.003935801796615124,0.01703719608485699,0.01567055284976959,-7.88569450378418e-05,0.002933263778686523,XArbitraryZVertical,0.2299903750907806,-0.09150871002689272,-0.4985990050113641,0.8307403726085946,0.07730598747730255,-0.4733768701553345,-0.8774611949920654
2020-08-20 22:25:44.128 +0200,12516.83552316667,0.1067962646484375,-0.4590606689453125,-0.8705902099609375,12516.82049516667,-1.103611443899697,0.08897777129466858,0.4934655186601217,-0.06771775335073471,0.001373574137687683,-0.006430463399738073,0.01276358962059021,0.003190994262695312,0.0005257725715637207,XArbitraryZVertical,0.2303898114449299,-0.09118227624998973,-0.4985968529485647,0.8306669522559992,0.07825906574726105,-0.4736807942390442,-0.8772126436233521
2020-08-20 22:25:44.148 +0200,12516.85556016667,0.1044769287109375,-0.45855712890625,-0.855010986328125,12516.84053216667,-1.103825112818189,0.08859014434756485,0.4911525446470357,-0.2100539952516556,-0.01951652765274048,-0.04754700884222984,0.02828864753246307,-0.001560837030410767,0.01029229164123535,XArbitraryZVertical,0.2293358020705273,-0.09076973751240901,-0.4989201408948942,0.8308096674859429,0.07801575213670731,-0.4716424942016602,-0.8783318996429443
2020-08-20 22:25:44.168 +0200,12516.87559716667,0.090667724609375,-0.4351348876953125,-0.8327178955078125,12516.86056916667,-1.102609325014629,0.08640368339165366,0.4845947065382406,-0.268548458814621,-0.0230497419834137,0.07282950729131699,0.03311188519001007,-0.006821632385253906,0.02775031328201294,XArbitraryZVertical,0.226155937011403,-0.08984462961589584,-0.4991969760884139,0.8316152083428329,0.07636039704084396,-0.465849757194519,-0.8815628886222839
2020-08-20 22:25:44.188 +0200,12516.89563416667,0.1740570068359375,-0.43231201171875,-0.8177490234375,12516.88060616667,-1.098810907380134,0.08618105479253567,0.4826585019071474,-0.0325484536588192,0.1205947697162628,0.2554043531417847,0.02221006155014038,0.005494952201843262,0.04261279106140137,XArbitraryZVertical,0.2254751193427406,-0.08900875143296759,-0.4977973311313622,0.8327282005420119,0.0762416273355484,-0.464135617017746,-0.882476806640625
2020-08-20 22:25:44.208 +0200,12516.91567116667,0.2234649658203125,-0.4545745849609375,-0.7797698974609375,12516.90064316667,-1.095427562790267,0.08755771934876437,0.4822692100348691,-0.1530933827161789,0.007402971386909485,0.1470223516225815,0.08704274892807007,0.02269306778907776,0.06255155801773071,XArbitraryZVertical,0.225806856519544,-0.08795334610902338,-0.4962637560959946,0.8336652231728687,0.07747222483158112,-0.4637907743453979,-0.8825509548187256
2020-08-20 22:25:44.228 +0200,12516.93570916667,0.250732421875,-0.416046142578125,-0.72528076171875,12516.92068116667,-1.09043093496208,0.0857623123791824,0.478273102238032,-0.3780869543552399,-0.06856689602136612,0.3159367442131042,0.1486816257238388,-0.01173079013824463,0.1026901602745056,XArbitraryZVertical,0.2239349169206813,-0.08711544952426041,-0.4946995129292511,0.8351864069473299,0.07604570686817169,-0.460246741771698,-0.8845281004905701
2020-08-20 22:25:44.248 +0200,12516.95574616667,0.2911376953125,-0.38201904296875,-0.658966064453125,12516.94071816667,-1.081813186953792,0.08153923197883149,0.4700159540941297,-0.6052760481834412,-0.1131673827767372,0.4517239630222321,0.1748001575469971,0.01856696605682373,0.1581932306289673,XArbitraryZVertical,0.2198537353664068,-0.08581896708997801,-0.4922078096924877,0.837872909525415,0.07261667400598526,-0.4529004991054535,-0.8885988593101501
2020-08-20 22:25:44.268 +0200,12516.97578316667,0.295928955078125,-0.349517822265625,-0.5832061767578125,12516.96075516667,-1.068430992528271,0.07317471655303091,0.4567627283725358,-0.8972674012184143,-0.1814140826463699,0.6652950644493103,0.2256965637207031,0.03904920816421509,0.2302708625793457,XArbitraryZVertical,0.2128672279023013,-0.08453358073839448,-0.4884854745435086,0.8419759381562137,0.06561461836099625,-0.4410450160503387,-0.8950832486152649
2020-08-20 22:25:44.288 +0200,12516.99582016667,0.3004913330078125,-0.30133056640625,-0.531036376953125,12516.98079216667,-1.049199132788693,0.06096170587228556,0.4359797685328877,-1.300912022590637,-0.2049769312143326,0.9243685603141785,0.2430858314037323,0.05549558997154236,0.3156770467758179,XArbitraryZVertical,0.2020011303865586,-0.08251724583183299,-0.4830812105097838,0.8479498580660478,0.05522492900490761,-0.4222987294197083,-0.9047728776931763
2020-08-20 22:25:44.308 +0200,12517.015857375,0.280670166015625,-0.2359466552734375,-0.4652862548828125,12517.00083016667,-1.024160035743637,0.04640742532714973,0.4062462375058841,-1.796714305877686,-0.2475574165582657,1.205343723297119,0.2623969912528992,0.07449665665626526,0.3842003345489502,XArbitraryZVertical,0.1869403936666796,-0.07900932190002893,-0.475708683924961,0.8558691533233268,0.04261505603790283,-0.3951638638973236,-0.9176216125488281
2020-08-20 22:25:44.328 +0200,12517.035894375,0.2732086181640625,-0.147430419921875,-0.4203643798828125,12517.020866375,-0.992954492086016,0.03041837319616045,0.3662626922387061,-2.285831928253174,-0.2102087140083313,1.497082233428955,0.253756195306778,0.1013169288635254,0.4680413603782654,XArbitraryZVertical,0.1672273235290432,-0.073585569678212,-0.4658765843756123,0.8657823571992603,0.02839641273021698,-0.3581285178661346,-0.9332403540611267
2020-08-20 22:25:44.365 +0200,12517.055931375,0.2817230224609375,-0.0637054443359375,-0.4210357666015625,12517.040903375,-0.9569937200306433,0.01484853789087833,0.3170862358786503,-2.698929071426392,-0.1390144228935242,1.78629744052887,0.2598468363285065,0.1413964629173279,0.5240072011947632,XArbitraryZVertical,0.1435196834444821,-0.06618528709126326,-0.4536176158853538,0.877070485289035,0.01410778984427452,-0.3117993772029877,-0.9500432014465332
2020-08-20 22:25:44.382 +0200,12517.075968375,0.2823486328125,0.008575439453125,-0.4017791748046875,12517.060940375,-0.9158453922983213,0.001497437776592983,0.2599059685628448,-2.975205183029175,0.05138321220874786,2.095796585083008,0.2798633575439453,0.1770597994327545,0.5514317154884338,XArbitraryZVertical,0.1165646555123529,-0.05662286758117041,-0.4382709534407789,0.8894521348822381,0.001447144546546042,-0.2569896876811981,-0.9664130806922913
2020-08-20 22:25:44.388 +0200,12517.096005375,0.2674102783203125,0.0936279296875,-0.4675140380859375,12517.080977375,-0.8714310222164848,-0.005540292432091459,0.1987555575234872,-3.09057879447937,0.2191556990146637,2.23348331451416,0.2852297425270081,0.1902877688407898,0.5777153968811035,XArbitraryZVertical,0.08878078664362692,-0.04437307749340118,-0.420224331673374,0.9019758282398636,-0.005431193392723799,-0.1974495351314545,-0.9802979826927185
2020-08-20 22:25:44.408 +0200,12517.116043375,0.1031036376953125,0.2240447998046875,-0.490478515625,12517.101015375,-0.8240550236582609,-0.00612371442601425,0.1374311264720035,-2.999422788619995,0.5823643207550049,2.465977430343628,0.2869585454463959,0.21343694627285,0.5450775623321533,XArbitraryZVertical,0.06169169623560075,-0.0302955929948267,-0.3997136573812596,0.9140597493428604,-0.006065937224775553,-0.1369989216327667,-0.9905526041984558
2020-08-20 22:25:44.428 +0200,12517.136080375,-0.04681396484375,0.4016265869140625,-0.689788818359375,12517.121052375,-0.7721418764799161,0.001687792821649459,0.07969031367768427,-2.691376924514771,0.8243644237518311,2.695450305938721,0.1220273673534393,0.285889208316803,0.534720242023468,XArbitraryZVertical,0.03722012064983532,-0.01421861581114545,-0.37622131617674,0.9256727325844096,0.001682435628026724,-0.07960599660873413,-0.9968249797821045
2020-08-20 22:25:44.449 +0200,12517.156117375,0.03863525390625,0.442840576171875,-0.8467559814453125,12517.141089375,-0.7162305054167448,0.02062386155037828,0.03222617267295018,-2.108077764511108,1.384707570075989,2.799958944320679,-0.05758053809404373,0.4082584381103516,0.3206259608268738,XArbitraryZVertical,0.0187033014542669,0.004009059521949411,-0.3502899476462821,0.9364459422902507,0.02061169221997261,-0.03222059458494186,-0.9992682337760925
2020-08-20 22:25:44.468 +0200,12517.176154375,0.16827392578125,0.215789794921875,-0.941619873046875,12517.161126375,-0.6588708620349828,0.05056467738548046,-0.003837397655998265,-1.651168584823608,1.645138382911682,2.827883958816528,-0.03399454429745674,0.4585780501365662,0.1662504076957703,XArbitraryZVertical,0.006363234326484363,0.02454070884455396,-0.3234507788027479,0.9459053305790388,0.05054276064038277,0.003837388241663575,-0.9987145066261292
2020-08-20 22:25:44.489 +0200,12517.196192375,0.1925048828125,-0.0892333984375,-1.0994873046875,12517.181164375,-0.5982031292205534,0.08605661333438003,-0.03223325276045955,-1.707216739654541,1.734240055084229,3.011485815048218,0.07635499536991119,0.2131336182355881,0.07600706815719604,XArbitraryZVertical,-0.00271291390563107,0.04584424677360032,-0.2950132635216831,0.9543888767621747,0.08590579032897949,0.03222767263650894,-0.9957818984985352
2020-08-20 22:25:44.509 +0200,12517.216229375,0.2602386474609375,-0.064239501953125,-1.170928955078125,12517.201201375,-0.5332622517084697,0.124976660360691,-0.05932460850043939,-1.607234477996826,1.89352822303772,3.099683523178101,0.07074014842510223,-0.1157867461442947,-0.08752423524856567,XArbitraryZVertical,-0.01210745357583753,0.06801363860049132,-0.2646397958238209,0.96186971454979,0.1244322881102562,0.05928981676697731,-0.9904550909996033
2020-08-20 22:25:44.529 +0200,12517.236266375,0.427032470703125,0.0345916748046875,-1.202438354492188,12517.221238375,-0.4666917853225438,0.1690421441431589,-0.08662912923090038,-2.097535133361816,2.02576756477356,3.043455839157104,0.08137392997741699,-0.1622931659221649,-0.1798800826072693,XArbitraryZVertical,-0.02247452107801884,0.09203241898295905,-0.233748891803796,0.9676705661730449,0.1676073372364044,0.08652081340551376,-0.9820498824119568
2020-08-20 22:25:44.549 +0200,12517.256303375,0.5095672607421875,0.110443115234375,-1.283096313476562,12517.241275375,-0.3977782221488854,0.2160491798117035,-0.119126043944528,-2.382059097290039,1.91261613368988,3.071309566497803,0.204458013176918,-0.09576740860939026,-0.2239144444465637,XArbitraryZVertical,-0.03674988515987716,0.1171947875257756,-0.2023718889018235,0.9715762268284668,0.2128530442714691,0.1188444942235947,-0.9698296785354614
2020-08-20 22:25:44.569 +0200,12517.276340375,0.5829620361328125,0.20849609375,-1.3037109375,12517.261313375,-0.3244960756734031,0.2617673215295451,-0.1529386046880543,-2.56028151512146,1.672014236450195,3.164763450622559,0.2542237937450409,-0.04394492506980896,-0.3211759328842163,XArbitraryZVertical,-0.05372600182807497,0.1406549154503305,-0.169526825320317,0.9739560386358809,0.2557674050331116,0.1523430943489075,-0.9546594023704529
2020-08-20 22:25:44.589 +0200,12517.296378375,0.630126953125,0.2789306640625,-1.23681640625,12517.281350375,-0.2474291478455333,0.3059190209619707,-0.1848118304022606,-2.629409074783325,1.437430500984192,3.209936857223511,0.2871690988540649,0.01480595767498016,-0.3690134882926941,XArbitraryZVertical,-0.07177874726410999,0.1618078301500119,-0.1353899909624794,0.9748515790851311,0.2960409820079803,0.1837615668773651,-0.9373320937156677
2020-08-20 22:25:44.609 +0200,12517.316415375,0.621612548828125,0.4383087158203125,-1.157470703125,12517.301387375,-0.1675870603687672,0.3477779738968336,-0.2141204529534951,-2.612077713012695,1.158130168914795,3.242837190628052,0.3052941262722015,0.06563621759414673,-0.319502592086792,XArbitraryZVertical,-0.09047752090145264,0.1802283083170677,-0.1003840379584941,0.9742970228587593,0.333026796579361,0.212488055229187,-0.9186631441116333
2020-08-20 22:25:44.629 +0200,12517.336452375,0.627685546875,0.53106689453125,-1.10491943359375,12517.321424375,-0.08720268000371777,0.3870438352010303,-0.2385798627311586,-2.492039680480957,0.9724974036216736,3.172143220901489,0.2689366638660431,0.1846969872713089,-0.2671141028404236,XArbitraryZVertical,-0.1083516998967611,0.1958584671400312,-0.06533517403634531,0.9724354119991147,0.3667610585689545,0.2363229542970657,-0.8997987508773804
2020-08-20 22:25:44.649 +0200,12517.356489375,0.6190948486328125,0.516815185546875,-1.093765258789062,12517.341461375,-0.007675611423101478,0.4247708430750502,-0.2576891135727505,-2.296188354492188,0.8432320952415466,3.136043787002563,0.2406569421291351,0.2795146107673645,-0.2232509851455688,XArbitraryZVertical,-0.1247981425252841,0.2095255576947773,-0.03080462767110707,0.9693170566707916,0.3985046744346619,0.2548466622829437,-0.8810489177703857
2020-08-20 22:25:44.669 +0200,12517.376527375,0.6221466064453125,0.553314208984375,-1.087066650390625,12517.361499375,0.07007926443858159,0.4605111756881348,-0.2719236230142907,-2.205317258834839,0.6970897912979126,2.99761962890625,0.205813854932785,0.2594155371189117,-0.2263737916946411,XArbitraryZVertical,-0.1398066065959779,0.221358276311361,0.002877551710746451,0.965114669005021,0.428076833486557,0.2685848772525787,-0.8629092574119568
2020-08-20 22:25:44.689 +0200,12517.396564375,0.630157470703125,0.66064453125,-1.011077880859375,12517.381536375,0.1440489637055864,0.4933522104857737,-0.2847035464300785,-2.184097528457642,0.5504087805747986,2.706379175186157,0.1800472736358643,0.2713151276111603,-0.2396528124809265,XArbitraryZVertical,-0.1546144177314251,0.2311851419496443,0.03452537488767031,0.9599248749429603,0.4545169770717621,0.2808729410171509,-0.8452956080436707
2020-08-20 22:25:44.709 +0200,12517.416601375,0.56854248046875,0.713714599609375,-0.942626953125,12517.401573375,0.2126216902410202,0.5224337564327923,-0.2974941937516944,-2.10482382774353,0.395948052406311,2.411512851715088,0.1699005365371704,0.3659366965293884,-0.1838778853416443,XArbitraryZVertical,-0.1694645897150092,0.2387705666914503,0.06332177621383743,0.9540758531114449,0.4770720601081848,0.2931253910064697,-0.8285407423973083
2020-08-20 22:25:44.729 +0200,12517.436638375,0.4892578125,0.7285614013671875,-0.9630126953125,12517.421610375,0.2745776209143667,0.5480035493710845,-0.3079556337931261,-1.75569748878479,0.3341376781463623,2.11583685874939,0.0989193320274353,0.4145363867282867,-0.1295045614242554,XArbitraryZVertical,-0.1828531947874742,0.2446619256754097,0.08908444751298132,0.9480343701439548,0.4964745938777924,0.3031110763549805,-0.8134105205535889
2020-08-20 22:25:44.749 +0200,12517.456676375,0.460205078125,0.71044921875,-1.021148681640625,12517.441648375,0.3256672814392524,0.570557065702385,-0.312783732782185,-1.215866684913635,0.3621304333209991,1.739636659622192,-0.001850217580795288,0.4328029453754425,-0.1505884528160095,XArbitraryZVertical,-0.1925493104790871,0.2500831361533456,0.1104108081135701,0.9424397694194501,0.5138956308364868,0.3077085018157959,-0.8007663488388062
2020-08-20 22:25:44.769 +0200,12517.476713375,0.3951873779296875,0.674346923828125,-1.039321899414062,12517.461685375,0.3645246784916688,0.5896025894958989,-0.312331324626367,-0.7941272854804993,0.3262903988361359,1.385719180107117,-0.04856044054031372,0.4158401489257812,-0.2177764177322388,XArbitraryZVertical,-0.1983796647018986,0.255285220927364,0.1268838207569697,0.937750179978462,0.5291298627853394,0.3072780072689056,-0.7909499406814575
2020-08-20 22:25:44.789 +0200,12517.496750375,0.3468475341796875,0.6601715087890625,-1.05364990234375,12517.481722375,0.3938098884423071,0.6045649841748666,-0.3088487661238311,-0.4945116639137268,0.2896889746189117,1.123608231544495,-0.1189945340156555,0.383911520242691,-0.2456792593002319,XArbitraryZVertical,-0.2015475853729267,0.2597467970349107,0.139637535682289,0.9340297489733013,0.5415096879005432,0.3039620816707611,-0.7838203310966492
2020-08-20 22:25:44.809 +0200,12517.516787375,0.3726959228515625,0.61981201171875,-1.069778442382812,12517.501759375,0.415847556368893,0.6168348829892975,-0.3034487000990945,-0.2713132202625275,0.2615308463573456,0.9083614349365234,-0.1862210035324097,0.3713214099407196,-0.2616900205612183,XArbitraryZVertical,-0.2028513320120926,0.2638729535368122,0.1495375322384689,0.9310536160481749,0.5520275235176086,0.2988131046295166,-0.7784448266029358
2020-08-20 22:25:44.830 +0200,12517.536825375,0.4096221923828125,0.55853271484375,-1.11492919921875,12517.521797375,0.4319667392256304,0.6260928326078444,-0.2963338360722991,-0.06982645392417908,0.1757808029651642,0.7798499464988708,-0.1753602027893066,0.3432384431362152,-0.2826776504516602,XArbitraryZVertical,-0.2024624054722187,0.2674078278957774,0.1572524525974252,0.928856102963577,0.5604422092437744,0.2920158207416534,-0.7750040292739868
2020-08-20 22:25:44.859 +0200,12517.556862375,0.417572021484375,0.5188446044921875,-1.11907958984375,12517.541834375,0.4449353108000554,0.6317858438432604,-0.2874102979397568,0.04794199392199516,0.01258175354450941,0.7528300285339355,-0.1410555839538574,0.2886970639228821,-0.3286036849021912,XArbitraryZVertical,-0.2006079736205514,0.2698517183383191,0.1641638347735649,0.9273546857419419,0.566361665725708,0.2834697067737579,-0.773872971534729
2020-08-20 22:25:44.870 +0200,12517.576899375,0.43890380859375,0.49395751953125,-1.109588623046875,12517.561871375,0.4573611289904053,0.633739368438463,-0.2779293141340928,-0.01088190823793411,-0.1670332849025726,0.7651855945587158,-0.1354912519454956,0.2569745481014252,-0.3394381999969482,XArbitraryZVertical,-0.1981502315958946,0.2707184298188875,0.1712926867896547,0.9263405474246468,0.5694382786750793,0.2743650078773499,-0.7748960256576538
2020-08-20 22:25:44.889 +0200,12517.596936375,0.4405975341796875,0.48162841796875,-1.081283569335938,12517.581908375,0.4709988870100124,0.6317183071590299,-0.2702827006058727,-0.1482590734958649,-0.3963311910629272,0.7441772222518921,-0.1159767508506775,0.2366093695163727,-0.3309235572814941,XArbitraryZVertical,-0.1963491738915554,0.2694237401395574,0.1790671530486297,0.9256310114774308,0.5690932869911194,0.2670038938522339,-0.7777156829833984
2020-08-20 22:25:44.909 +0200,12517.616973375,0.4142608642578125,0.4404296875,-1.051284790039062,12517.601946375,0.4859642451831604,0.6254188374741092,-0.2649931487199148,-0.2509184777736664,-0.6261212229728699,0.7268728613853455,-0.1055892109870911,0.2335097789764404,-0.2945982217788696,XArbitraryZVertical,-0.1953782472665876,0.2657399037658262,0.1874755869667963,0.9252364323061746,0.5650017857551575,0.2619026601314545,-0.7824192643165588
2020-08-20 22:25:44.929 +0200,12517.637011375,0.369293212890625,0.416351318359375,-1.01226806640625,12517.621983375,0.5012402469798329,0.6145357724166556,-0.2614105357544595,-0.2946953773498535,-0.8399323225021362,0.6741410493850708,-0.1211589574813843,0.194044828414917,-0.2602843642234802,XArbitraryZVertical,-0.194718616836407,0.2596978696520394,0.196184182578167,0.9252855677498577,0.5569908022880554,0.2584434151649475,-0.7892833352088928
2020-08-20 22:25:44.949 +0200,12517.657048375,0.3314971923828125,0.4150390625,-0.96832275390625,12517.642020375,0.5152443957252468,0.5996807175360874,-0.2585776583561127,-0.2248180210590363,-0.997532844543457,0.5819774866104126,-0.1551835536956787,0.1707265228033066,-0.2128763794898987,XArbitraryZVertical,-0.1937378595090962,0.2518531166629834,0.204558225649688,0.9258464242565431,0.5456159710884094,0.2557057440280914,-0.7980713248252869
2020-08-20 22:25:44.969 +0200,12517.677085375,0.3172760009765625,0.3767547607421875,-0.9540557861328125,12517.662057375,0.5259764504523218,0.581494599719846,-0.2551187321783882,-0.05321578308939934,-1.081153154373169,0.4691109955310822,-0.1787205934524536,0.1718921065330505,-0.1587051153182983,XArbitraryZVertical,-0.1916030340439219,0.2428794631950314,0.2118185770735862,0.9270549028322225,0.5314953327178955,0.2523603141307831,-0.8085957169532776
2020-08-20 22:25:44.989 +0200,12517.697122375,0.3250274658203125,0.3468170166015625,-0.935302734375,12517.682094375,0.5327093412996965,0.5610232229183734,-0.2497174731760779,0.1468146443367004,-1.126180291175842,0.3705263435840607,-0.1828351616859436,0.143572524189949,-0.1333223581314087,XArbitraryZVertical,-0.1877506333704642,0.2335072783415171,0.2176980452253916,0.9288873104049526,0.5155497789382935,0.2471302002668381,-0.820448100566864
2020-08-20 22:25:45.009 +0200,12517.717160375,0.3606109619140625,0.3216552734375,-0.905609130859375,12517.702132375,0.5364628489385781,0.5392647194678316,-0.2427328448519068,0.2363880723714828,-1.132658720016479,0.3127613067626953,-0.1598474085330963,0.1186558902263641,-0.09814250469207764,XArbitraryZVertical,-0.1825991819739749,0.224035289212722,0.2224750501401908,0.9311125389475524,0.4984516501426697,0.2403562515974045,-0.8329314589500427
2020-08-20 22:25:45.029 +0200,12517.737197375,0.407623291015625,0.338165283203125,-0.8986053466796875,12517.722169375,0.53954389768944,0.5176763601732367,-0.235543356981025,0.2108290493488312,-1.07875919342041,0.3223664164543152,-0.1109214425086975,0.09858235716819763,-0.05909895896911621,XArbitraryZVertical,-0.1772204250972194,0.2147192982258974,0.2268617997814507,0.9332857267333136,0.4811980128288269,0.233371376991272,-0.844977080821991
2020-08-20 22:25:45.049 +0200,12517.757234375,0.471923828125,0.34637451171875,-0.93634033203125,12517.742206375,0.5440504129951271,0.4978016271574343,-0.2289999571999827,0.1779656410217285,-1.01830792427063,0.3734077513217926,-0.05100768804550171,0.1153559684753418,-0.03427952527999878,XArbitraryZVertical,-0.1724111310874394,0.2059758736741935,0.2315885262153822,0.9349947350782903,0.4650295972824097,0.2270037084817886,-0.8556966781616211
2020-08-20 22:25:45.069 +0200,12517.777271375,0.499755859375,0.311431884765625,-0.94635009765625,12517.762243375,0.5493572474566329,0.478830655437876,-0.2219679010026667,0.1893310844898224,-1.002177476882935,0.4125659465789795,0.0298163890838623,0.1363085508346558,-0.06176245212554932,XArbitraryZVertical,-0.1674876886132941,0.197656420132921,0.23660031967468,0.9364294648288418,0.4494378864765167,0.2201496660709381,-0.8657596111297607
2020-08-20 22:25:45.090 +0200,12517.797309375,0.485626220703125,0.3017120361328125,-0.93115234375,12517.782281375,0.5557281818469433,0.4598197758842265,-0.2160034318204873,0.03460128605365753,-1.040189981460571,0.3935300707817078,0.07929334044456482,0.1040915548801422,-0.0692514181137085,XArbitraryZVertical,-0.1630762975259977,0.18908231663137,0.2419059382934168,0.9376222204241798,0.4334738254547119,0.2143276482820511,-0.8753079771995544
2020-08-20 22:25:45.110 +0200,12517.817346375,0.45404052734375,0.313690185546875,-0.9098663330078125,12517.802318375,0.5626812162324666,0.4403088794313246,-0.2135135794429328,-0.08274437487125397,-1.051500678062439,0.3289149403572083,0.08434498310089111,0.09942913055419922,-0.04221564531326294,XArbitraryZVertical,-0.1601809027185728,0.1797300934157816,0.2470455401812569,0.9386201047555988,0.4165405035018921,0.2118949890136719,-0.884078323841095
2020-08-20 22:25:45.129 +0200,12517.837383375,0.4293365478515625,0.304168701171875,-0.8763275146484375,12517.822355375,0.5685911094488341,0.4205621062172075,-0.2128046077614749,-0.03549057990312576,-1.034279346466064,0.2187897562980652,0.07101720571517944,0.1056240797042847,-0.02122068405151367,XArbitraryZVertical,-0.1579082772657076,0.1700915231219355,0.2514735505438801,0.9396249300629961,0.3990639746189117,0.2112020701169968,-0.8922677040100098
2020-08-20 22:25:45.150 +0200,12517.857420375,0.390869140625,0.2500762939453125,-0.8569183349609375,12517.842392375,0.5713440032565913,0.4006257830904353,-0.2099176013218308,0.1858768314123154,-1.009392380714417,0.1483210623264313,0.06343850493431091,0.10793137550354,0.02170562744140625,XArbitraryZVertical,-0.1542736276519033,0.1609283487144334,0.254646560560382,0.9409871800403524,0.381433516740799,0.2083793133497238,-0.9006034135818481
2020-08-20 22:25:45.170 +0200,12517.877457375,0.3653411865234375,0.2248077392578125,-0.8968963623046875,12517.862430375,0.5712271362072833,0.3809872434484878,-0.2040273638331996,0.3648862540721893,-0.9406956434249878,0.06523318588733673,0.04244095087051392,0.05983534455299377,0.05737847089767456,XArbitraryZVertical,-0.1490133011823412,0.1525554770225568,0.2567103879155487,0.9426673417190381,0.3641246557235718,0.2026147991418839,-0.9090437293052673
2020-08-20 22:25:45.190 +0200,12517.897495375,0.34893798828125,0.2162933349609375,-0.903900146484375,12517.882467375,0.5688015161333819,0.3624015904020374,-0.1954977970899132,0.4942386448383331,-0.86678546667099,0.02232828922569752,0.0314161479473114,0.03708070516586304,0.02704620361328125,XArbitraryZVertical,-0.1424619804755898,0.1452114179464882,0.2577902923108104,0.9445434510650256,0.3477676212787628,0.1942548751831055,-0.9172364473342896
2020-08-20 22:25:45.210 +0200,12517.917532375,0.3255767822265625,0.1952056884765625,-0.9111175537109375,12517.902504375,0.5654833033609981,0.3451337006305772,-0.1861272719541326,0.4766941368579865,-0.7923583984375,0.007600401062518358,0.0273822546005249,0.0409734845161438,0.02287644147872925,XArbitraryZVertical,-0.1356125156211718,0.1386389033445888,0.258332929736913,0.9463892025909986,0.3324790894985199,0.1850544512271881,-0.9247769713401794
2020-08-20 22:25:45.230 +0200,12517.937569375,0.2964935302734375,0.181427001953125,-0.90966796875,12517.922541375,0.5631154953236818,0.3306139636183572,-0.1789325028782928,0.4368033111095428,-0.7348258495330811,0.03794354572892189,0.0192609429359436,0.02217753231525421,0.01928627490997314,XArbitraryZVertical,-0.1301979586665903,0.1329565228524129,0.2588450114140806,0.9478239489572299,0.3194409310817719,0.1779792159795761,-0.930742084980011
2020-08-20 22:25:45.250 +0200,12517.957606375,0.260223388671875,0.141265869140625,-0.9358673095703125,12517.942578375,0.5617527268244341,0.3188338505145435,-0.1726000010708398,0.4333068430423737,-0.6721441149711609,0.06742104887962341,0.0004538595676422119,0.01875723898410797,0.0285264253616333,XArbitraryZVertical,-0.1256044948588573,0.1283647456112454,0.2595180864077305,0.9488921648350088,0.3088018894195557,0.1717443019151688,-0.9354919791221619
2020-08-20 22:25:45.270 +0200,12517.977644375,0.2218780517578125,0.0973663330078125,-0.951934814453125,12517.962616375,0.56094919543112,0.3071465645753155,-0.1660460166708883,0.391919881105423,-0.6931290030479431,0.06217104569077492,-0.02285757660865784,-0.01340600848197937,0.006918549537658691,XArbitraryZVertical,-0.1209474828684235,0.1238013995036713,0.2604218715782839,0.9498553829497536,0.2981815934181213,0.165284052491188,-0.9400898218154907
2020-08-20 22:25:45.290 +0200,12517.997681375,0.20074462890625,0.0778656005859375,-0.93865966796875,12517.982653375,0.5596693659118589,0.2943005790755084,-0.1602047235831983,0.3664921522140503,-0.7427042722702026,0.005096953362226486,-0.05237126350402832,-0.05269837379455566,-0.009654045104980469,XArbitraryZVertical,-0.1164391261062697,0.1186031032541137,0.2610601609714792,0.9509063226455025,0.286356121301651,0.1595203131437302,-0.9447504878044128
2020-08-20 22:25:45.310 +0200,12518.0177185,0.2226409912109375,0.0979461669921875,-0.9643402099609375,12518.002690375,0.5572382385113483,0.2807443138106898,-0.1540865333575582,0.4135867059230804,-0.7221308350563049,-0.05632242932915688,-0.06280961632728577,-0.07080069184303284,0.01203399896621704,XArbitraryZVertical,-0.1116365820674562,0.1131571532717926,0.2611619878640579,0.9521171719610458,0.2737882137298584,0.1534775197505951,-0.9494654536247253
2020-08-20 22:25:45.330 +0200,12518.0377555,0.2667999267578125,0.088623046875,-1.006454467773438,12518.0227275,0.5536337771720909,0.2679734779252502,-0.1463784099255467,0.5627039670944214,-0.635078489780426,-0.05731004104018211,-0.0371774435043335,-0.04599198698997498,-0.008646309375762939,XArbitraryZVertical,-0.1061203442128677,0.108351309383458,0.2607240631494334,0.953426157504646,0.2619462013244629,0.1458562314510345,-0.9539969563484192
2020-08-20 22:25:45.365 +0200,12518.0577925,0.2814178466796875,0.0278778076171875,-1.046905517578125,12518.0427655,0.5497032975422657,0.2566931800645512,-0.135639380444487,0.6192218661308289,-0.5518168807029724,-0.0302954688668251,0.01857729256153107,-0.03711088001728058,-0.04051554203033447,XArbitraryZVertical,-0.09934599264843039,0.1046659374157174,0.2602047112569743,0.9547087978963751,0.2515515685081482,0.135223850607872,-0.9583508372306824
2020-08-20 22:25:45.382 +0200,12518.0778305,0.277313232421875,0.004791259765625,-1.059326171875,12518.0628025,0.5467362798475534,0.2455634463026156,-0.1243955269243787,0.3944713175296783,-0.5278955698013306,0.005965257994830608,0.04838770627975464,-0.08612480759620667,-0.07842212915420532,XArbitraryZVertical,-0.09239996831501063,0.1010428789301666,0.2600954949112558,0.9558258097660809,0.2412244081497192,0.1240749508142471,-0.9625051617622375
2020-08-20 22:25:45.390 +0200,12518.0978675,0.24505615234375,0.0044708251953125,-1.002838134765625,12518.0828395,0.5455708624188933,0.2337663084656163,-0.1191663668233898,0.05527247861027718,-0.5855708718299866,-0.02049739472568035,0.05576689541339874,-0.1118582859635353,-0.09541052579879761,XArbitraryZVertical,-0.08831747830192109,0.09617225207962489,0.260414299964027,0.956627103845515,0.230000227689743,0.1188845261931419,-0.9659018516540527
2020-08-20 22:25:45.410 +0200,12518.1179045,0.1750640869140625,0.003692626953125,-0.93621826171875,12518.1028765,0.5444259007965754,0.2213390491479442,-0.1181880256509521,0.01419295184314251,-0.5999127626419067,-0.08664996922016144,0.04057787358760834,-0.1091776639223099,-0.03948855400085449,XArbitraryZVertical,-0.08617940731818589,0.09040949684899849,0.2604697115712618,0.9573687278618421,0.2180047035217285,0.1179130673408508,-0.9687984585762024
2020-08-20 22:25:45.430 +0200,12518.1379415,0.116424560546875,-0.00335693359375,-0.917205810546875,12518.1229135,0.5416764647195217,0.210401443388972,-0.1161309913588826,0.2131699770689011,-0.5696784257888794,-0.1659100502729416,-0.01686584949493408,-0.107778400182724,0.03005534410476685,XArbitraryZVertical,-0.08365433908131982,0.08556821388839714,0.2597400049234171,0.9582354844738952,0.2074457556009293,0.1158701330423355,-0.9713600873947144
2020-08-20 22:25:45.450 +0200,12518.1579795,0.088897705078125,-0.011688232421875,-0.9020233154296875,12518.1429515,0.5362348545765252,0.2005572467649008,-0.1081051419204446,0.4994464814662933,-0.5336288213729858,-0.2563446462154388,-0.06928953528404236,-0.1092227101325989,0.05478262901306152,XArbitraryZVertical,-0.07831649092060809,0.08215228757127864,0.257985412760602,0.9594587360375992,0.1980524808168411,0.1078946962952614,-0.9742350578308105
2020-08-20 22:25:45.470 +0200,12518.1780165,0.0745697021484375,-0.0639190673828125,-0.899383544921875,12518.1629885,0.5283937084018552,0.1914643019075334,-0.09462783493807551,0.6757360100746155,-0.4969089329242706,-0.3062320351600647,-0.09268957376480103,-0.09760698676109314,0.07609575986862183,XArbitraryZVertical,-0.07037898259664972,0.07987202716197392,0.2552834877216827,0.9609878509471224,0.189445286989212,0.09448667615652084,-0.9773344993591309
2020-08-20 22:25:45.490 +0200,12518.1980535,0.0491485595703125,-0.083740234375,-0.8883514404296875,12518.1830255,0.5200109867807747,0.1828337082769033,-0.08037187731990095,0.6106530427932739,-0.4977747201919556,-0.2990397214889526,-0.0984790027141571,-0.1355767548084259,0.08118104934692383,XArbitraryZVertical,-0.06211297115674068,0.07786464938249828,0.2522613742401309,0.9625192698962058,0.1812298595905304,0.08028537780046463,-0.9801581501960754
2020-08-20 22:25:45.511 +0200,12518.2180905,0.0417633056640625,-0.1029205322265625,-0.879119873046875,12518.2030625,0.5126286821232549,0.173265215075273,-0.06935203158754726,0.4055678844451904,-0.4864597320556641,-0.2692815363407135,-0.1145628690719604,-0.1490095853805542,0.09614664316177368,XArbitraryZVertical,-0.0553328818664007,0.07489106119470251,0.2495127246360472,0.9638843398603408,0.1719851642847061,0.0692964494228363,-0.9826592206954956
2020-08-20 22:25:45.530 +0200,12518.2381275,0.0338134765625,-0.092926025390625,-0.8933563232421875,12518.2231005,0.5064251334084194,0.1626855465395746,-0.06296390115015145,0.187548890709877,-0.4789386987686157,-0.242814764380455,-0.1151382476091385,-0.1594514548778534,0.1030967831611633,XArbitraryZVertical,-0.05071733963555923,0.07076383400587588,0.2470872787021099,0.9650742088074952,0.1616479158401489,0.06292230635881424,-0.984840452671051
2020-08-20 22:25:45.551 +0200,12518.2581655,0.0423583984375,-0.038543701171875,-0.918548583984375,12518.2431375,0.5014853665543718,0.1523277444816622,-0.06010212087819883,0.1362404376268387,-0.4721082448959351,-0.2174884378910065,-0.1115910708904266,-0.1570200622081757,0.099037766456604,XArbitraryZVertical,-0.04789380759414354,0.06624387488461364,0.2450777036138126,0.9660511598588222,0.1514653563499451,0.06006594374775887,-0.9866358637809753
2020-08-20 22:25:45.571 +0200,12518.2782025,0.057830810546875,-0.043853759765625,-0.95330810546875,12518.2631745,0.4965212680049729,0.1425196798767604,-0.05679413168252757,0.2774773240089417,-0.4772316217422485,-0.2187526226043701,-0.09689559042453766,-0.09754651039838791,0.0744931697845459,XArbitraryZVertical,-0.04494087753708601,0.06202980021009666,0.2430362642952377,0.9669880844824369,0.1418086886405945,0.05676360428333282,-0.9882652163505554
2020-08-20 22:25:45.591 +0200,12518.2982395,0.0619964599609375,-0.0619049072265625,-0.9437103271484375,12518.2832115,0.4911871567493499,0.1324543047158891,-0.05106284018878619,0.3224467933177948,-0.5039860010147095,-0.2302768677473068,-0.0709344893693924,-0.09139204025268555,0.03924357891082764,XArbitraryZVertical,-0.04079326568924953,0.05797878842636843,0.2408813150572143,0.9679620523874619,0.1318951994180679,0.0510406531393528,-0.9899487495422363
2020-08-20 22:25:45.610 +0200,12518.3182765,0.052642822265625,-0.0381622314453125,-0.9506988525390625,12518.3032485,0.4857571975749931,0.1216468978787443,-0.04633967077388352,0.1967493146657944,-0.5426651835441589,-0.2474111169576645,-0.05346393585205078,-0.1046899408102036,0.04611486196517944,XArbitraryZVertical,-0.03706115503209801,0.05342453815388932,0.2386216250804144,0.9689334833282151,0.1212168335914612,0.04632308706641197,-0.9915446043014526
2020-08-20 22:25:45.631 +0200,12518.3383145,0.0781097412109375,0.0074310302734375,-0.9679107666015625,12518.3232865,0.4800201065048389,0.1103796828433375,-0.04412277536729475,0.1038175150752068,-0.5537263751029968,-0.3011051714420319,-0.05358515679836273,-0.08652279525995255,0.04556608200073242,XArbitraryZVertical,-0.03450410899545849,0.04833175361138026,0.2361107379346665,0.9699098776832809,0.1100484728813171,0.04410846158862114,-0.9929470419883728
2020-08-20 22:25:45.651 +0200,12518.3583515,0.093719482421875,-0.0092926025390625,-0.9656829833984375,12518.3433235,0.4730349294643583,0.0986456813043637,-0.04296629433888386,0.09660087525844574,-0.5977523922920227,-0.3746261596679688,-0.02274921536445618,-0.03489691764116287,0.02536076307296753,XArbitraryZVertical,-0.03240795164169342,0.0428917981606734,0.2329498929537869,0.9710017437230506,0.09839487820863724,0.04295307397842407,-0.9942200183868408
2020-08-20 22:25:45.671 +0200,12518.3783885,0.10260009765625,-0.027130126953125,-0.9688568115234375,12518.3633605,0.4650336816804144,0.08563744130135612,-0.04150560797916553,0.108332097530365,-0.6619415283203125,-0.4118694961071014,0.01109882444143295,-0.04729233682155609,0.03103429079055786,XArbitraryZVertical,-0.03003584545956537,0.03686746094102454,0.2293022186538148,0.9721929286967848,0.0854591429233551,0.04149369150400162,-0.9954772591590881
2020-08-20 22:25:45.691 +0200,12518.3984255,0.1272125244140625,-0.0241241455078125,-0.962066650390625,12518.3833975,0.4563526874931353,0.07139636838014506,-0.03934158830683842,0.06752261519432068,-0.7068709135055542,-0.4295081794261932,0.03128879517316818,-0.06416434049606323,0.0263863205909729,XArbitraryZVertical,-0.02721919994386807,0.03031235275961601,0.225329834249584,0.9734304367447534,0.07128053158521652,0.03933143988251686,-0.9966805577278137
2020-08-20 22:25:45.711 +0200,12518.4184635,0.1461639404296875,-0.00506591796875,-0.9637298583984375,12518.4034355,0.4481896065779715,0.05678256666487456,-0.03721121116387602,0.002381432801485062,-0.699036717414856,-0.3751205205917358,0.06987641006708145,-0.0622851550579071,0.03539729118347168,XArbitraryZVertical,-0.02443930862641166,0.02354016317527192,0.2215809488110556,0.9745514552414059,0.05671277269721031,0.0372026227414608,-0.9976971745491028
2020-08-20 22:25:45.731 +0200,12518.4385005,0.1502685546875,0.0333251953125,-0.9947509765625,12518.4234725,0.4417474478532089,0.04349362596874897,-0.0376078751150816,-0.1023130267858505,-0.6233416795730591,-0.2641193866729736,0.1035079956054688,-0.04547248780727386,0.03288435935974121,XArbitraryZVertical,-0.02310482563783381,0.01709469021812689,0.2185927467490307,0.9753928009911049,0.04344917088747025,0.03759901225566864,-0.9983478784561157
2020-08-20 22:25:45.751 +0200,12518.4585375,0.1724700927734375,0.0713653564453125,-1.006668090820312,12518.4435095,0.4379901429989781,0.03329175250100186,-0.039690236671498,-0.1917620897293091,-0.5321494340896606,-0.1454692333936691,0.117941714823246,-0.01135546714067459,0.01122814416885376,XArbitraryZVertical,-0.02298260603413918,0.01193391288922678,0.2168535266786847,0.9758605888673021,0.03325938805937767,0.03967981785535812,-0.9986587762832642
2020-08-20 22:25:45.771 +0200,12518.4785745,0.1662750244140625,0.0990447998046875,-0.987823486328125,12518.4635465,0.4357836458321229,0.02511865604079828,-0.04337399764791383,-0.3494648933410645,-0.4895159900188446,-0.09231626987457275,0.1450185328722,0.02800194919109344,-0.01436948776245117,XArbitraryZVertical,-0.02388514994695651,0.007571781411405496,0.2158379891869081,0.976107649229418,0.02509239315986633,0.0433603972196579,-0.9987443089485168
2020-08-20 22:25:45.791 +0200,12518.4986115,0.145904541015625,0.1375579833984375,-0.95654296875,12518.4835845,0.4342931005939077,0.01855050969268162,-0.04986789222057974,-0.4972396790981293,-0.4802865386009216,-0.109759546816349,0.1525084972381592,0.04303437098860741,0.007998108863830566,XArbitraryZVertical,-0.02634248016050404,0.003683408348260384,0.2151420179548481,0.9762204935232817,0.01852638646960258,0.04984722658991814,-0.9985849857330322
2020-08-20 22:25:45.811 +0200,12518.5186495,0.1265106201171875,0.169036865234375,-0.939453125,12518.5036215,0.431955643428064,0.01350744092974776,-0.05783561527485443,-0.4409344792366028,-0.4082999527454376,-0.1456947177648544,0.1338027864694595,0.08026398718357086,0.03851419687271118,XArbitraryZVertical,-0.02968811126651488,0.0003978483194497932,0.2140174060149499,0.9763785597998957,0.01348444633185863,0.05780337750911713,-0.9982368946075439
2020-08-20 22:25:45.831 +0200,12518.5386865,0.1234588623046875,0.1651153564453125,-0.925689697265625,12518.5236585,0.4288185554424923,0.010422170494095,-0.06454085701397524,-0.3256257176399231,-0.3411632776260376,-0.2116580605506897,0.1186173558235168,0.1024822369217873,0.05580711364746094,XArbitraryZVertical,-0.03263378888741786,-0.001775813438872325,0.2124923155284753,0.9766160683508259,0.01040028315037489,0.06449605524539948,-0.99786376953125
2020-08-20 22:25:45.865 +0200,12518.5587235,0.1186370849609375,0.18701171875,-0.9384613037109375,12518.5436955,0.4245399011137908,0.009114011875255309,-0.0706950361368978,-0.2636606395244598,-0.3045746386051178,-0.2548128366470337,0.1152469366788864,0.09648823738098145,0.07233864068984985,XArbitraryZVertical,-0.03550605963549041,-0.002993440090025108,0.2103882175521038,0.9769683829169902,0.009091120213270187,0.07063616067171097,-0.9974607229232788
2020-08-20 22:25:45.879 +0200,12518.5787605,0.1246185302734375,0.169921875,-0.9168853759765625,12518.5637325,0.4189727827565872,0.00817940842902898,-0.0776042482337755,-0.3278442621231079,-0.3409622013568878,-0.3411804139614105,0.1101726442575455,0.1106568351387978,0.05735480785369873,XArbitraryZVertical,-0.03879382675174727,-0.004069829355705073,0.2076440904140533,0.9774264591235856,0.008154699578881264,0.07752637565135956,-0.9969569444656372
2020-08-20 22:25:45.891 +0200,12518.5987985,0.099090576171875,0.1706085205078125,-0.8870086669921875,12518.5837705,0.4122886778665829,0.005213010096989596,-0.08796845892458841,-0.4569774866104126,-0.3915092647075653,-0.3611517250537872,0.122716024518013,0.08766569197177887,0.07638013362884521,XArbitraryZVertical,-0.04357194329289558,-0.006451235892098156,0.2043765603173661,0.977900880577239,0.005192829295992851,0.08785504847764969,-0.9961197376251221
2020-08-20 22:25:45.912 +0200,12518.6188355,0.0870361328125,0.2451019287109375,-0.8834228515625,12518.6038075,0.4054520937273839,0.0005150410129359361,-0.100912358788511,-0.5453475713729858,-0.3818246722221375,-0.3516777157783508,0.1017527431249619,0.06846839189529419,0.1087342500686646,XArbitraryZVertical,-0.04945371901477058,-0.00990262598965355,0.2010713331496322,0.978277359861918,0.0005124207818880677,0.1007411777973175,-0.9949125647544861
2020-08-20 22:25:45.931 +0200,12518.6388725,0.05084228515625,0.274688720703125,-0.90789794921875,12518.6238445,0.3990786100469407,-0.004414933893378986,-0.1137261610575855,-0.4958491027355194,-0.3188678026199341,-0.2962512373924255,0.09261297434568405,0.1277207732200623,0.1083871722221375,XArbitraryZVertical,-0.05526778229684329,-0.01342533960334561,0.1980198983444064,0.9785466090240441,-0.004386399872601032,0.1134811714291573,-0.9935304522514343
2020-08-20 22:25:45.951 +0200,12518.6589095,0.051727294921875,0.281280517578125,-0.9136505126953125,12518.6438815,0.3943687591110395,-0.008224553179361011,-0.1244790431130988,-0.4164187610149384,-0.2369029074907303,-0.2027891725301743,0.06355460733175278,0.1499094516038895,0.08994489908218384,XArbitraryZVertical,-0.06018946488724538,-0.01621008107979268,0.1957788901089917,0.9786649635324228,-0.008160823956131935,0.1241578236222267,-0.9922289252281189
2020-08-20 22:25:45.972 +0200,12518.6789475,0.05560302734375,0.3003692626953125,-0.9170989990234375,12518.6639195,0.3911995928292191,-0.01006272133048824,-0.1351894256934962,-0.5011638402938843,-0.1676191687583923,-0.1236555799841881,0.05729709565639496,0.151416152715683,0.076546311378479,XArbitraryZVertical,-0.06527881361189435,-0.01805132341756718,0.1942419815661242,0.9786127690827554,-0.009970738552510738,0.1347780078649521,-0.9908256530761719
2020-08-20 22:25:45.992 +0200,12518.6989845,0.0430450439453125,0.30633544921875,-0.8860015869140625,12518.6839565,0.3899748895237193,-0.01069546650785615,-0.1481798217891975,-0.6604969501495361,-0.118432454764843,-0.0301677118986845,0.06792572140693665,0.1530875116586685,0.07296252250671387,XArbitraryZVertical,-0.07158509617229157,-0.01957387372329059,0.1936082547018093,0.9782680109297208,-0.01057805772870779,0.1476381421089172,-0.9889848828315735
2020-08-20 22:25:46.012 +0200,12518.7190215,0.033782958984375,0.27227783203125,-0.81866455078125,12518.7039935,0.3901273180524563,-0.01060407775313454,-0.1652094015000025,-0.809533417224884,-0.05095993727445602,0.04087439179420471,0.05273517966270447,0.1508304923772812,0.09417760372161865,XArbitraryZVertical,-0.07992068294699342,-0.02117648514226718,0.1935945253844472,0.9775916316546199,-0.01045949570834637,0.1644588857889175,-0.9863284826278687
2020-08-20 22:25:46.031 +0200,12518.7390585,0.0284881591796875,0.1488800048828125,-0.754974365234375,12518.7240305,0.3914795974710026,-0.009964251838558777,-0.1855070673837534,-1.098639607429504,0.01835069432854652,0.09491068869829178,0.04491801187396049,0.1046440899372101,0.1502628922462463,XArbitraryZVertical,-0.08988597698382497,-0.02287972835826202,0.1941064685572419,0.9765856928774097,-0.009793131612241268,0.1844449192285538,-0.9827940464019775
2020-08-20 22:25:46.051 +0200,12518.7590955,0.0096893310546875,0.35418701171875,-0.885894775390625,12518.7440685,0.3937689851007169,-0.008186025560770631,-0.209224171253767,-1.218286871910095,0.106442466378212,0.145618349313736,0.03935813903808594,-0.04883614182472229,0.2275145649909973,XArbitraryZVertical,-0.1016069078568101,-0.02441819706182692,0.1949630743408495,0.9752277838629692,-0.008007418364286423,0.2077010571956635,-0.9781595468521118
2020-08-20 22:25:46.072 +0200,12518.7791335,0.0136566162109375,0.5098114013671875,-0.9856414794921875,12518.7641055,0.396328445994898,-0.004914601549586129,-0.2317047743543044,-0.9354239702224731,0.1476551592350006,0.09250494837760925,0.01478086039423943,0.09835512936115265,0.1123141646385193,XArbitraryZVertical,-0.1128503317062718,-0.02514984127089175,0.1958280172100385,0.9737985814000553,-0.004783246200531721,0.2296370714902878,-0.9732645750045776
2020-08-20 22:25:46.091 +0200,12518.7991705,-0.0326690673828125,0.4685821533203125,-0.996185302734375,12518.7841425,0.3979361177243586,-0.001335263690178223,-0.2448118193980042,-0.3978549242019653,0.1729730218648911,0.08716607093811035,0.01712410524487495,0.2698543965816498,-0.009202241897583008,XArbitraryZVertical,-0.1195605490890292,-0.02478367155155602,0.1962587875528259,0.9729201420623051,-0.001295449677854776,0.2423737645149231,-0.9701820611953735
2020-08-20 22:25:46.112 +0200,12518.8192075,-0.048553466796875,0.2696380615234375,-0.9145660400390625,12518.8041795,0.3996329419259266,0.003249826902017756,-0.2496038507010709,-0.157041922211647,0.2259179949760437,0.05638570711016655,-0.02950943633913994,0.2431974858045578,-0.02767634391784668,XArbitraryZVertical,-0.1223213194635053,-0.02312738218646774,0.1967471707617132,0.972518988896525,0.003149110358208418,0.2470201104879379,-0.9690052270889282
2020-08-20 22:25:46.132 +0200,12518.8392445,-0.0635223388671875,0.2169952392578125,-0.88739013671875,12518.8242165,0.4011232119307601,0.008464134413383872,-0.2537222341753261,-0.289685994386673,0.2617915868759155,0.1120579466223717,-0.05621583014726639,0.05056706070899963,0.04678678512573242,XArbitraryZVertical,-0.1248202012396341,-0.02109137900712143,0.1970922839183516,0.9721778102976765,0.008193056099116802,0.2510087490081787,-0.967950165271759
2020-08-20 22:25:46.152 +0200,12518.8592825,-0.056182861328125,0.376007080078125,-0.96575927734375,12518.8442545,0.4044207373346935,0.01548681168095925,-0.2609711906967388,-0.421004980802536,0.3632042109966278,0.1909010857343674,-0.07636865973472595,-0.04374849796295166,0.08390706777572632,XArbitraryZVertical,-0.1290026125947412,-0.01860993320143849,0.1981348421561195,0.971470352669318,0.01496182754635811,0.258018970489502,-0.9660239815711975
2020-08-20 22:25:46.172 +0200,12518.8793195,-0.066436767578125,0.3821258544921875,-1.03399658203125,12518.8642915,0.4082998975387797,0.02422548502073877,-0.2683970938771813,-0.2657350897789001,0.3963030576705933,0.1756387501955032,-0.08044152706861496,0.1060312390327454,0.01251208782196045,XArbitraryZVertical,-0.1334415840760088,-0.01536887253965129,0.199310346925538,0.9706865801256253,0.02335586026310921,0.2651862502098083,-0.9639142751693726
2020-08-20 22:25:46.192 +0200,12518.8993565,-0.06884765625,0.298614501953125,-1.039276123046875,12518.8843285,0.4124261396028311,0.03338029901979543,-0.2705935537195506,0.03626762703061104,0.4213335812091827,0.2168542891740799,-0.09553152322769165,0.1323004961013794,-0.0665321946144104,XArbitraryZVertical,-0.1353942419867407,-0.01142786742100098,0.2006518001058961,0.9701941207993465,0.03215969726443291,0.2673034369945526,-0.963075578212738
2020-08-20 22:25:46.212 +0200,12518.9193935,-0.053680419921875,0.2846832275390625,-0.997802734375,12518.9043655,0.4167664875824642,0.04254518726393475,-0.2687783490075926,0.1719470322132111,0.4526917636394501,0.2480592131614685,-0.1117453351616859,0.04819521307945251,-0.07775664329528809,XArbitraryZVertical,-0.1354176403314169,-0.007089147367637515,0.202178309350025,0.9699153742770541,0.04100527241826057,0.2655538320541382,-0.9632236361503601
2020-08-20 22:25:46.232 +0200,12518.9394315,-0.05645751953125,0.287872314453125,-0.98712158203125,12518.9244035,0.4220151629086924,0.05079454335258204,-0.2637460111168609,0.2261387705802917,0.4711658358573914,0.3381870985031128,-0.1011808887124062,0.03358080983161926,-0.03560572862625122,XArbitraryZVertical,-0.1338058084909436,-0.002915606342340123,0.2042946411670211,0.9697171023386217,0.04901699349284172,0.2606988549232483,-0.9641749858856201
2020-08-20 22:25:46.252 +0200,12518.9594685,-0.042938232421875,0.2791748046875,-1.041610717773438,12518.9444405,0.4291176219355539,0.05962989816989119,-0.2610228904446469,0.2083146274089813,0.4608189165592194,0.4470991492271423,-0.1116085201501846,0.03832593560218811,-0.01854825019836426,XArbitraryZVertical,-0.1333938345807215,0.001182386116932182,0.2072211825116949,0.9691563332491034,0.05757588893175125,0.2580689191818237,-0.964409351348877
2020-08-20 22:25:46.272 +0200,12518.9795055,-0.006591796875,0.2746734619140625,-1.06488037109375,12518.9644775,0.4386933110561918,0.0683160323532446,-0.2599312226657561,0.1979821026325226,0.4173105955123901,0.5696554183959961,-0.1097913905978203,0.02923117578029633,-0.07188153266906738,XArbitraryZVertical,-0.133789414829447,0.004868499177206685,0.2113110632897954,0.9682067201034467,0.0659697949886322,0.2570140957832336,-0.9641534090042114
2020-08-20 22:25:46.292 +0200,12518.9995425,0.011260986328125,0.3239288330078125,-1.10272216796875,12518.9845145,0.4507371599420308,0.07629540754149983,-0.2563709795168513,0.2453468143939972,0.3671584725379944,0.7037346959114075,-0.08193943649530411,0.0301397442817688,-0.09566742181777954,XArbitraryZVertical,-0.1329640750383058,0.00832311998558136,0.2167188304719554,0.9671009680709419,0.0737302303314209,0.2535718083381653,-0.9645025730133057
2020-08-20 22:25:46.312 +0200,12519.01957966667,0.0659942626953125,0.334320068359375,-1.100723266601562,12519.0045515,0.4652493208223599,0.08550147809992381,-0.2495210596182202,0.3503512740135193,0.3089599013328552,0.7517552375793457,-0.07311703264713287,0.07646620273590088,-0.1317582726478577,XArbitraryZVertical,-0.1307505830751366,0.01260276917688893,0.2233565534186873,0.9658454128670292,0.08275265246629715,0.2469398826360703,-0.9654909372329712
2020-08-20 22:25:46.332 +0200,12519.03961766667,0.0865936279296875,0.237060546875,-1.043319702148438,12519.02458966667,0.4803177392100054,0.09416810659214075,-0.2406059576123623,0.3873035609722137,0.1852169036865234,0.8042031526565552,-0.030483178794384,0.1089382171630859,-0.136078417301178,XArbitraryZVertical,-0.1275536822511065,0.01687114565922412,0.2303895897695676,0.9645548474292931,0.09132037311792374,0.2382911741733551,-0.9668908715248108
2020-08-20 22:25:46.367 +0200,12519.05965466667,0.0886993408203125,0.2060394287109375,-0.9857025146484375,12519.04462666667,0.4972726768467689,0.1006036968325688,-0.2318441909224127,0.3051187992095947,0.07359317690134048,0.9057236313819885,-0.00664905458688736,0.02661427855491638,-0.08116286993026733,XArbitraryZVertical,-0.1242542313667695,0.01998082791688442,0.2384849617097837,0.9629572083515023,0.09774689376354218,0.229772761464119,-0.968323290348053
2020-08-20 22:25:46.383 +0200,12519.07969166667,0.10345458984375,0.2539215087890625,-1.009597778320312,12519.06466366667,0.5163631516575965,0.1060054662160649,-0.2258126960050321,0.1187906041741371,0.0435311459004879,0.9992164969444275,-0.01177878677845001,-0.01241855323314667,-0.01581013202667236,XArbitraryZVertical,-0.1222197450476448,0.02216991409223765,0.2475698537109742,0.9608746292534878,0.1031208634376526,0.2238985002040863,-0.9691416621208191
2020-08-20 22:25:46.392 +0200,12519.09972866667,0.1081390380859375,0.2517547607421875,-1.032608032226562,12519.08470066667,0.5374788807060314,0.1116868426571439,-0.2217228731061848,0.09270413219928741,0.05901529639959335,1.089152455329895,-0.004666388034820557,0.03716002404689789,-0.03546237945556641,XArbitraryZVertical,-0.1212258032937736,0.02415120966982746,0.257521659686251,0.9583337817385147,0.1087263822555542,0.2199106514453888,-0.9694420695304871
2020-08-20 22:25:46.412 +0200,12519.11976566667,0.1138916015625,0.2228240966796875,-0.9967803955078125,12519.10473866667,0.5606943999885128,0.1183822597429317,-0.2169438582450562,0.07479824125766754,0.09866843372583389,1.193551540374756,-0.002953276038169861,0.04001554846763611,-0.05899208784103394,XArbitraryZVertical,-0.1201224268485974,0.02661121620874757,0.2684271730301024,0.9554105787974982,0.1153375208377838,0.2152461260557175,-0.9697248935699463
2020-08-20 22:25:46.432 +0200,12519.13980366667,0.073699951171875,0.1678619384765625,-0.932342529296875,12519.12477566667,0.58545653317903,0.125392461878105,-0.2143313936117325,-0.1207142621278763,0.07160352915525436,1.250275850296021,-0.004888743162155151,0.02684752643108368,-0.03347378969192505,XArbitraryZVertical,-0.1201857857575322,0.02884115399334425,0.2799298120326183,0.9520309086228512,0.1222025081515312,0.2126941680908203,-0.969447135925293
2020-08-20 22:25:46.452 +0200,12519.15984066667,0.0327911376953125,0.1400604248046875,-0.8977813720703125,12519.14481266667,0.6122492640961709,0.1326535078166867,-0.2149796974852398,-0.2608010768890381,0.09386595338582993,1.316950678825378,-0.04424935579299927,-0.03554895520210266,0.02915364503860474,XArbitraryZVertical,-0.1219289890006783,0.03057171509949585,0.2921876186408001,0.9480639031757948,0.1292201578617096,0.2133275866508484,-0.9683973789215088
2020-08-20 22:25:46.472 +0200,12519.17987766667,0.0500030517578125,0.1772613525390625,-0.93536376953125,12519.16484966667,0.6400793119302002,0.1414052838246216,-0.2161889026393188,-0.1875251233577728,0.198604092001915,1.35279107093811,-0.09747867286205292,-0.06817212700843811,0.06758427619934082,XArbitraryZVertical,-0.1242452826801571,0.03280930929419516,0.3047522342594426,0.943722862646354,0.1376538425683975,0.2145088016986847,-0.9669733047485352
2020-08-20 22:25:46.492 +0200,12519.19991466667,0.12017822265625,0.177459716796875,-0.962738037109375,12519.18488766667,0.6679180402662191,0.1526061183192389,-0.2132299317237563,0.08725052326917648,0.3192074596881866,1.365744948387146,-0.1013872921466827,-0.03534215688705444,0.03706401586532593,XArbitraryZVertical,-0.1250864028043648,0.03682940408666335,0.3173127702490003,0.9393133676577842,0.1485717296600342,0.2116177827119827,-0.9659940004348755
2020-08-20 22:25:46.512 +0200,12519.21995266667,0.15338134765625,0.1412506103515625,-0.9823455810546875,12519.20492466667,0.6949798250031546,0.1651397179675026,-0.2051847542241688,0.258618026971817,0.3649549782276154,1.384858965873718,-0.04211224615573883,-0.01445846259593964,0.01093482971191406,XArbitraryZVertical,-0.1239019156694974,0.04238215861255811,0.32965243417415,0.9349766883526572,0.1609417945146561,0.2037480473518372,-0.9657041430473328
2020-08-20 22:25:46.532 +0200,12519.23998966667,0.1770477294921875,0.1105499267578125,-0.956451416015625,12519.22496166667,0.722237002109994,0.1780897060047509,-0.1954231907762543,0.2298955470323563,0.3849081695079803,1.409505724906921,-0.01949775218963623,-0.04133912920951843,-0.0171886682510376,XArbitraryZVertical,-0.1221724207734662,0.04846272514711768,0.3421264905402479,0.9304164173791908,0.1737778782844543,0.1941816806793213,-0.9654505252838135
2020-08-20 22:25:46.553 +0200,12519.26002666667,0.195404052734375,0.1053924560546875,-0.9844818115234375,12519.24499866667,0.75012650913473,0.191438916706495,-0.1864652166486656,0.1397202461957932,0.4100955724716187,1.435413718223572,-0.006783545017242432,-0.06770043075084686,0.009075164794921875,XArbitraryZVertical,-0.1210887969540426,0.05459484619164253,0.3547916446477117,0.9254619184231766,0.1869734823703766,0.1853865534067154,-0.9647138118743896
2020-08-20 22:25:46.572 +0200,12519.28006366667,0.23736572265625,0.1411895751953125,-0.9680328369140625,12519.26503566667,0.7782995075499499,0.204730486533451,-0.179095345519443,0.01618765853345394,0.4057998955249786,1.410650968551636,-0.001035496592521667,-0.07003343105316162,-0.01187378168106079,XArbitraryZVertical,-0.1209229831645608,0.0604158990075169,0.367448511458336,0.9201680283479109,0.2000515013933182,0.1781394630670547,-0.9634550809860229
2020-08-20 22:25:46.592 +0200,12519.30010166667,0.282867431640625,0.22784423828125,-0.9849700927734375,12519.28507366667,0.8052786391372799,0.2169874487310718,-0.173591050246246,0.01262275222688913,0.3418568670749664,1.28684389591217,0.02434051036834717,-0.02585870027542114,-0.01651853322982788,XArbitraryZVertical,-0.1215552987080946,0.06547851726688092,0.3794417580570598,0.9148556451299972,0.2120530903339386,0.1727205365896225,-0.9618737697601318
2020-08-20 22:25:46.612 +0200,12519.32013866667,0.2535858154296875,0.2843475341796875,-1.018218994140625,12519.30511066667,0.8291963076366571,0.22686026666037,-0.1675786884323463,0.09798865020275116,0.2276932597160339,1.116972684860229,0.06531313061714172,0.05077353119850159,-0.02971357107162476,XArbitraryZVertical,-0.1215428952550366,0.06973812166763348,0.3901591496888759,0.9100218474410194,0.2217685729265213,0.1667954474687576,-0.9607278108596802
2020-08-20 22:25:46.632 +0200,12519.34017566667,0.2418212890625,0.205810546875,-1.042617797851562,12519.32514766667,0.848392266805196,0.2338484341332417,-0.1583942873044469,0.3294133543968201,0.1720960438251495,0.925132691860199,0.03736177086830139,0.130323201417923,-0.05371320247650146,XArbitraryZVertical,-0.1194747159375235,0.07364510115869644,0.399085404742082,0.906108739553931,0.2288221716880798,0.1577327996492386,-0.9606043696403503
2020-08-20 22:25:46.652 +0200,12519.36021266667,0.315185546875,0.1795196533203125,-1.018234252929688,12519.34518466667,0.8633671440854479,0.2395497789608528,-0.1473648006728027,0.3515159785747528,0.1736606508493423,0.7688955664634705,0.01247818768024445,0.07099810242652893,-0.07958030700683594,XArbitraryZVertical,-0.1162418839255683,0.07765246804374065,0.4062864799376212,0.9029890795421397,0.2346936762332916,0.1468320041894913,-0.9609158635139465
2020-08-20 22:25:46.673 +0200,12519.38024966667,0.330169677734375,0.127471923828125,-0.9712066650390625,12519.36522266667,0.8759647927057632,0.2444334242790941,-0.1389449539471851,0.1512256264686584,0.1178802102804184,0.6543967723846436,0.07251828908920288,0.04730254411697388,-0.05767631530761719,XArbitraryZVertical,-0.1139754437090233,0.08091802741392119,0.4122702362192943,0.9002750749194128,0.2396743297576904,0.1384983062744141,-0.9609237313270569
2020-08-20 22:25:46.693 +0200,12519.40028766667,0.22235107421875,0.0976104736328125,-0.967010498046875,12519.38525966667,0.8878769345773595,0.2471622559503442,-0.1341813705069665,0.02301174215972424,0.00616886280477047,0.6031011343002319,0.1034860908985138,0.007410213351249695,-0.01381993293762207,XArbitraryZVertical,-0.1129041434517924,0.08249355322982049,0.4178022220619676,0.8977131327442149,0.2424542903900146,0.1337790787220001,-0.9608949422836304
2020-08-20 22:25:46.713 +0200,12519.42032466667,0.1503753662109375,0.1194000244140625,-0.9775390625,12519.40529666667,0.8990042671511184,0.2484481844866085,-0.1325612934971615,-0.1205416917800903,-0.003038484137505293,0.4983018636703491,0.001377344131469727,-0.03137853741645813,-0.002491593360900879,XArbitraryZVertical,-0.1129137504391951,0.08279430603054477,0.4228308142723782,0.8953265768985893,0.2437427043914795,0.1321733891963959,-0.9607911705970764
2020-08-20 22:25:46.733 +0200,12519.44036166667,0.1514434814453125,0.117095947265625,-0.975616455078125,12519.42533366667,0.9084777935454506,0.2504238893087218,-0.132626730622261,-0.0674290731549263,0.07256146520376205,0.4206223785877228,-0.08509953320026398,-0.009667068719863892,-0.01537346839904785,XArbitraryZVertical,-0.1137554654796683,0.08312649983302092,0.4269502538831251,0.893231889804208,0.2456383258104324,0.1322382539510727,-0.9602993726730347
2020-08-20 22:25:46.753 +0200,12519.46039866667,0.143707275390625,0.105987548828125,-1.010101318359375,12519.44537066667,0.9161140905266673,0.254013510561178,-0.1307132173909459,0.1223455220460892,0.1144623085856438,0.3697373270988464,-0.0893988311290741,-0.007875174283981323,-0.01181715726852417,XArbitraryZVertical,-0.1139984109586839,0.08471758750935481,0.4302882720436959,0.8914478533009312,0.2491469830274582,0.1303413063287735,-0.9596545696258545
2020-08-20 22:25:46.773 +0200,12519.48043666667,0.1073455810546875,0.06097412109375,-0.9485015869140625,12519.46540866667,0.9223673051156435,0.2591830899331626,-0.1267653319581463,0.1694754809141159,0.07586591690778732,0.3289361596107483,-0.1015295386314392,-0.01195584982633591,-0.05152785778045654,XArbitraryZVertical,-0.1136397840687968,0.08754512388403134,0.4330605706426327,0.88987664279728,0.2542345523834229,0.126426100730896,-0.9588437080383301
2020-08-20 22:25:46.793 +0200,12519.50047366667,0.098846435546875,0.0270538330078125,-0.889434814453125,12519.48544566667,0.9283644142965566,0.2616939167338647,-0.1209651056110311,0.1262060403823853,0.06407556682825089,0.3718175292015076,-0.1362824738025665,-0.05256830155849457,0.00191187858581543,XArbitraryZVertical,-0.1118930401828249,0.08962516555012931,0.4360009936988989,0.8884540036150941,0.256826639175415,0.1206703186035156,-0.9588945508003235
2020-08-20 22:25:46.812 +0200,12519.52051066667,0.121490478515625,0.0409698486328125,-0.8662872314453125,12519.50548266667,0.9352233910229335,0.2611288239735675,-0.1182499948543864,-0.08161640167236328,0.09185899794101715,0.3884149491786957,-0.150822639465332,-0.08325151354074478,0.06723594665527344,XArbitraryZVertical,-0.1108811064428048,0.08960535659227732,0.4392708092635486,0.8869709455630663,0.2563683688640594,0.1179746016860008,-0.9593524932861328
2020-08-20 22:25:46.833 +0200,12519.54054766667,0.15533447265625,0.093048095703125,-0.8824615478515625,12519.52551966667,0.9433804138743141,0.2607626503307357,-0.1202761096223919,-0.2892240583896637,0.1134686842560768,0.3678073585033417,-0.1299906224012375,-0.08053120970726013,0.0913625955581665,XArbitraryZVertical,-0.1120541712220534,0.08852771817857212,0.4427607116659162,0.8851947035173536,0.2559548914432526,0.1199863255023956,-0.9592134356498718
2020-08-20 22:25:46.856 +0200,12519.56058566667,0.170074462890625,0.12139892578125,-0.9186553955078125,12519.54555766667,0.9516706294814822,0.2616735003566559,-0.1246236712427603,-0.3419607579708099,0.1503183096647263,0.3406348526477814,-0.09542551636695862,-0.03159550577402115,0.08496320247650146,XArbitraryZVertical,-0.1145277090501945,0.08746394164086138,0.4460628506468667,0.8833240619358007,0.2566911280155182,0.1243013292551041,-0.9584669470787048
2020-08-20 22:25:46.873 +0200,12519.58062266667,0.190399169921875,0.133209228515625,-0.9402008056640625,12519.56559466667,0.9596339004486525,0.2633347020975624,-0.1275320353231627,-0.2363622933626175,0.2052329629659653,0.3501133024692535,-0.08228799700737,-0.004925906658172607,0.04351156949996948,XArbitraryZVertical,-0.1165191407985912,0.08706460918655086,0.4492698599072356,0.8814758619091601,0.2581877708435059,0.1271866112947464,-0.9576860666275024
2020-08-20 22:25:46.893 +0200,12519.60065966667,0.2267913818359375,0.0699920654296875,-0.897857666015625,12519.58563166667,0.966962427498701,0.2661492559161341,-0.1280648928025503,-0.1994745880365372,0.277677595615387,0.3318375647068024,-0.06785213947296143,0.01459688693284988,0.01738035678863525,XArbitraryZVertical,-0.1177063357735113,0.08775063201135845,0.4522928507974493,0.8797023890257493,0.2608643472194672,0.1277151256799698,-0.9568901062011719
2020-08-20 22:25:46.914 +0200,12519.62069666667,0.250885009765625,0.0449066162109375,-0.8445281982421875,12519.60566866667,0.974694402213813,0.2702988790693721,-0.1293832286480947,-0.3531151711940765,0.3159565329551697,0.3703352808952332,-0.03320068120956421,-0.04520241171121597,0.05182552337646484,XArbitraryZVertical,-0.1195631571930597,0.08880603548671036,0.4553464905092769,0.8777686586296498,0.2647876441478729,0.129022553563118,-0.9556362628936768
2020-08-20 22:25:46.933 +0200,12519.64073366667,0.2833404541015625,0.0844879150390625,-0.9254913330078125,12519.62570666667,0.9850532728351081,0.2784442051468948,-0.1363984703442126,-0.5937642455101013,0.3622641265392303,0.4409666955471039,-0.01630017161369324,-0.08625555038452148,0.1066399216651917,XArbitraryZVertical,-0.1249322557657044,0.09008264217524187,0.4588570824180956,0.8750584084990485,0.2723072469234467,0.1359759271144867,-0.9525541067123413
2020-08-20 22:25:46.953 +0200,12519.66077166667,0.360504150390625,0.183135986328125,-0.9940185546875,12519.64574366667,0.9980587390975714,0.2877904112160571,-0.1455715507107588,-0.6014108657836914,0.4135962724685669,0.5056292414665222,0.008339345455169678,-0.07195194065570831,0.03975015878677368,XArbitraryZVertical,-0.1316383457402739,0.0911349719875704,0.4632169196457126,0.8716627346859817,0.2808321416378021,0.1450579613447189,-0.948731541633606
2020-08-20 22:25:46.973 +0200,12519.68080866667,0.405914306640625,0.1883087158203125,-0.9741363525390625,12519.66578066667,1.01101089854422,0.2976777699587709,-0.1524512172629622,-0.4117587506771088,0.3872291147708893,0.5053477883338928,0.06947141885757446,0.02843664586544037,-0.04335254430770874,XArbitraryZVertical,-0.1374917025477631,0.09289777428023561,0.4676250391708237,0.8682124814968764,0.2898991405963898,0.1518613696098328,-0.9449320435523987
2020-08-20 22:25:46.993 +0200,12519.70084566667,0.3683013916015625,0.1459808349609375,-0.938812255859375,12519.68581766667,1.022757473786084,0.3047176117497178,-0.1552516679732068,-0.338178426027298,0.2951740324497223,0.5161242485046387,0.1187772154808044,0.04293714463710785,-0.03949278593063354,XArbitraryZVertical,-0.140893396554109,0.09444484701727481,0.4719905780285382,0.8651324586258488,0.2964153289794922,0.1546287387609482,-0.94245845079422
2020-08-20 22:25:47.013 +0200,12519.72088266667,0.3451690673828125,0.1746978759765625,-0.941986083984375,12519.70585566667,1.03461785105247,0.3114199498331357,-0.1553171737940011,-0.3177618086338043,0.2519189715385437,0.4918719530105591,0.08132588863372803,-0.002947688102722168,0.006160199642181396,XArbitraryZVertical,-0.143076912320566,0.0964806154575641,0.4766302908003335,0.8620001175940094,0.3027221858501434,0.1546934694051743,-0.9404409527778625
2020-08-20 22:25:47.033 +0200,12519.74092066667,0.3721466064453125,0.3562774658203125,-0.98907470703125,12519.72589266667,1.045088780852983,0.3167299311427775,-0.1552410475542045,-0.2395148128271103,0.1247362494468689,0.3923388719558716,0.04687142372131348,0.01630544662475586,0.0005421638488769531,XArbitraryZVertical,-0.1448247437922026,0.09803093259595366,0.4807604584602582,0.8592352323444804,0.3077152967453003,0.1546182483434677,-0.9388314485549927
2020-08-20 22:25:47.053 +0200,12519.76095766667,0.3891448974609375,0.467529296875,-0.992095947265625,12519.74592966667,1.051132003554001,0.3203447872122798,-0.1544286535744744,0.08368320763111115,0.06840799748897552,0.1574046164751053,0.06599316000938416,0.1806877851486206,-0.04487502574920654,XArbitraryZVertical,-0.1456503520753738,0.09934800850282877,0.4831628775214825,0.8575953062816242,0.311146467924118,0.1538155823945999,-0.9378318786621094
2020-08-20 22:25:47.073 +0200,12519.78099466667,0.4018096923828125,0.3803863525390625,-1.009384155273438,12519.76596666667,1.051857761351481,0.3211644688688554,-0.1522076253294215,0.08248705416917801,0.01169172581285238,0.01416813582181931,0.08585098385810852,0.3204942047595978,-0.05404222011566162,XArbitraryZVertical,-0.1449460736712627,0.1002070122895845,0.4836095742990609,0.8573628020438123,0.3120221495628357,0.1516205966472626,-0.9378983974456787
2020-08-20 22:25:47.093 +0200,12519.80103166667,0.4131927490234375,0.2852325439453125,-0.888092041015625,12519.78600366667,1.051187439538503,0.3200874850060892,-0.152238535274911,-0.1219624951481819,-0.1240168362855911,-0.1102782562375069,0.09720703959465027,0.2468103766441345,-0.06206804513931274,XArbitraryZVertical,-0.1446652536856642,0.09978600814101313,0.4833974449727314,0.8575789679242408,0.3110103905200958,0.1516511589288712,-0.9382294416427612
2020-08-20 22:25:47.113 +0200,12519.82106966667,0.333740234375,0.226593017578125,-0.8201141357421875,12519.80604166667,1.048995517023313,0.3159957597925552,-0.1589587227580275,-0.4459031224250793,-0.2390781790018082,-0.2114368379116058,0.1210632920265198,0.1420207321643829,0.03519833087921143,XArbitraryZVertical,-0.1464113726105376,0.09649647597265465,0.4821666239893869,0.8583517070355919,0.3068451881408691,0.1582901477813721,-0.9385042786598206
2020-08-20 22:25:47.134 +0200,12519.84110666667,0.294677734375,0.1741485595703125,-0.87506103515625,12519.82607866667,1.051183533407122,0.3119060042819549,-0.1692354688276306,-0.5257528424263,-0.1670324802398682,0.05599502101540565,0.04854661226272583,0.07001930475234985,0.1261366009712219,XArbitraryZVertical,-0.1498719612210543,0.09198712380474798,0.4825072072434946,0.8580580641708702,0.3024891912937164,0.1684287935495377,-0.9381535053253174
2020-08-20 22:25:47.153 +0200,12519.86114366667,0.3248138427734375,0.174774169921875,-0.91436767578125,12519.84611566667,1.054958302287571,0.3103067735031564,-0.1776816137914362,-0.3258431553840637,-0.08390084654092789,0.03172167763113976,0.009293913841247559,0.01464234292507172,0.05763238668441772,XArbitraryZVertical,-0.1532213835235618,0.08887754868639826,0.4835019699686289,0.8572338220584552,0.3005433678627014,0.1767481714487076,-0.9372479915618896
2020-08-20 22:25:47.173 +0200,12519.88118066667,0.3632354736328125,0.2408447265625,-0.9622650146484375,12519.86615266667,1.056686384350455,0.3097279017549491,-0.1819530823096543,-0.2381848394870758,-0.04335741326212883,-0.03876470401883125,0.03061404824256897,-0.01924452185630798,0.03326171636581421,XArbitraryZVertical,-0.1549581226423125,0.08741213484749795,0.4839079534873171,0.856843153812146,0.2997679114341736,0.1809507608413696,-0.9366942048072815
2020-08-20 22:25:47.193 +0200,12519.90121766667,0.3521728515625,0.2081451416015625,-0.994659423828125,12519.88619066667,1.057075994712602,0.3084385921290841,-0.186792089565933,-0.1447169333696365,-0.09241443872451782,-0.06002688407897949,0.0708635151386261,0.0619930624961853,-0.01271569728851318,XArbitraryZVertical,-0.1567015864781242,0.08559959048578693,0.4837441019411267,0.8568016032615308,0.2982906699180603,0.1857077479362488,-0.9362346529960632
2020-08-20 22:25:47.213 +0200,12519.92125566667,0.323272705078125,0.140045166015625,-0.961212158203125,12519.90622766667,1.055792458186369,0.3066404282816019,-0.1876533865837834,0.06637812405824661,-0.05704313144087791,-0.0870412290096283,0.06764376163482666,0.03599636256694794,-0.06102114915847778,XArbitraryZVertical,-0.1565750651117259,0.08471074131443902,0.4832581601331309,0.857187274949418,0.296558290719986,0.1865539997816086,-0.9366166591644287
2020-08-20 22:25:47.233 +0200,12519.94129266667,0.2929840087890625,0.15545654296875,-0.982421875,12519.92626466667,1.053767116703727,0.3064773519634149,-0.1877285013476434,0.01468816678971052,-0.05431259050965309,-0.09989672154188156,0.03991806507110596,-0.03689005970954895,-0.02428984642028809,XArbitraryZVertical,-0.1564815478241283,0.0847802747186185,0.4823959473394483,0.8576829472217264,0.29640132188797,0.1866277903318405,-0.9366516470909119
2020-08-20 22:25:47.254 +0200,12519.96132966667,0.2674407958984375,0.2469482421875,-0.9737091064453125,12519.94630166667,1.052326694105423,0.30682036538387,-0.188224731108431,-0.09515391290187836,-0.05703034624457359,-0.1227869763970375,0.009391099214553833,-0.03446310758590698,-0.04023635387420654,XArbitraryZVertical,-0.1567123831625056,0.08491443169433301,0.4817070745873422,0.8580146516084445,0.2966945767402649,0.1871152818202972,-0.9364615082740784
2020-08-20 22:25:47.274 +0200,12519.98136666667,0.24957275390625,0.254913330078125,-0.9359588623046875,12519.96633866667,1.050974424283118,0.3083009139810101,-0.1925547645924764,-0.03387963399291039,-0.04602696374058723,-0.1317379772663116,-0.0173303484916687,0.05341321229934692,-0.03594136238098145,XArbitraryZVertical,-0.1588375352427843,0.08456010985094986,0.4806224634710292,0.8582670392493807,0.2978320717811584,0.1913670599460602,-0.9352404475212097
2020-08-20 22:25:47.294 +0200,12520.00140466667,0.2647552490234375,0.229461669921875,-0.9013519287109375,12519.98637666667,1.048230680753557,0.309425838639279,-0.1933486406969297,0.1367545425891876,0.0004558488726615906,-0.1476713716983795,-0.04004818201065063,0.07237280905246735,-0.004745006561279297,XArbitraryZVertical,-0.1593260508402135,0.08506057183784481,0.4792836146969566,0.858875508862028,0.2988376021385193,0.1921462118625641,-0.934759795665741
2020-08-20 22:25:47.314 +0200,12520.02144125,0.2813720703125,0.2083282470703125,-0.917633056640625,12520.00641366667,1.04449367992035,0.3101229420166199,-0.1901011297465501,0.1599339097738266,0.01683615520596504,-0.1479505747556686,-0.02865517139434814,0.04842269420623779,0.0329163670539856,XArbitraryZVertical,-0.1579612443033106,0.08647518249417238,0.4779153988693363,0.8597483759891413,0.2996780276298523,0.1889581978321075,-0.9351405501365662
2020-08-20 22:25:47.334 +0200,12520.04147825,0.2525787353515625,0.213623046875,-0.938873291015625,12520.02645025,1.041301117348905,0.3096803036446009,-0.1868266022151714,0.1009745895862579,-0.01510659884661436,-0.09895142167806625,-0.008598834276199341,0.03331974148750305,0.02668333053588867,XArbitraryZVertical,-0.156332258149496,0.08735851575123112,0.4768711042205375,0.8605362902049033,0.2994510233402252,0.185741662979126,-0.9358574151992798
2020-08-20 22:25:47.365 +0200,12520.06151525,0.253265380859375,0.240234375,-0.9483489990234375,12520.04648725,1.038588417099486,0.3076653342569472,-0.1867874364108533,0.05385714024305344,-0.02076714858412743,-0.1117073521018028,-0.03069937229156494,0.02951177954673767,-0.00199359655380249,XArbitraryZVertical,-0.1557177091374908,0.08671260558162192,0.4758641213218258,0.8612700893154728,0.2975668907165527,0.1857031732797623,-0.936465859413147
2020-08-20 22:25:47.378 +0200,12520.08155225,0.276885986328125,0.225372314453125,-0.9435577392578125,12520.06652525,1.035643451492704,0.3053619486013204,-0.1895923120259143,0.08295004814863205,-0.009177869185805321,-0.1280598938465118,-0.03587192296981812,0.05731433629989624,-0.008576512336730957,XArbitraryZVertical,-0.1562323091483631,0.08524853070817946,0.4745252911993924,0.8620614300618351,0.2952513098716736,0.1884585320949554,-0.9366483092308044
2020-08-20 22:25:47.394 +0200,12520.10159025,0.278839111328125,0.2247467041015625,-0.925384521484375,12520.08656225,1.032488014313843,0.3038218799143826,-0.1908506765203909,0.1010114699602127,-0.005104830954223871,-0.1161506474018097,-0.01153230667114258,0.04366609454154968,-0.008585929870605469,XArbitraryZVertical,-0.1562671935716891,0.08451702287923069,0.4731730852055825,0.8628700281232291,0.2937372624874115,0.1896941959857941,-0.9368748664855957
2020-08-20 22:25:47.414 +0200,12520.12162725,0.267059326171875,0.23443603515625,-0.9223480224609375,12520.10659925,1.030215727201446,0.3033775134533173,-0.1911833511342153,0.1218425780534744,-0.01272812951356173,-0.06730195134878159,-0.003450751304626465,0.04031321406364441,0.01076918840408325,XArbitraryZVertical,-0.1562074067417582,0.08441995611375835,0.4721976212766969,0.8634245611530031,0.293302059173584,0.190020814538002,-0.9369450211524963
2020-08-20 22:25:47.434 +0200,12520.14166425,0.269317626953125,0.209228515625,-0.9429931640625,12520.12663625,1.027902925894013,0.3022460815533174,-0.1898535475703328,0.152380645275116,0.02636654302477837,-0.06894387304782867,-0.01413866877555847,0.04818522930145264,0.02249240875244141,XArbitraryZVertical,-0.1552779621451015,0.08444174351554655,0.4714045890606583,0.864023210833251,0.292316734790802,0.1887150704860687,-0.9375166893005371
2020-08-20 22:25:47.454 +0200,12520.16170125,0.2640533447265625,0.2015228271484375,-0.9289398193359375,12520.14667325,1.025427574241321,0.301126837005784,-0.1890700256871972,0.1820505261421204,0.03289421647787094,-0.05998233333230019,-0.01449182629585266,0.03550297021865845,-0.0029945969581604,XArbitraryZVertical,-0.1545768199789798,0.08434398836500862,0.4704905678832922,0.864656410741411,0.2913110256195068,0.1879455745220184,-0.9379841685295105
2020-08-20 22:25:47.474 +0200,12520.18173925,0.2412261962890625,0.256378173828125,-0.8817291259765625,12520.16671125,1.023180205516282,0.3009995559519081,-0.1872421777926186,0.2307219207286835,0.0683765783905983,-0.03887541219592094,-0.01572549343109131,0.01615484058856964,0.006497621536254883,XArbitraryZVertical,-0.1536739422860466,0.0849142059680329,0.4696890053830739,0.8651971865358162,0.2912929952144623,0.1861499845981598,-0.9383478164672852
2020-08-20 22:25:47.494 +0200,12520.20177625,0.2176666259765625,0.2534027099609375,-0.9090576171875,12520.18674825,1.020186194443628,0.3023657584857173,-0.1829334882767337,0.4087831377983093,0.1215082406997681,-0.0695616826415062,-0.03823778033256531,0.07320557534694672,0.05402475595474243,XArbitraryZVertical,-0.1520305102650758,0.08679723688081499,0.4686663092290116,0.8658550635033772,0.2928107976913452,0.181914895772934,-0.9387059211730957
2020-08-20 22:25:47.514 +0200,12520.22181325,0.1956939697265625,0.1121673583984375,-0.9078521728515625,12520.20678525,1.015931347046164,0.3053046615507,-0.1761665030405943,0.5949205160140991,0.2617114186286926,-0.05336441472172737,-0.06927615404129028,0.09456354379653931,0.02778398990631104,XArbitraryZVertical,-0.1496436460367142,0.09005451588692816,0.4671931483572208,0.8667337967567869,0.2959315478801727,0.1752566993236542,-0.9389939308166504
2020-08-20 22:25:47.534 +0200,12520.24185025,0.0975799560546875,0.31207275390625,-0.92962646484375,12520.22682225,1.011283799961997,0.3095984133020987,-0.1647493712765878,0.9072683453559875,0.3170061111450195,0.06025455892086029,-0.08792632818222046,-0.02365635335445404,0.04415500164031982,XArbitraryZVertical,-0.1455520128706464,0.0950525153848106,0.4658556851079438,0.8676163435722823,0.3005506992340088,0.1640051007270813,-0.939559280872345
2020-08-20 22:25:47.554 +0200,12520.26188725,0.107940673828125,0.4644775390625,-0.6175384521484375,12520.24686025,1.003435186780742,0.3197752436203826,-0.1388986228400351,1.725109577178955,0.8354277014732361,-0.03577857464551926,-0.1969058215618134,0.1213370263576508,-0.01495212316513062,XArbitraryZVertical,-0.1364485886808519,0.1063018289638298,0.4639670207293679,0.8688016380564439,0.3113256990909576,0.1384524255990982,-0.9401634335517883
2020-08-20 22:25:47.574 +0200,12520.28192525,0.10601806640625,0.0926361083984375,-0.5587158203125,12520.26689725,0.987010470916415,0.3387937188661517,-0.09986171858771087,2.573755502700806,1.277753472328186,-0.2569422721862793,-0.2098398506641388,0.3768389821052551,0.2922788858413696,XArbitraryZVertical,-0.1230887858409242,0.1249817609317689,0.4589431299346773,0.870976444930627,0.3306938409805298,0.09969582408666611,-0.9384574294090271
2020-08-20 22:25:47.594 +0200,12520.30196225,0.2720947265625,-0.0851593017578125,-0.9484405517578125,12520.28693425,0.9595759263868618,0.3707321536558853,-0.04172647294464659,4.079074859619141,2.154655694961548,-0.3088426887989044,-0.2470782995223999,0.1126349121332169,0.3938335180282593,XArbitraryZVertical,-0.103244900622688,0.1539966378986335,0.4501739361337104,0.8734809654635043,0.3619825839996338,0.04171436652541161,-0.931251049041748
2020-08-20 22:25:47.614 +0200,12520.32199925,0.753875732421875,-0.2488861083984375,-1.311920166015625,12520.30697125,0.914748563108014,0.4202664999017268,0.04154607568053058,4.877118587493896,2.632405042648315,-0.6331325769424438,-0.1690973043441772,-0.04713569581508636,0.02237367630004883,XArbitraryZVertical,-0.07386567033847841,0.1960807285171619,0.4356743300561094,0.875376576918834,0.4076516926288605,-0.04153412580490112,-0.9121924042701721
2020-08-20 22:25:47.634 +0200,12520.34203625,0.83013916015625,-0.57318115234375,-1.812408447265625,12520.32700825,0.8643662428943689,0.4693491742489372,0.1137512441115487,3.761167526245117,1.720508217811584,-0.667722761631012,0.2649324238300323,-0.08945819735527039,-0.3937734961509705,XArbitraryZVertical,-0.04703379577175777,0.2339622103559054,0.4187173158827071,0.8761993845263002,0.4493828117847443,-0.113506093621254,-0.8860990405082703
2020-08-20 22:25:47.654 +0200,12520.36207425,0.5537261962890625,-0.26312255859375,-0.624755859375,12520.34704625,0.8259476703964113,0.4964084946899326,0.1613395099905695,1.831754922866821,0.6309393048286438,-0.8583279848098755,0.3785134255886078,-0.405872642993927,-0.8066874742507935,XArbitraryZVertical,-0.02672673885165617,0.2556286885249308,0.405902799198188,0.8770306137780297,0.4700852930545807,-0.1606404632329941,-0.867879331111908
2020-08-20 22:25:47.674 +0200,12520.38211125,0.4260101318359375,-0.0474700927734375,-0.793182373046875,12520.36708325,0.8090371788006564,0.5090208902966253,0.1771159701544835,0.918571949005127,0.6635590195655823,-0.1042056083679199,0.1321855485439301,-0.1596522629261017,0.1507085561752319,XArbitraryZVertical,-0.02001783858346208,0.2642321441304146,0.3998753338450694,0.8774282825609032,0.4796988070011139,-0.1761914044618607,-0.8595613241195679
2020-08-20 22:25:47.694 +0200,12520.40214825,0.650909423828125,-0.24627685546875,-0.766937255859375,12520.38712025,0.7903721651554844,0.5273385434846598,0.1931818889320908,1.465575218200684,0.8306800723075867,-0.4398927092552185,-0.08209311962127686,0.1603939235210419,0.04567849636077881,XArbitraryZVertical,-0.01393606355764857,0.2752605318005422,0.3931402090238209,0.8771990686731271,0.4938742220401764,-0.1919825673103333,-0.8480748534202576
2020-08-20 22:25:47.715 +0200,12520.42218525,0.4771728515625,-0.2936248779296875,-0.694244384765625,12520.40715725,0.7681963967194694,0.5464380637633719,0.2163593135326416,1.211626648902893,0.5313208103179932,-0.1911260783672333,0.1517159342765808,-0.01816889643669128,0.06010895967483521,XArbitraryZVertical,-0.004132627649878989,0.2876668398640805,0.3857251361224853,0.876611023523975,0.5075319409370422,-0.21467524766922,-0.8344614505767822
2020-08-20 22:25:47.734 +0200,12520.44222325,0.4196014404296875,-0.1326751708984375,-0.895751953125,12520.42719525,0.7599950969140385,0.5555735240495119,0.2263268465308295,0.2366469204425812,0.3282230794429779,-0.001793823903426528,0.008461087942123413,-0.08464571833610535,0.1493179202079773,XArbitraryZVertical,-0.0002188130547301488,0.2933163175921944,0.3831748460914537,0.8758667524916213,0.5139797329902649,-0.2243995666503906,-0.8279309868812561
2020-08-20 22:25:47.755 +0200,12520.46226025,0.5712127685546875,-0.19903564453125,-0.911163330078125,12520.44723225,0.7563186980748593,0.5638681022370299,0.2304634725927474,0.4018457531929016,0.3501754999160767,-0.1010196655988693,-0.09826022386550903,0.07683509588241577,-0.0426030158996582,XArbitraryZVertical,0.0005963781059469472,0.2976168567130182,0.3820099405599582,0.8749241684606387,0.52032870054245,-0.2284287661314011,-0.8228477239608765
2020-08-20 22:25:47.775 +0200,12520.48229725,0.5468597412109375,-0.28192138671875,-0.7195587158203125,12520.46726925,0.7492007882363254,0.5704890231341728,0.236859334492759,0.3995012044906616,0.1392179876565933,-0.09217303246259689,0.04768437147140503,0.03893259167671204,-0.1046755909919739,XArbitraryZVertical,0.003276074469724596,0.301529669839739,0.3795979965594401,0.8746282098808158,0.5249655246734619,-0.2346508055925369,-0.8181382417678833
2020-08-20 22:25:47.795 +0200,12520.50233425,0.478240966796875,-0.2608795166015625,-0.706756591796875,12520.48730625,0.7457903433173158,0.5729677910785855,0.2412338418882295,0.1736443936824799,0.05998841673135757,0.0200770441442728,0.05047667026519775,-0.03998842835426331,0.08581459522247314,XArbitraryZVertical,0.005288450032638026,0.3032984971199181,0.3785907702166539,0.8744433011041995,0.5264303684234619,-0.2389009296894073,-0.8159641027450562
2020-08-20 22:25:47.815 +0200,12520.52237125,0.5413970947265625,-0.135589599609375,-0.834381103515625,12520.50734325,0.7457914582826063,0.5751336437428408,0.2427410120677493,-0.006032824050635099,0.1659758388996124,0.06899197399616241,-0.03504347801208496,-0.03602269291877747,0.1274901628494263,XArbitraryZVertical,0.005555747583430611,0.3044825984216697,0.3787625745955262,0.8739556032777246,0.5279999375343323,-0.2403641790151596,-0.8145189881324768
2020-08-20 22:25:47.835 +0200,12520.54240925,0.5549468994140625,-0.1700439453125,-0.9214019775390625,12520.52738125,0.7461274136346184,0.578183203984484,0.2442552250066582,0.0823562890291214,0.1125506982207298,0.04211382567882538,0.02010375261306763,0.08017753064632416,0.002888798713684082,XArbitraryZVertical,0.005607157642354637,0.3060538004409614,0.3790847192139403,0.8732664729140545,0.5302818417549133,-0.2418337166309357,-0.812599241733551
2020-08-20 22:25:47.865 +0200,12520.56244625,0.5178680419921875,-0.263275146484375,-0.8253173828125,12520.54741825,0.7447137211078561,0.5801564032612537,0.2475427463568825,0.2061590552330017,0.05278696492314339,0.01910616829991341,0.04274982213973999,0.07824626564979553,-0.1086227297782898,XArbitraryZVertical,0.006927156447777719,0.3074264229647076,0.3788372601630128,0.8728822341636697,0.5314456224441528,-0.2450223565101624,-0.810882031917572
2020-08-20 22:25:47.878 +0200,12520.58248325,0.530517578125,-0.209381103515625,-0.7996826171875,12520.56745525,0.743136174082123,0.5816482322774558,0.2505546824312659,0.1210533529520035,0.07335082441568375,0.01401443313807249,0.006725907325744629,-0.01398825645446777,-0.01866865158081055,XArbitraryZVertical,0.00824091660008964,0.308541886926596,0.3784880580634128,0.8726286974388275,0.5322468280792236,-0.2479413598775864,-0.8094679713249207
2020-08-20 22:25:47.895 +0200,12520.60252025,0.55841064453125,-0.1930389404296875,-0.801116943359375,12520.58749225,0.7414591134925892,0.5858277232040895,0.254671658660042,0.1730560958385468,0.1217985153198242,-0.00576752657070756,0.003332793712615967,0.02777627110481262,0.01517367362976074,XArbitraryZVertical,0.009559620561263214,0.3109969617581027,0.3782327662388068,0.8718541074838306,0.5350564122200012,-0.2519276738166809,-0.8063790202140808
2020-08-20 22:25:47.915 +0200,12520.62255825,0.5373687744140625,-0.256011962890625,-0.81427001953125,12520.60753025,0.7375811837039861,0.5900436245314471,0.2579471815321471,0.343607485294342,0.08863896876573563,-0.03557118773460388,0.03749418258666992,0.05902875959873199,0.01011574268341064,XArbitraryZVertical,0.01084044431101046,0.3133200202666762,0.3769305092604995,0.8715712322812003,0.5379892587661743,-0.2550961971282959,-0.8034260869026184
2020-08-20 22:25:47.935 +0200,12520.64259525,0.5476226806640625,-0.228240966796875,-0.8436126708984375,12520.62756725,0.7341055818508038,0.5918932013734381,0.2573944248753977,0.1639891117811203,0.08154084533452988,-0.04018675535917282,0.01795876026153564,-0.007895290851593018,-0.004392921924591064,XArbitraryZVertical,0.01078930332156706,0.314022782915541,0.375363272363373,0.8719952089067323,0.5395529270172119,-0.2545616924762726,-0.8025465607643127
2020-08-20 22:25:47.955 +0200,12520.66263225,0.5445404052734375,-0.1867523193359375,-0.800323486328125,12520.64760425,0.7325675917778423,0.5919968385729841,0.2576054937869499,0.1048177927732468,0.05092914402484894,-0.04360971227288246,0.02184414863586426,0.008858159184455872,-0.03615224361419678,XArbitraryZVertical,0.01110625716734272,0.3140917476750363,0.3747170247132505,0.8722443415106176,0.5396060943603516,-0.2547657787799835,-0.8024460673332214
2020-08-20 22:25:47.975 +0200,12520.68266925,0.54461669921875,-0.26092529296875,-0.7780609130859375,12520.66764125,0.7297324293487923,0.5926376120606429,0.2595071917718746,0.2304182052612305,0.01451627444475889,-0.06937868893146515,0.02423399686813354,0.06633366644382477,0.01158392429351807,XArbitraryZVertical,0.01228706671032144,0.3146436480298246,0.3736992238877588,0.8724662332718326,0.5398485660552979,-0.2566042840480804,-0.80169677734375
2020-08-20 22:25:47.995 +0200,12520.70270625,0.517059326171875,-0.2402801513671875,-0.792724609375,12520.68767925,0.7262593985778365,0.5950846843611305,0.2599213201062248,0.1427321434020996,0.004567503929138184,-0.02846538089215755,0.01804405450820923,-0.00597149133682251,0.02042466402053833,XArbitraryZVertical,0.01256431945846501,0.3157522823206108,0.3722462154446616,0.8726828175790582,0.541749119758606,-0.2570045292377472,-0.800285279750824
2020-08-20 22:25:48.015 +0200,12520.72274425,0.5601654052734375,-0.1988525390625,-0.8461456298828125,12520.70771625,0.7248892248686828,0.5975727998098377,0.2601748995709754,-0.005520033184438944,0.03255679458379745,-0.01694188453257084,-0.006781637668609619,0.003970444202423096,0.02704465389251709,XArbitraryZVertical,0.01243234836836283,0.3168673942285019,0.3716928854975694,0.8725164525339193,0.5437020063400269,-0.2572495639324188,-0.7988809943199158
2020-08-20 22:25:48.035 +0200,12520.74278125,0.5301971435546875,-0.230804443359375,-0.804107666015625,12520.72775325,0.725366648898399,0.5965068297622385,0.2588150370837956,-0.02533688023686409,-0.02405907958745956,0.0007013294380158186,0.02664494514465332,0.05024358630180359,-0.0434037446975708,XArbitraryZVertical,0.01194322105076059,0.3162008505304328,0.3717391237647795,0.8727453455389833,0.5430461168289185,-0.2559352219104767,-0.7997487783432007
2020-08-20 22:25:48.055 +0200,12520.76281825,0.5290985107421875,-0.261962890625,-0.838958740234375,12520.74779025,0.7252940406129882,0.5967695767354646,0.2564944252816815,0.006777912378311157,-0.01343093812465668,0.00405436335131526,0.0100519061088562,0.01715537905693054,-0.004814386367797852,XArbitraryZVertical,0.01086200841933944,0.3159658752657752,0.3714432783813501,0.8729704975287863,0.5435885190963745,-0.2536912262439728,-0.8000951409339905
2020-08-20 22:25:48.075 +0200,12520.78285525,0.5547027587890625,-0.2364044189453125,-0.8228759765625,12520.76782725,0.7250922239015709,0.5982906877318923,0.2557964236247796,-0.0207289457321167,0.02932770922780037,-0.004523107782006264,-0.003078877925872803,-0.01326867938041687,-0.02077925205230713,XArbitraryZVertical,0.01029752761446648,0.3165236266480337,0.3712830889923937,0.8728434365554254,0.5449045300483704,-0.2530159950256348,-0.7994135022163391
2020-08-20 22:25:48.095 +0200,12520.80289325,0.53106689453125,-0.2337646484375,-0.81463623046875,12520.78786525,0.725289481375837,0.6001990925009626,0.2564261301276331,-0.03019515424966812,-0.01425518654286861,0.027479263022542,0.02569806575775146,0.006059214472770691,-0.02518093585968018,XArbitraryZVertical,0.0101950828540357,0.317452037303796,0.3714514759074595,0.8724357670141515,0.5463390946388245,-0.2536251544952393,-0.7982405424118042
2020-08-20 22:25:48.115 +0200,12520.82293025,0.5196380615234375,-0.25604248046875,-0.7851715087890625,12520.80790225,0.7262222085452155,0.5989149787422892,0.254007114540101,-0.06397175788879395,-0.01073049195110798,0.0151063296943903,0.002142429351806641,0.01351150870323181,-0.01209616661071777,XArbitraryZVertical,0.009198109544841494,0.3165319633890225,0.3715731974510944,0.8727292330706554,0.5456578731536865,-0.2512845098972321,-0.7994458079338074
2020-08-20 22:25:48.135 +0200,12520.84296725,0.5213775634765625,-0.236724853515625,-0.8161773681640625,12520.82793925,0.7271039588887547,0.5991282116100413,0.2518341900583992,0.02108774334192276,0.01625372096896172,0.04535892605781555,-0.003797590732574463,-0.01608395576477051,0.01866739988327026,XArbitraryZVertical,0.008042027480644568,0.3163006398699595,0.3717081950951144,0.8727669578069586,0.5461349487304688,-0.2491807043552399,-0.7997784614562988
2020-08-20 22:25:48.155 +0200,12520.86300425,0.55084228515625,-0.241729736328125,-0.858856201171875,12520.84797625,0.72779684767873,0.598469087465857,0.2539755121584976,-0.0026408894918859,0.04991687461733818,0.03226964175701141,-0.01475882530212402,0.006386488676071167,-0.003583908081054688,XArbitraryZVertical,0.009017678197789699,0.3163398187521941,0.372254562428898,0.8725103729257829,0.5453057885169983,-0.2512539029121399,-0.799695611000061
2020-08-20 22:25:48.175 +0200,12520.88304125,0.533599853515625,-0.2636566162109375,-0.792572021484375,12520.86801425,0.7286364622421775,0.5982845260916313,0.2532160592718036,-0.07502054423093796,-0.01563630253076553,0.0154897877946496,0.02367144823074341,0.003537982702255249,-0.05458807945251465,XArbitraryZVertical,0.008577895913067429,0.3161480394784142,0.3725326203576222,0.8724656502764403,0.5452654957771301,-0.2505187690258026,-0.7999536991119385
2020-08-20 22:25:48.195 +0200,12520.90307925,0.528564453125,-0.249267578125,-0.794891357421875,12520.88805125,0.7299505158909638,0.5979158941074212,0.2502209122579014,-0.03832897543907166,0.005015980452299118,0.03394667059183121,0.009054481983184814,-0.02161096036434174,0.01178610324859619,XArbitraryZVertical,0.007092872824531134,0.315537789801159,0.3727595905921968,0.8726029260339782,0.5453905463218689,-0.2476180046796799,-0.800771176815033
2020-08-20 22:25:48.215 +0200,12520.92311625,0.5377960205078125,-0.2504730224609375,-0.811065673828125,12520.90808825,0.7302397153581635,0.5994488249398388,0.2517155621717544,-0.0058896797709167,0.02771303430199623,0.008385615423321724,-0.006243884563446045,-0.004720747470855713,0.01072418689727783,XArbitraryZVertical,0.007432993364034439,0.3164346477812983,0.3730636418483156,0.872145245677717,0.5464079976081848,-0.2490658313035965,-0.7996277213096619
2020-08-20 22:25:48.236 +0200,12520.94315325,0.5218505859375,-0.2427825927734375,-0.8103790283203125,12520.92812525,0.7309588455186056,0.5976340337414721,0.2526784590662272,0.004513293504714966,0.005112119950354099,0.02871789783239365,0.01304000616073608,-0.01236246526241302,-0.005476534366607666,XArbitraryZVertical,0.008090704325906627,0.3157923876020735,0.373481042139493,0.8721935906592254,0.5448207259178162,-0.2499982565641403,-0.8004193902015686
2020-08-20 22:25:48.256 +0200,12520.96319025,0.5294647216796875,-0.2476959228515625,-0.8190155029296875,12520.94816225,0.7317135719310401,0.5964720423430498,0.2507751488557623,-0.01484802085906267,0.00701175257563591,0.02226669527590275,-0.00564950704574585,-0.002643078565597534,-0.003522515296936035,XArbitraryZVertical,0.007333421909698432,0.3149986508891279,0.3735872664605528,0.8724417138407455,0.544156551361084,-0.2481549382209778,-0.8014441132545471
2020-08-20 22:25:48.276 +0200,12520.98322825,0.5281524658203125,-0.2350921630859375,-0.821380615234375,12520.96820025,0.7318068784288978,0.5982354082423318,0.2526298669955739,-0.02196318842470646,0.0121982591226697,0.02190884202718735,0.0002838969230651855,-0.004916027188301086,-0.01207095384597778,XArbitraryZVertical,0.007822567572885597,0.316050576641914,0.373847612023589,0.8719454788958336,0.5453088283538818,-0.2499512135982513,-0.8001016974449158
2020-08-20 22:25:48.296 +0200,12521.00326525,0.54345703125,-0.2595977783203125,-0.8452606201171875,12520.98823725,0.7325297353418767,0.5984838252173471,0.2542931952550363,-0.03109263814985752,0.01033085118979216,0.01793034560978413,0.0007462501525878906,0.00456315279006958,-0.01250553131103516,XArbitraryZVertical,0.008408986795290094,0.3164150827585179,0.3743548129865302,0.8715900480877243,0.5452725887298584,-0.2515614032745361,-0.79962158203125
2020-08-20 22:25:48.316 +0200,12521.023303,0.55389404296875,-0.2591400146484375,-0.833648681640625,12521.00827425,0.7322262894418516,0.6003363091620674,0.2555976371122199,-0.0396171510219574,-0.006419633515179157,-0.01810629479587078,0.01058554649353027,-0.00912196934223175,-0.04246532917022705,XArbitraryZVertical,0.008696190756739927,0.317419370986297,0.3743804941494139,0.8712109444984872,0.5465670824050903,-0.252823680639267,-0.7983386516571045
2020-08-20 22:25:48.336 +0200,12521.04334,0.580841064453125,-0.27508544921875,-0.8389129638671875,12521.028312,0.7333584394840428,0.5976674191216977,0.2534327572516771,-0.1342287361621857,-0.02606257796287537,-0.02483127079904079,0.02462255954742432,-0.01997123658657074,-0.0246577262878418,XArbitraryZVertical,0.008044354317426068,0.3159315446049623,0.3746138930243856,0.8716575577547163,0.544741153717041,-0.2507285475730896,-0.8002451062202454
2020-08-20 22:25:48.365 +0200,12521.063377,0.591033935546875,-0.31573486328125,-0.7937469482421875,12521.048349,0.7357250266567334,0.5940928469503757,0.2497019922682221,-0.3918067514896393,-0.08367980271577835,-0.06021185964345932,0.05155175924301147,-0.0278509259223938,-0.03498554229736328,XArbitraryZVertical,0.006666052457063859,0.3138107445672479,0.3752057656216689,0.8721806199010941,0.5423970222473145,-0.2471152096986771,-0.802956759929657
2020-08-20 22:25:48.378 +0200,12521.083415,0.5988311767578125,-0.2639617919921875,-0.802032470703125,12521.068387,0.7422909539589996,0.5892486052236507,0.2406734669177451,-0.8931729197502136,-0.2037787735462189,-0.003415955463424325,0.0678943395614624,-0.08597248792648315,0.01641964912414551,XArbitraryZVertical,0.002497954076538419,0.3103149228855392,0.3770314614324518,0.8726659038797439,0.5397188663482666,-0.238356739282608,-0.8073968291282654
2020-08-20 22:25:48.396 +0200,12521.103452,0.61212158203125,-0.237945556640625,-0.841705322265625,12521.088424,0.7576850429134729,0.5786818633326167,0.2183969627623789,-1.798102855682373,-0.4384003281593323,0.02876553125679493,0.07771426439285278,-0.05928729474544525,0.01888537406921387,XArbitraryZVertical,-0.007850799858233167,0.3021414228865983,0.3812501777586807,0.873668875218386,0.5339293479919434,-0.2166649401187897,-0.8172978758811951
2020-08-20 22:25:48.416 +0200,12521.123489,0.6175079345703125,-0.2519378662109375,-1.014846801757812,12521.108461,0.7817337500234834,0.5619677663044759,0.1834158687612072,-2.363866806030273,-0.7691769003868103,0.04526180028915405,0.1001722812652588,-0.06378993391990662,0.02915918827056885,XArbitraryZVertical,-0.02385315831152306,0.2888319535506994,0.387990345578991,0.8749117212281747,0.5239145159721375,-0.1823891997337341,-0.832014262676239
2020-08-20 22:25:48.436 +0200,12521.143526,0.603851318359375,-0.255157470703125,-1.162384033203125,12521.128498,0.8111482997832864,0.5384339500743218,0.1372470497897256,-3.140872240066528,-1.144283652305603,0.0508258268237114,0.1242702603340149,-0.1078466325998306,-0.1411168575286865,XArbitraryZVertical,-0.04395566996122276,0.2699037971154916,0.3961978441670995,0.8764970616371469,0.5079700350761414,-0.1368165761232376,-0.8504396677017212
2020-08-20 22:25:48.456 +0200,12521.163564,0.5558013916015625,-0.0132598876953125,-0.9822540283203125,12521.148536,0.8476276142636473,0.5068961384300112,0.07545123704530328,-3.956031322479248,-1.61097526550293,-0.003057303372770548,0.138238400220871,-0.2001239359378815,-0.2942067980766296,XArbitraryZVertical,-0.06976083384049968,0.2434118568810703,0.4064394387942469,0.8778900860638901,0.484084814786911,-0.07537966966629028,-0.8717681765556335
2020-08-20 22:25:48.476 +0200,12521.183601,0.4737701416015625,0.1064910888671875,-0.872711181640625,12521.168573,0.8859612240862431,0.4700699830047331,0.002121648990934144,-4.195659637451172,-1.866399526596069,-0.06821777671575546,0.126898467540741,-0.04115757346153259,-0.09863609075546265,XArbitraryZVertical,-0.09888694290555763,0.2108413687759421,0.4170724630738099,0.8785316113635337,0.4529476463794708,-0.002121647354215384,-0.8915345668792725
2020-08-20 22:25:48.496 +0200,12521.203638,0.404541015625,0.05999755859375,-0.831024169921875,12521.18861,0.9206269288942536,0.4349300804251699,-0.07270253825136123,-3.988760232925415,-1.742854952812195,-0.06541183590888977,0.07829785346984863,0.03232346475124359,0.01816052198410034,XArbitraryZVertical,-0.1275748671387132,0.1774056485989197,0.4264546370002187,0.877717674113629,0.4202339351177216,0.07263851165771484,-0.9045037627220154
2020-08-20 22:25:48.516 +0200,12521.223675,0.34222412109375,0.021881103515625,-0.7432098388671875,12521.208647,0.9513156978268237,0.4046430784368266,-0.1430640058611965,-3.710392713546753,-1.58010196685791,-0.03745937347412109,0.03599309921264648,-0.07198867201805115,0.07720488309860229,XArbitraryZVertical,-0.1540228164726472,0.1461200772471937,0.4346683961584165,0.8752081279598807,0.3896686732769012,0.1425764858722687,-0.9098517894744873
2020-08-20 22:25:48.536 +0200,12521.243712,0.199554443359375,0.312042236328125,-0.6424102783203125,12521.228684,0.9807092688858696,0.3821222845288959,-0.2102470023763628,-3.501713275909424,-1.186163783073425,0.1741888523101807,-0.005243480205535889,-0.1824794113636017,0.1630671620368958,XArbitraryZVertical,-0.1798192232801301,0.1180828476693444,0.4422384609144828,0.870716204196371,0.3646792471408844,0.2087014764547348,-0.9074429869651794
2020-08-20 22:25:48.556 +0200,12521.26375,0.13494873046875,0.594970703125,-0.642059326171875,12521.248722,1.004514539421857,0.3658477017999111,-0.2670258400300952,-2.266966342926025,-1.056297659873962,-0.07346123456954956,-0.117038369178772,0.01721036434173584,0.2151845693588257,XArbitraryZVertical,-0.201520706665054,0.09500693083856487,0.447936574798748,0.8658614207222221,0.3450626730918884,0.2638638615608215,-0.9007261991500854
2020-08-20 22:25:48.576 +0200,12521.283787,0.1673736572265625,0.4708404541015625,-0.8094940185546875,12521.268759,1.013495275902718,0.3525820082282898,-0.2924075708974875,-0.6671621799468994,-0.413419097661972,-0.06079159304499626,-0.1789107918739319,0.2867453396320343,0.2761597037315369,XArbitraryZVertical,-0.2096106934571297,0.08209341966523015,0.4503773021621037,0.8639932771839197,0.3306641280651093,0.28825843334198,-0.8986480832099915
2020-08-20 22:25:48.596 +0200,12521.303824,0.2846832275390625,0.1820831298828125,-0.8573760986328125,12521.288796,1.012455167983664,0.3456034918762941,-0.2985626335597714,0.1561888307332993,-0.213014081120491,-0.1795033663511276,-0.1659529805183411,0.2371262907981873,0.1062384843826294,XArbitraryZVertical,-0.2105815954831156,0.07766428454540394,0.4499822727290135,0.8643723943538549,0.3237777054309845,0.2941467463970184,-0.8992472887039185
