loggingTime(txt),accelerometerTimestamp_sinceReboot(s),accelerometerAccelerationX(G),accelerometerAccelerationY(G),accelerometerAccelerationZ(G),motionTimestamp_sinceReboot(s),motionYaw(rad),motionRoll(rad),motionPitch(rad),motionRotationRateX(rad/s),motionRotationRateY(rad/s),motionRotationRateZ(rad/s),motionUserAccelerationX(G),motionUserAccelerationY(G),motionUserAccelerationZ(G),motionAttitudeReferenceFrame(txt),motionQuaternionX(R),motionQuaternionY(R),motionQuaternionZ(R),motionQuaternionW(R),motionGravityX(G),motionGravityY(G),motionGravityZ(G)
2020-08-20 22:32:42.172 +0200,12923.83912541667,-0.089874267578125,0.00128173828125,-1.003387451171875,12923.81784641667,-1.596625876704992,-0.09817728847961295,0.04025045779024286,0.1537447273731232,-0.1955821067094803,-0.00845511257648468,-0.003287240862846375,0.01151610538363457,-0.0387842059135437,XArbitraryZVertical,0.02110720480587878,0.04863400101931476,0.7158612753443692,-0.6962268542751615,-0.09794025868177414,-0.04023959115147591,-0.9943784475326538
2020-08-20 22:32:42.174 +0200,12923.85916241667,-0.088134765625,-0.0271453857421875,-0.9725189208984375,12923.83788341667,-1.596886739721644,-0.09976499410324256,0.04271323543319864,0.08684265613555908,-0.1187730729579926,-0.01267785858362913,0.01782388985157013,0.06049924716353416,-0.001818180084228516,XArbitraryZVertical,0.02082294843951898,0.0500636905951518,0.7159596606991526,-0.6960329644697653,-0.09950874000787735,-0.04270024970173836,-0.9941200613975525
2020-08-20 22:32:42.175 +0200,12923.87919941667,-0.0778961181640625,-0.0314483642578125,-0.984710693359375,12923.85792041667,-1.59773580491903,-0.1004228264736022,0.04408550565206182,-0.05233507603406906,-0.05596934258937836,-0.0976787656545639,-0.00701557844877243,0.01817144453525543,0.02291738986968994,XArbitraryZVertical,0.02060137911390607,0.0507740865881282,0.7162615494045228,-0.6956773360654888,-0.1001567170023918,-0.04407122731208801,-0.9939951300621033
2020-08-20 22:32:42.175 +0200,12923.89923641667,-0.1136474609375,-0.0097808837890625,-0.9766387939453125,12923.87795741667,-1.59961324707224,-0.1021337129724136,0.04156324695988471,-0.1698040366172791,-0.16160948574543,-0.05446377024054527,0.02703617513179779,0.004332907497882843,0.01043343544006348,XArbitraryZVertical,0.02214075802723444,0.05044708134108813,0.7168708468451798,-0.6950259469013224,-0.1018681898713112,-0.04155128076672554,-0.9939297437667847
2020-08-20 22:32:42.176 +0200,12923.91927341667,-0.09527587890625,-0.0313873291015625,-0.990753173828125,12923.89799441667,-1.600832221732448,-0.1051938316186114,0.03722251877497845,-0.2753837406635284,-0.1404858231544495,-0.01175450254231691,-0.008926749229431152,0.02883455157279968,0.0172954797744751,XArbitraryZVertical,0.02477966638925803,0.04994274834222393,0.7172107475439994,-0.6946225028475874,-0.104927197098732,-0.03721392527222633,-0.9937833547592163
2020-08-20 22:32:42.177 +0200,12923.93931141667,-0.0899658203125,-0.0265045166015625,-0.9988555908203125,12923.91803141667,-1.601416737145204,-0.1068309134266719,0.02955217020800487,-0.4093729555606842,-0.08763113617897034,0.02844184264540672,0.002806849777698517,0.001681394875049591,0.006784796714782715,XArbitraryZVertical,0.02804980020111659,0.04775750601626776,0.7172965476925545,-0.6945632264479694,-0.1065812632441521,-0.02954786829650402,-0.9938648343086243
2020-08-20 22:32:42.177 +0200,12923.95934841667,-0.1023712158203125,-0.010040283203125,-0.999542236328125,12923.93806941667,-1.60155193910855,-0.1086398820925783,0.02228339175165532,-0.289766401052475,-0.05456665903329849,0.02432280778884888,0.01691184192895889,-0.007064037024974823,-0.004010140895843506,XArbitraryZVertical,0.03122981466757693,0.04578050139113593,0.717214237493,-0.6946456069889874,-0.1083993837237358,-0.02228154800832272,-0.9938576817512512
2020-08-20 22:32:42.192 +0200,12923.97938541667,-0.087615966796875,-0.0243072509765625,-0.9740142822265625,12923.95810641667,-1.601238404391403,-0.1087805562376995,0.01913752988287767,0.1338430494070053,-0.05805140361189842,0.08735420554876328,0.006952755153179169,-0.0007408447563648224,-0.002054870128631592,XArbitraryZVertical,0.03236720384345708,0.04470758004509084,0.7170552735509587,-0.6948275569658546,-0.1085462644696236,-0.01913636177778244,-0.9939072132110596
2020-08-20 22:32:42.212 +0200,12923.99942241667,-0.09747314453125,-0.0481414794921875,-0.99169921875,12923.97814341667,-1.599621295094553,-0.1091338239039781,0.0211129609913141,-0.05571369081735611,-0.02345560863614082,0.03619316220283508,0.01325476169586182,0.01266157999634743,0.02719706296920776,XArbitraryZVertical,0.0317699887936336,0.04556351316057685,0.7165179305763781,-0.6953536578507324,-0.1088930442929268,-0.02111139334738255,-0.9938292503356934
2020-08-20 22:32:42.232 +0200,12924.01945941667,-0.1143798828125,-0.0229339599609375,-1.004638671875,12923.99818041667,-1.599062833713544,-0.1102481842446667,0.02029000904175098,-0.00477594556286931,-0.06210233643651009,0.03420941159129143,0.01480200886726379,-0.03346901759505272,0.001521646976470947,XArbitraryZVertical,0.03244291802370665,0.04566551176943041,0.7162931794427346,-0.6955473658270095,-0.1100023314356804,-0.0202886164188385,-0.9937242269515991
2020-08-20 22:32:42.252 +0200,12924.03949641667,-0.1097412109375,-0.0075225830078125,-1.018585205078125,12924.01821741667,-1.598261667650942,-0.1106583961561755,0.02014626199991108,-0.02781402133405209,-0.02839470654726028,0.04021921753883362,-0.006455130875110626,-0.005013208836317062,-0.004943311214447021,XArbitraryZVertical,0.03262154667995995,0.04576981656911745,0.7160055813574039,-0.6958282735699931,-0.1104102805256844,-0.02014489844441414,-0.9936819076538086
2020-08-20 22:32:42.272 +0200,12924.05953341667,-0.1082611083984375,-0.010498046875,-1.01220703125,12924.05829141667,-1.596674518782101,-0.110803392657395,0.01925632179567142,0.01910914666950703,-0.01162478141486645,0.03589827567338943,-0.004604741930961609,0.01757792010903358,-0.01969718933105469,XArbitraryZVertical,0.03294731244185472,0.04552816524698093,0.715436738847491,-0.6964135915939459,-0.1105563044548035,-0.019255131483078,-0.9936833381652832
2020-08-20 22:32:42.292 +0200,12924.07957041667,-0.1094818115234375,-0.023193359375,-1.006423950195312,12924.05829141667,-1.596674518782101,-0.110803392657395,0.01925632179567142,0.01910914666950703,-0.01162478141486645,0.03589827567338943,-0.004604741930961609,0.01757792010903358,-0.01969718933105469,XArbitraryZVertical,0.03294731244185472,0.04552816524698093,0.715436738847491,-0.6964135915939459,-0.1105563044548035,-0.019255131483078,-0.9936833381652832
2020-08-20 22:32:42.312 +0200,12924.09960841667,-0.121917724609375,-0.0176544189453125,-1.005996704101562,12924.07832841667,-1.595724151887514,-0.1105060847521845,0.02029674226869869,0.008154233917593956,-0.002277619205415249,0.04354211688041687,-0.001215651631355286,-0.003478974103927612,-0.01249831914901733,XArbitraryZVertical,0.0324565062279117,0.04581185551747389,0.715127002860164,-0.6967361307322817,-0.1102586016058922,-0.02029534801840782,-0.9936956763267517
2020-08-20 22:32:42.332 +0200,12924.11964541667,-0.1103057861328125,-0.016326904296875,-1.01055908203125,12924.09836641667,-1.594953313096617,-0.1106350808820224,0.02045229662758109,-0.02543954737484455,0.01817998662590981,0.02881715819239616,-0.01081171631813049,0.001478139311075211,-0.01269823312759399,XArbitraryZVertical,0.03243068040913306,0.04592485575857861,0.7148587578165155,-0.6970051091593645,-0.1103864312171936,-0.02045087143778801,-0.9936783313751221
2020-08-20 22:32:42.352 +0200,12924.13968241667,-0.1109466552734375,-0.0079498291015625,-1.005905151367188,12924.11840341667,-1.593993830197912,-0.1101932269488515,0.01983129169936244,-0.008861102163791656,0.03796327486634254,0.05952195823192596,-0.005070999264717102,-0.001091469079256058,-0.01419544219970703,XArbitraryZVertical,0.03246756874391682,0.04556472357581673,0.714521719219897,-0.6973724727910713,-0.1099487319588661,-0.01982999220490456,-0.9937394261360168
2020-08-20 22:32:42.372 +0200,12924.15971941667,-0.1069488525390625,-0.0230255126953125,-0.9964752197265625,12924.13844041667,-1.592971168072331,-0.1096853672676332,0.01919413704400282,0.01192553713917732,0.0213981494307518,0.04549653455615044,-0.002949133515357971,0.01152101904153824,-0.01370233297348022,XArbitraryZVertical,0.03248545032234823,0.04517686185638456,0.7141632618661485,-0.6977639389415141,-0.1094454005360603,-0.01919295825064182,-0.9938074946403503
2020-08-20 22:32:42.392 +0200,12924.17975641667,-0.10137939453125,-0.0166015625,-0.9879150390625,12924.15847741667,-1.592003972362162,-0.1090676679969124,0.01947596407087723,0.009366371668875217,0.02834154292941093,0.04548736661672592,-0.004032470285892487,-0.002534117549657822,-0.002716958522796631,XArbitraryZVertical,0.03214465113542371,0.04507743889814265,0.7138401347579368,-0.6981167267949736,-0.108830913901329,-0.01947473362088203,-0.9938694834709167
2020-08-20 22:32:42.412 +0200,12924.19979341667,-0.103057861328125,-0.014923095703125,-0.9809112548828125,12924.17851441667,-1.591050543142402,-0.1089881784897008,0.01977218601264827,0.01632334850728512,0.01815415173768997,0.04575885832309723,0.003504559397697449,-0.0009655915200710297,0.003984391689300537,XArbitraryZVertical,0.03199123843421359,0.04517056558217587,0.7135131369445477,-0.6984519563664285,-0.1087512746453285,-0.01977089792490005,-0.993872344493866
2020-08-20 22:32:42.432 +0200,12924.21983041667,-0.1102142333984375,-0.0188140869140625,-0.979461669921875,12924.19855141667,-1.590057172150144,-0.1092418668031222,0.0202054920414669,0.02788412943482399,0.0005533210933208466,0.04693087562918663,0.003732547163963318,0.00339069589972496,0.01167029142379761,XArbitraryZVertical,0.03190769408159509,0.04542943251627855,0.7131688161249721,-0.698790578247641,-0.1090024635195732,-0.02020411752164364,-0.9938361048698425
2020-08-20 22:32:42.452 +0200,12924.23986741667,-0.111724853515625,-0.0138397216796875,-0.9821319580078125,12924.21858841667,-1.58908996387888,-0.1095083007011715,0.02007552013756432,0.01651868969202042,-0.01267966069281101,0.04421079903841019,-0.002572059631347656,0.001113370060920715,0.01472693681716919,XArbitraryZVertical,0.03202616092973382,0.04549171982458058,0.7128245164830336,-0.6991324187100482,-0.1092675402760506,-0.02007417194545269,-0.9938096404075623
2020-08-20 22:32:42.472 +0200,12924.25990441667,-0.1044464111328125,-0.0095062255859375,-0.9879150390625,12924.23862541667,-1.588133273504764,-0.1100645875226225,0.0201396041999207,0.004952981136739254,-0.005393251311033964,0.04852287471294403,-0.005042821168899536,0.005951419472694397,0.01239311695098877,XArbitraryZVertical,0.03218013778641528,0.04572439174643439,0.712482083745354,-0.6994590473750242,-0.1098202243447304,-0.02013824321329594,-0.9937474131584167
2020-08-20 22:32:42.492 +0200,12924.27994241667,-0.1089630126953125,-0.0029449462890625,-0.9982147216796875,12924.25866241667,-1.587107806932319,-0.1100064773829407,0.02030958816316865,-0.002270310185849667,-0.01508822292089462,0.05463718622922897,0.001630015671253204,0.00736720860004425,0.006124615669250488,XArbitraryZVertical,0.03207644954267855,0.04578101044702251,0.7121269535657241,-0.6998217019663995,-0.1097620949149132,-0.02030819281935692,-0.9937503933906555
2020-08-20 22:32:42.512 +0200,12924.29997941667,-0.12542724609375,-0.0154571533203125,-0.998992919921875,12924.27870041667,-1.586043098265666,-0.1103334456041764,0.01993531701368727,0.004344182554632425,-0.042042076587677,0.05071420222520828,0.0005721822381019592,0.01858627423644066,-0.001868069171905518,XArbitraryZVertical,0.0322996191589294,0.04577950476559692,0.7117431483062027,-0.7002017713516812,-0.1100878491997719,-0.01993399672210217,-0.9937219619750977
2020-08-20 22:32:42.532 +0200,12924.32001641667,-0.1278839111328125,-0.01495361328125,-1.00042724609375,12924.31877441667,-1.583946008262677,-0.1121699815305945,0.0190638090597448,-0.01157126668840647,-0.01010358426719904,0.05308334901928902,-0.01888382434844971,-0.000323902815580368,-0.005253434181213379,XArbitraryZVertical,0.03321024132587605,0.04614751042945719,0.7109645115251271,-0.7009258018712876,-0.1119145676493645,-0.01906265504658222,-0.9935349822044373
2020-08-20 22:32:42.557 +0200,12924.34005341667,-0.1203460693359375,-0.0133819580078125,-0.9996490478515625,12924.31877441667,-1.583946008262677,-0.1121699815305945,0.0190638090597448,-0.01157126668840647,-0.01010358426719904,0.05308334901928902,-0.01888382434844971,-0.000323902815580368,-0.005253434181213379,XArbitraryZVertical,0.03321024132587605,0.04614751042945719,0.7109645115251271,-0.7009258018712876,-0.1119145676493645,-0.01906265504658222,-0.9935349822044373
2020-08-20 22:32:42.572 +0200,12924.36009041667,-0.1176605224609375,-0.0310211181640625,-0.98907470703125,12924.33881141667,-1.582945859296685,-0.1122556301642755,0.01835366193927992,-0.004663560073822737,-0.001100768335163593,0.04523139819502831,-0.01318473368883133,0.00800647959113121,-0.006516396999359131,XArbitraryZVertical,0.03346686789108886,0.04594208877183653,0.7106008459161319,-0.7012957249429858,-0.1120011508464813,-0.01835263147950172,-0.9935385584831238
2020-08-20 22:32:42.593 +0200,12924.38012741667,-0.114013671875,-0.028411865234375,-0.9837188720703125,12924.35884841667,-1.582121971387295,-0.1121583443917065,0.01739263293770246,-0.03317030146718025,-0.002757520880550146,0.03511161729693413,-0.009599074721336365,-0.01172282546758652,0.004435956478118896,XArbitraryZVertical,0.03375085972706402,0.04558077027316514,0.7102976306084687,-0.7016127970361014,-0.1119064167141914,-0.01739175617694855,-0.9935665726661682
2020-08-20 22:32:42.613 +0200,12924.40016441667,-0.11187744140625,-0.0219879150390625,-0.9776153564453125,12924.37888541667,-1.581623907299844,-0.1125513456582315,0.01632865666572188,-0.0380602665245533,-0.003117846325039864,0.02049900218844414,-0.005968883633613586,-0.01408051326870918,0.00978165864944458,XArbitraryZVertical,0.03425275216419292,0.0453496614500262,0.710098381474793,-0.7018050854875413,-0.1122988909482956,-0.01632793061435223,-0.9935402870178223
2020-08-20 22:32:42.633 +0200,12924.42020141667,-0.105926513671875,-0.017852783203125,-0.9746246337890625,12924.39892241667,-1.581467332729352,-0.1132323122960125,0.01573122812703694,-0.02460424602031708,-0.01062290091067553,-0.003228126559406519,-0.003298535943031311,-0.005137491971254349,0.01597267389297485,XArbitraryZVertical,0.03470080080888353,0.04537940720241045,0.7100215461332772,-0.7018589383668679,-0.1129765212535858,-0.01573057845234871,-0.9934731125831604
2020-08-20 22:32:42.653 +0200,12924.4402395,-0.1191558837890625,-0.014984130859375,-0.9708099365234375,12924.41895941667,-1.581771548408587,-0.114155944737662,0.01525670233900497,-0.008537127636373043,-0.04564134031534195,-0.02810604684054852,0.003892682492733002,-0.004971340298652649,0.01520687341690063,XArbitraryZVertical,0.03520229068872767,0.04552986842390618,0.7101039790327217,-0.7017408530644897,-0.113894909620285,-0.01525611057877541,-0.9933756589889526
2020-08-20 22:32:42.673 +0200,12924.4602765,-0.11895751953125,-0.003753662109375,-0.9808807373046875,12924.4389975,-1.582597376679896,-0.115129892177262,0.01517275398131313,-0.02988981828093529,-0.003055795095860958,0.04920807108283043,-0.01848576962947845,-0.01864819601178169,0.01313185691833496,XArbitraryZVertical,0.03559649459157534,0.045827118545212,0.7103749704950226,-0.701427271327019,-0.1148625016212463,-0.01517217140644789,-0.9932655096054077
2020-08-20 22:32:42.693 +0200,12924.4803135,-0.13238525390625,-0.0231475830078125,-0.98736572265625,12924.4590345,-1.583275943536083,-0.1158532004949622,0.01513422908289738,-0.035136379301548,-0.05780985578894615,-0.06950488686561584,-0.006284870207309723,0.01071818917989731,0.003453969955444336,XArbitraryZVertical,0.03588255240626293,0.04605494642024168,0.7105993066992989,-0.7011705030019473,-0.1155809760093689,-0.01513365097343922,-0.9931827783584595
2020-08-20 22:32:42.713 +0200,12924.5003505,-0.121673583984375,0.0121612548828125,-0.991607666015625,12924.4790715,-1.584749618537184,-0.117132317931894,0.01538346981265383,-0.01502325665205717,-0.05449475347995758,-0.06108054518699646,-0.01648403704166412,-0.01079952716827393,0.006693780422210693,XArbitraryZVertical,0.0362838869990106,0.04656512908065317,0.7110970910539665,-0.700611163872593,-0.1168508306145668,-0.015382862649858,-0.993030309677124
2020-08-20 22:32:42.733 +0200,12924.5203875,-0.1291656494140625,-0.0166473388671875,-0.9969940185546875,12924.4991085,-1.586367321535024,-0.1178887286106527,0.01579123035975797,0.02755136787891388,-0.05305744335055351,-0.1063422188162804,-0.01236999034881592,0.02386652305722237,0.003687381744384766,XArbitraryZVertical,0.03644783606119248,0.04694547987373253,0.7116570573532524,-0.7000084993201897,-0.1176011860370636,-0.01579057425260544,-0.9929353594779968
2020-08-20 22:32:42.753 +0200,12924.5404245,-0.147491455078125,-0.0246734619140625,-0.9971466064453125,12924.5191455,-1.588620836638003,-0.1199501348569526,0.0173313219677747,0.05696079134941101,-0.1014707833528519,-0.1359376609325409,-0.009200930595397949,0.004956699907779694,-0.005546092987060547,XArbitraryZVertical,0.03669609198664745,0.04817309213754983,0.7124351493177388,-0.6991201388228211,-0.1196447312831879,-0.01733045466244221,-0.9926655292510986
2020-08-20 22:32:42.773 +0200,12924.5604615,-0.13238525390625,-0.0145263671875,-0.9983062744140625,12924.5391825,-1.591301879527495,-0.1217072230937662,0.01781955729249271,0.01635730266571045,-0.06931843608617783,-0.1349131762981415,-0.02849391102790833,-0.006472431123256683,-0.00342482328414917,XArbitraryZVertical,0.03721674464506042,0.04891116414623667,0.7133479823960899,-0.6981097724850777,-0.121387705206871,-0.01781861484050751,-0.9924452304840088
2020-08-20 22:32:42.793 +0200,12924.5804995,-0.1239776611328125,-0.016815185546875,-0.999114990234375,12924.5592195,-1.593865973170203,-0.1229684438507115,0.01848941889230048,0.009007244370877743,-0.02757152542471886,-0.1273008733987808,-0.01683110743761063,0.001378264278173447,-0.005691230297088623,XArbitraryZVertical,0.03749605517988469,0.04954201352028171,0.7142309671776204,-0.6971468700519646,-0.1226378083229065,-0.01848836615681648,-0.9922792911529541
2020-08-20 22:32:42.813 +0200,12924.6005365,-0.1213226318359375,-0.0281829833984375,-0.9895477294921875,12924.5792575,-1.596566030489074,-0.1238504251112826,0.01828691318407833,-0.01655883528292179,-0.02967995032668114,-0.1422828435897827,-0.005714073777198792,0.003318432718515396,-0.009271740913391113,XArbitraryZVertical,0.03794885539995611,0.04972602169712947,0.7151511420824151,-0.6961652450724497,-0.1235133931040764,-0.01828589476644993,-0.9921743869781494
2020-08-20 22:32:42.833 +0200,12924.6205735,-0.118804931640625,-0.02325439453125,-0.978363037109375,12924.5992945,-1.599362912258442,-0.1244803593619959,0.01744924512249199,-0.04819279536604881,-0.02025422267615795,-0.1299785822629929,-0.0009872019290924072,-0.009882740676403046,0.004552602767944336,XArbitraryZVertical,0.03853540287793171,0.04959225115271158,0.7160965005683854,-0.6951700430526108,-0.1241402253508568,-0.01744836010038853,-0.9921112656593323
2020-08-20 22:32:42.853 +0200,12924.6406105,-0.1096343994140625,-0.0098724365234375,-0.9505615234375,12924.6193315,-1.60213417514787,-0.1253466867200227,0.01650696890092437,-0.1073057875037193,-0.01140027772635221,-0.1369122713804245,0.002334177494049072,-0.008735150098800659,0.009544610977172852,XArbitraryZVertical,0.03924208948761315,0.04950202202255904,0.717024604671623,-0.6941796038274816,-0.1250016689300537,-0.01650621928274632,-0.9920192360877991
2020-08-20 22:32:42.873 +0200,12924.6606475,-0.094451904296875,-0.0085296630859375,-0.940948486328125,12924.6393685,-1.605538841091962,-0.1258487869583727,0.01419017726823834,-0.1661714911460876,0.01083365548402071,-0.1765180826187134,0.008710727095603943,0.0004962198436260223,0.03791451454162598,XArbitraryZVertical,0.04031015386457903,0.04877796096831743,0.718151170522519,-0.6930040340441658,-0.1255042105913162,-0.01418970059603453,-0.9919915795326233
2020-08-20 22:32:42.893 +0200,12924.6806845,-0.0934600830078125,-0.032806396484375,-0.91259765625,12924.6594055,-1.609863830929023,-0.1258207256024899,0.01148962066473754,-0.1706766337156296,0.01099770609289408,-0.2156560719013214,0.02612876892089844,0.00570906326174736,0.04762530326843262,XArbitraryZVertical,0.04133992016993676,0.04771003939430923,0.7195960713319476,-0.6915173724875686,-0.1254807263612747,-0.01148936804383993,-0.9920295476913452
2020-08-20 22:32:42.913 +0200,12924.7007215,-0.1123199462890625,-0.0749664306640625,-0.8650360107421875,12924.6794425,-1.614917756853124,-0.1256918938313463,0.009516306338068171,-0.1602258533239365,-0.008564810268580914,-0.2473779022693634,0.0284489169716835,-0.01657221466302872,0.07181549072265625,XArbitraryZVertical,0.04209487598705833,0.04684974533358694,0.7213047767228425,-0.6897481715682561,-0.125355526804924,-0.009516162797808647,-0.9920662641525269
2020-08-20 22:32:42.933 +0200,12924.7207585,-0.113037109375,-0.1349029541015625,-0.7428436279296875,12924.6994795,-1.620576725308467,-0.1257900234527722,0.00619479311470166,-0.3222600221633911,-0.03105307370424271,-0.281026303768158,0.01092245429754257,-0.06072788313031197,0.1087549328804016,XArbitraryZVertical,0.04340552292740745,0.04556366938617833,0.723184210644774,-0.6877822802027375,-0.1254561394453049,-0.00619475357234478,-0.9920798540115356
2020-08-20 22:32:42.953 +0200,12924.7407965,-0.0989227294921875,-0.203826904296875,-0.6407470703125,12924.7195165,-1.628486000936661,-0.1262211046656499,-0.003318386175303573,-0.7823638319969177,0.01138466317206621,-0.3739727139472961,0.008973106741905212,-0.1243071556091309,0.2286954522132874,XArbitraryZVertical,0.04700049447049109,0.04208730386381255,0.7256856312119984,-0.6851277220754995,-0.1258855313062668,0.00331838009878993,-0.9920392036437988
2020-08-20 22:32:42.973 +0200,12924.7608335,-0.097564697265625,-0.2319488525390625,-0.591156005859375,12924.7395545,-1.639252333065936,-0.1255989032901362,-0.02267100087687415,-1.309218049049377,0.03515071049332619,-0.4611802101135254,0.01922436058521271,-0.2139227986335754,0.3335099816322327,XArbitraryZVertical,0.0535874254909295,0.03456085846248493,0.728917606571673,-0.6816253502449553,-0.1252367496490479,0.02266905829310417,-0.9918678402900696
2020-08-20 22:32:42.993 +0200,12924.7808705,-0.10784912109375,-0.0857391357421875,-0.5099945068359375,12924.7595915,-1.653328659602171,-0.1251824213222341,-0.05315336606672252,-1.767769932746887,0.04795385897159576,-0.5637676119804382,0.02777886390686035,-0.288843959569931,0.4049906730651855,XArbitraryZVertical,0.06396445906923189,0.0228412390510112,0.7328503732113418,-0.6769912786632302,-0.1246793940663338,0.05312833935022354,-0.9907736778259277
2020-08-20 22:32:43.013 +0200,12924.8009075,-0.1163330078125,0.00799560546875,-0.4781341552734375,12924.7796285,-1.671311616819376,-0.1258134628145758,-0.08709506944655482,-1.87109375,0.02517424523830414,-0.8005504012107849,0.01390466094017029,-0.2007647752761841,0.4622610211372375,XArbitraryZVertical,0.07572521887153191,0.009896490481963989,0.7377320484918086,-0.6707601405716572,-0.1250061839818954,0.08698499947786331,-0.9883354902267456
2020-08-20 22:32:43.034 +0200,12924.8209445,-0.1351165771484375,-0.034149169921875,-0.4933013916015625,12924.7996655,-1.695360877088414,-0.1284547336791322,-0.1241375587005363,-2.033361673355103,-0.03821191936731339,-1.093661427497864,0.01066817343235016,-0.118620477616787,0.5052154064178467,XArbitraryZVertical,0.08898994464410412,-0.004020356076938047,0.7441263958361497,-0.6620729409106532,-0.1271159946918488,0.1238189712166786,-0.9841292500495911
2020-08-20 22:32:43.055 +0200,12924.8409815,-0.1880340576171875,0.1316070556640625,-0.8325958251953125,12924.8197025,-1.725170468769484,-0.1364673218248544,-0.1601591213705091,-1.914127826690674,-0.3406322300434113,-1.366119146347046,0.003177791833877563,-0.1826441287994385,0.5004779100418091,XArbitraryZVertical,0.1035322276903511,-0.01640838802308524,0.7517832224079987,-0.6510252648727272,-0.1343030333518982,0.1594752967357635,-0.9780237078666687
2020-08-20 22:32:43.073 +0200,12924.8610185,-0.2154998779296875,0.3839263916015625,-1.122390747070312,12924.8397395,-1.762405308535972,-0.1485874740535111,-0.1880394369729312,-1.297207355499268,-0.3061392307281494,-1.827482461929321,-0.04030577838420868,-0.1004688441753387,0.1952416300773621,XArbitraryZVertical,0.116577054206478,-0.02521462929000212,0.7615449140547896,-0.6370426310111951,-0.1454317420721054,0.1869332492351532,-0.9715480208396912
2020-08-20 22:32:43.094 +0200,12924.8810565,-0.2517242431640625,0.3846435546875,-1.24151611328125,12924.8597765,-1.805120474049425,-0.1667908008382294,-0.2036819998620682,-0.9802905917167664,-0.7125711441040039,-2.023034811019897,-0.045834019780159,0.1530447751283646,-0.08002275228500366,XArbitraryZVertical,0.1278167394673005,-0.02817646835031168,0.7728880246310131,-0.6208970424680943,-0.1625866889953613,0.2022765874862671,-0.9657379388809204
2020-08-20 22:32:43.114 +0200,12924.9010935,-0.3037261962890625,0.2925262451171875,-0.9960479736328125,12924.8798145,-1.850048458467637,-0.1964329729341055,-0.208798853520189,-0.1897810846567154,-1.295525074005127,-2.133902072906494,-0.06702920794487,0.2116255462169647,-0.3161212801933289,XArbitraryZVertical,0.1402995717051185,-0.02413272006478343,0.7843093155161474,-0.6038149475080863,-0.1909331232309341,0.2072849869728088,-0.9594672918319702
2020-08-20 22:32:43.134 +0200,12924.9211305,-0.40411376953125,0.50653076171875,-1.019989013671875,12924.8998515,-1.889809924412686,-0.2354181672276972,-0.1983239582909844,0.3663030564785004,-1.654748797416687,-1.889387607574463,-0.07169274985790253,0.0915699303150177,-0.08114898204803467,XArbitraryZVertical,0.1523031968560937,-0.01121890023476286,0.794068576949813,-0.5883306177090281,-0.2286775261163712,0.1970264166593552,-0.9533557295799255
2020-08-20 22:32:43.154 +0200,12924.9411675,-0.5366668701171875,0.4062347412109375,-1.279998779296875,12924.9198885,-1.920917585538516,-0.2730371279012868,-0.1790627698179411,0.6485158205032349,-1.445547103881836,-1.542265057563782,-0.1218777596950531,0.297787219285965,-0.0366671085357666,XArbitraryZVertical,0.1618459697803303,0.00510234947857351,0.8016043525822003,-0.5755087330298442,-0.2653457522392273,0.1781074106693268,-0.9475597143173218
2020-08-20 22:32:43.174 +0200,12924.9612045,-0.5006256103515625,0.0413665771484375,-1.28167724609375,12924.9399255,-1.944363949941585,-0.3015030778623516,-0.155853737623944,0.8424752950668335,-0.9368857145309448,-1.32700514793396,-0.2375753819942474,0.3119363486766815,-0.3077735304832458,XArbitraryZVertical,0.167060461681056,0.02078782180472131,0.8076811320468059,-0.5650750828180529,-0.2933565378189087,0.155223548412323,-0.9433173537254333
2020-08-20 22:32:43.194 +0200,12924.9812415,-0.3929595947265625,0.207183837890625,-1.2943115234375,12924.9599625,-1.963105547902411,-0.3174388999101744,-0.1393670595083571,0.04089447110891342,-0.3930011689662933,-0.9205945134162903,-0.2187820076942444,-0.03892576694488525,-0.3407642245292664,XArbitraryZVertical,0.1692886794798169,0.03046474837586025,0.8128034569194512,-0.5565642224346052,-0.3091080188751221,0.1389163434505463,-0.9408264756202698
2020-08-20 22:32:43.214 +0200,12925.0012785,-0.3580169677734375,0.6609039306640625,-1.29345703125,12924.9799995,-1.979960772403609,-0.3240201642910541,-0.1355379783425799,-0.005085671786218882,-0.1017030104994774,-0.875913679599762,-0.1069026589393616,-0.02310676872730255,-0.3819451332092285,XArbitraryZVertical,0.1712118678017032,0.03243320534249286,0.8171802740780323,-0.5494097127681379,-0.3154601454734802,0.1351233720779419,-0.9392691850662231
2020-08-20 22:32:43.234 +0200,12925.0213165,-0.39581298828125,0.369659423828125,-1.30767822265625,12925.0000365,-1.997629605935783,-0.3294196271221012,-0.1274551279417762,0.2199320048093796,-0.2674248516559601,-0.9801092743873596,-0.04709851741790771,0.5007965564727783,-0.3370739817619324,XArbitraryZVertical,0.1715935426084286,0.03575147102422721,0.8221141875728631,-0.5416693067005685,-0.3208699226379395,0.1271103322505951,-0.9385550022125244
2020-08-20 22:32:43.254 +0200,12925.0413535,-0.3766632080078125,-0.087432861328125,-1.207107543945312,12925.0200745,-2.010364257166318,-0.336786570259094,-0.1112206334411308,0.9155131578445435,-0.2803190946578979,-0.7258040308952332,-0.07206523418426514,0.3614067435264587,-0.3813986778259277,XArbitraryZVertical,0.1706447609326257,0.04342139430014334,0.8260387090246496,-0.5354016695005418,-0.3284141421318054,0.1109914779663086,-0.9379898905754089
2020-08-20 22:32:43.274 +0200,12925.0613905,-0.313079833984375,-0.10205078125,-1.101959228515625,12925.0401115,-2.015630090253843,-0.3405718291483327,-0.08995390288862835,0.7641088366508484,-0.04283942654728889,-0.5085785984992981,-0.06558865308761597,-0.1138007342815399,-0.284712553024292,XArbitraryZVertical,0.1668148963461218,0.05288040337720146,0.8285268788381946,-0.5319018671866946,-0.3326756358146667,0.08983264118432999,-0.9387528896331787
2020-08-20 22:32:43.294 +0200,12925.0814275,-0.29718017578125,0.1549224853515625,-1.053955078125,12925.0601485,-2.020926693828897,-0.3396250685123861,-0.07861175043758523,0.04479213804006577,0.1878174841403961,-0.3586790561676025,-0.002939611673355103,-0.2130858898162842,-0.1758548617362976,XArbitraryZVertical,0.1636276538641751,0.05693968460691454,0.8307199357772137,-0.5290446512702227,-0.3321047723293304,0.07853081077337265,-0.9399677515029907
2020-08-20 22:32:43.314 +0200,12925.1014645,-0.31439208984375,0.2163848876953125,-1.052581787109375,12925.0801855,-2.027953643435874,-0.3356851270629819,-0.08062904379868252,-0.3206608295440674,0.2550780177116394,-0.2361831516027451,0.02172553539276123,0.04105506837368011,-0.1194131970405579,XArbitraryZVertical,0.1627057026016035,0.05448075119356736,0.832772111708864,-0.5263546628910132,-0.32834592461586,0.0805417075753212,-0.9411174058914185
2020-08-20 22:32:43.334 +0200,12925.1215015,-0.29571533203125,0.10906982421875,-1.032211303710938,12925.1002225,-2.033465682144244,-0.3307344137740591,-0.08342807147783338,-0.07671032100915909,0.2669181525707245,-0.2343957871198654,0.002916485071182251,0.1418235599994659,-0.1110259890556335,XArbitraryZVertical,0.1615073987011672,0.0515568508886661,0.8344509328623596,-0.5243556989049666,-0.3236082494258881,0.08333132416009903,-0.9425144791603088
2020-08-20 22:32:43.354 +0200,12925.1415385,-0.2753448486328125,0.0426483154296875,-1.003799438476562,12925.1202595,-2.038192190129511,-0.3254540273324456,-0.08159123420329205,0.02754324674606323,0.2875454127788544,-0.2552714645862579,0.008820712566375732,0.05283696204423904,-0.09043097496032715,XArbitraryZVertical,0.1589524687409279,0.0505700396144191,0.8362213510903806,-0.5224084662332604,-0.3186753392219543,0.08150073885917664,-0.9443535804748535
2020-08-20 22:32:43.374 +0200,12925.1615765,-0.27178955078125,0.096038818359375,-0.9347381591796875,12925.1402965,-2.042964493692204,-0.3202790930351408,-0.08039631514084487,-0.03989119082689285,0.2637239694595337,-0.2425348311662674,0.02561324834823608,-0.03132159262895584,-0.06272590160369873,XArbitraryZVertical,0.1566008303889498,0.04934854464597418,0.8379443877968182,-0.520471082275637,-0.3138145506381989,0.08030973374843597,-0.946081817150116
2020-08-20 22:32:43.394 +0200,12925.1816135,-0.2822113037109375,0.1092376708984375,-0.90167236328125,12925.1603345,-2.047926278110438,-0.3158065271718396,-0.07916589350825488,-0.01672688126564026,0.2305782586336136,-0.2624228000640869,0.02885109186172485,0.004396773874759674,0.002236664295196533,XArbitraryZVertical,0.1545332539655063,0.04832104569007598,0.839652369461285,-0.5184288313261943,-0.3096104860305786,0.07908322662115097,-0.9475690722465515
2020-08-20 22:32:43.414 +0200,12925.2016505,-0.2885589599609375,0.10919189453125,-0.901153564453125,12925.1803715,-2.052871016619251,-0.3119228161363336,-0.07843425969282979,-0.03248333930969238,0.2102186679840088,-0.2302560657262802,0.01773390173912048,0.03568169474601746,0.04154843091964722,XArbitraryZVertical,0.1528338941605846,0.04724613261042656,0.8412718801544405,-0.5164023024123268,-0.3059457242488861,0.07835386693477631,-0.9488192200660706
2020-08-20 22:32:43.434 +0200,12925.2216875,-0.2794647216796875,0.09814453125,-0.935394287109375,12925.2004085,-2.057443257116581,-0.3075263898644922,-0.07730808969534982,-0.04780490323901176,0.2593025863170624,-0.2383816838264465,0.00421103835105896,0.03585341572761536,0.05694574117660522,XArbitraryZVertical,0.1508052854877928,0.04624360173849044,0.842847375861081,-0.5145167927249541,-0.3017978966236115,0.07723110914230347,-0.9502385854721069
2020-08-20 22:32:43.454 +0200,12925.2417245,-0.2703399658203125,0.090789794921875,-0.9551849365234375,12925.2204455,-2.062381638433547,-0.3014207106185547,-0.0770496899203791,-0.1355154514312744,0.2798824310302734,-0.2187430262565613,0.005291551351547241,0.02531493455171585,0.02563506364822388,XArbitraryZVertical,0.1482764169784003,0.04441639509006431,0.8445862439041113,-0.5125576676441645,-0.295996367931366,0.07697347551584244,-0.9520825743675232
2020-08-20 22:32:43.474 +0200,12925.2617615,-0.2657928466796875,0.1214752197265625,-0.94403076171875,12925.2404825,-2.067495066120493,-0.2958935140187588,-0.07892102517077591,-0.1929971277713776,0.2177628725767136,-0.2151751220226288,0.01031240820884705,0.01400211453437805,-2.932548522949219e-05,XArbitraryZVertical,0.1465197045279381,0.04182913897420668,0.8461992814371174,-0.5106162985979327,-0.2906870245933533,0.07883912324905396,-0.9535645842552185
2020-08-20 22:32:43.494 +0200,12925.2817985,-0.2629547119140625,0.1135406494140625,-0.926513671875,12925.2605195,-2.072394091015101,-0.2927113950308646,-0.08220642030535859,-0.1350266188383102,0.1643598228693008,-0.1884482055902481,0.01262402534484863,0.03643522411584854,0.008093357086181641,XArbitraryZVertical,0.1460922261751925,0.03925877466975447,0.8475014499245263,-0.5087799740878785,-0.2875749170780182,0.08211386203765869,-0.9542316198348999
2020-08-20 22:32:43.514 +0200,12925.3018355,-0.2580718994140625,0.101287841796875,-0.91717529296875,12925.2805565,-2.076240054437791,-0.2912366784264819,-0.08453231049007222,-0.06014759093523026,0.1205396503210068,-0.1400761753320694,0.01325184106826782,0.03649481385946274,0.02568787336349487,XArbitraryZVertical,0.1461195542590366,0.03760987977814421,0.8484588697968621,-0.5072987851186537,-0.2861117422580719,0.08443167060613632,-0.9544691443443298
2020-08-20 22:32:43.534 +0200,12925.3218735,-0.2565460205078125,0.1377410888671875,-0.919952392578125,12925.3005935,-2.078722373198978,-0.2900858026716739,-0.08527247365061527,0.006608668714761734,0.09600367397069931,-0.09813493490219116,0.01755687594413757,0.0173938125371933,0.0350574254989624,XArbitraryZVertical,0.1458609464079642,0.03682062179757412,0.8491313617707739,-0.5063050208893968,-0.2849951386451721,0.08516916632652283,-0.954737663269043
2020-08-20 22:32:43.555 +0200,12925.3419105,-0.253326416015625,0.114837646484375,-0.9586181640625,12925.3206315,-2.080368693504219,-0.2879933742920802,-0.08541273515912175,0.01109396480023861,0.1140607073903084,-0.08113311976194382,0.01772409677505493,0.05099568516016006,0.0458146333694458,XArbitraryZVertical,0.1450370417584583,0.03611152428498101,0.8496923620622628,-0.5056511480337555,-0.2829934060573578,0.08530892431735992,-0.955320417881012
2020-08-20 22:32:43.575 +0200,12925.3619475,-0.25604248046875,0.0632476806640625,-0.9677734375,12925.3607055,-2.081894667585507,-0.2848578538506915,-0.08666061069168565,-0.03030873462557793,0.03348357230424881,0.0006390877533704042,0.01505222916603088,-0.01324225962162018,-0.008606076240539551,XArbitraryZVertical,0.1440402303364902,0.03467471799958558,0.8502366550988473,-0.5051214250609701,-0.2799664437770844,0.08655218034982681,-0.9561001658439636
2020-08-20 22:32:43.595 +0200,12925.3819845,-0.2573089599609375,0.0863800048828125,-0.9405670166015625,12925.3607055,-2.081894667585507,-0.2848578538506915,-0.08666061069168565,-0.03030873462557793,0.03348357230424881,0.0006390877533704042,0.01505222916603088,-0.01324225962162018,-0.008606076240539551,XArbitraryZVertical,0.1440402303364902,0.03467471799958558,0.8502366550988473,-0.5051214250609701,-0.2799664437770844,0.08655218034982681,-0.9561001658439636
2020-08-20 22:32:43.615 +0200,12925.4020215,-0.2577362060546875,0.1184539794921875,-0.9588165283203125,12925.3807425,-2.081839931921642,-0.284089395733682,-0.08841202038542022,-0.01610583066940308,0.04224510490894318,0.02367900870740414,0.01316988468170166,-0.01235303282737732,0.01097565889358521,XArbitraryZVertical,0.1441456263831481,0.03373453810437415,0.8501828145613587,-0.505245759670243,-0.2791887223720551,0.08829688280820847,-0.9561680555343628
2020-08-20 22:32:43.635 +0200,12925.4220585,-0.2565765380859375,0.1084747314453125,-0.962432861328125,12925.4007795,-2.081088609166286,-0.283382535965121,-0.09014816643350593,0.02392867021262646,0.02120932936668396,0.06146667525172234,0.01259547472000122,0.03214552253484726,0.004842817783355713,XArbitraryZVertical,0.1442620033607958,0.03286660658256817,0.8499488066844783,-0.5056632296296991,-0.2784695029258728,0.0900261178612709,-0.9562165141105652
2020-08-20 22:32:43.655 +0200,12925.44209691667,-0.261810302734375,0.0966339111328125,-0.9621429443359375,12925.4208165,-2.079372364417499,-0.2825186382259993,-0.09047171607871521,0.08768594264984131,0.01471388060599566,0.0740649551153183,0.01187905669212341,0.02403628826141357,-0.001421451568603516,XArbitraryZVertical,0.1439469401509526,0.03263316915661644,0.8495590328138275,-0.5064225512486699,-0.2776351869106293,0.09034834802150726,-0.9564287066459656
2020-08-20 22:32:43.675 +0200,12925.46213491667,-0.2638702392578125,0.1025848388671875,-0.9619293212890625,12925.44085491667,-2.077567537025661,-0.2814341058103609,-0.08980607377660206,0.02314769849181175,0.005834368988871574,0.06910359859466553,0.00803712010383606,0.01077750325202942,-0.006781458854675293,XArbitraryZVertical,0.1432917911774991,0.03277278542708533,0.8492160577655672,-0.5071740545894357,-0.2766143977642059,0.08968540281057358,-0.9567868113517761
2020-08-20 22:32:43.695 +0200,12925.48217191667,-0.262603759765625,0.104644775390625,-0.9788818359375,12925.46089291667,-2.076230271607969,-0.2803853747208395,-0.08903498620198182,-0.01219870802015066,0.03823305293917656,0.07099675387144089,0.002216160297393799,0.01368796080350876,-0.001371026039123535,XArbitraryZVertical,0.1426330911908246,0.03293210619761438,0.8489938114771635,-0.5077212688866098,-0.2756298780441284,0.08891739696264267,-0.9571425318717957
2020-08-20 22:32:43.715 +0200,12925.50220891667,-0.2700653076171875,0.10015869140625,-0.989532470703125,12925.48092991667,-2.074805280933124,-0.2790603435996533,-0.09082085002538814,-0.01238539535552263,0.04712535068392754,0.07877592742443085,0.003020256757736206,0.01756554841995239,-0.01688402891159058,XArbitraryZVertical,0.1424916766487355,0.03193345260023038,0.8486288278534959,-0.5084344116064501,-0.2743172347545624,0.09069604426622391,-0.9573527574539185
2020-08-20 22:32:43.735 +0200,12925.52224591667,-0.284088134765625,0.10601806640625,-1.005661010742188,12925.50096691667,-2.073158698108487,-0.2777336394329404,-0.09285337926244794,-0.04327939823269844,0.04519429057836533,0.10997524112463,-0.004134088754653931,0.010722815990448,-0.02737194299697876,XArbitraryZVertical,0.1424090198290907,0.0308443887950727,0.8481929410371069,-0.5092514371583251,-0.2729957401752472,0.09272000938653946,-0.9575365781784058
2020-08-20 22:32:43.755 +0200,12925.54228291667,-0.28533935546875,0.1305084228515625,-0.9926910400390625,12925.52100391667,-2.070990782981782,-0.2758210310969975,-0.09525002230397511,-0.00831155851483345,0.06918191909790039,0.1215356811881065,-0.02008190751075745,0.006718583405017853,-0.04415225982666016,XArbitraryZVertical,0.1421629618288951,0.02948711543395495,0.8476442798011421,-0.5103130526333276,-0.2711025774478912,0.09510605782270432,-0.9578403830528259
2020-08-20 22:32:43.775 +0200,12925.56231991667,-0.2822113037109375,0.095550537109375,-0.9862213134765625,12925.54104091667,-2.068329027122533,-0.2743202413655189,-0.0961560802658785,0.06928975880146027,0.09162330627441406,0.1445548981428146,-0.02438101172447205,0.04008598625659943,-0.03447109460830688,XArbitraryZVertical,0.1417146102809988,0.02890573923126147,0.8470207176594834,-0.5115051018863596,-0.2696412801742554,0.09600797295570374,-0.9581628441810608
2020-08-20 22:32:43.795 +0200,12925.58235691667,-0.278594970703125,0.098724365234375,-0.9699859619140625,12925.56107791667,-2.064505770724705,-0.2717095639358643,-0.09610501899948981,0.117445170879364,0.1322130858898163,0.181888073682785,-0.02420896291732788,0.006855785846710205,-0.02832537889480591,XArbitraryZVertical,0.1405417956023977,0.02852853783565624,0.8462283478715262,-0.5131585985115418,-0.2671402394771576,0.09595714509487152,-0.9588682651519775
2020-08-20 22:32:43.815 +0200,12925.60239491667,-0.274169921875,0.101531982421875,-1.000564575195312,12925.58111491667,-2.060707821123224,-0.2686004296052139,-0.0962591710652433,0.05766439810395241,0.1819646507501602,0.1640599370002747,-0.02377453446388245,0.003533363342285156,-0.005963444709777832,XArbitraryZVertical,0.1392120237986693,0.02792942623519707,0.8454612750056916,-0.514815743465851,-0.264153778553009,0.09611058980226517,-0.959679901599884
2020-08-20 22:32:43.835 +0200,12925.62243191667,-0.26788330078125,0.08819580078125,-1.000503540039062,12925.60115291667,-2.057513230789541,-0.2652873301865726,-0.09647561073002614,0.02642658166587353,0.2088436782360077,0.1552183479070663,-0.02304548025131226,0.009870767593383789,-0.03724503517150879,XArbitraryZVertical,0.1378225484941694,0.0272045161227897,0.8448554478048794,-0.5162210056676082,-0.260967344045639,0.09632602334022522,-0.9605297446250916
2020-08-20 22:32:43.855 +0200,12925.64246891667,-0.2581939697265625,0.1040496826171875,-0.98785400390625,12925.62118991667,-2.054448759606421,-0.2613965201257355,-0.09796453777315989,0.004113952629268169,0.2260279804468155,0.163067638874054,-0.01940886676311493,-0.006197407841682434,-0.03814351558685303,XArbitraryZVertical,0.1365156580964829,0.02577541640669644,0.8442491198620117,-0.5176316953040149,-0.2571907937526703,0.09780792146921158,-0.961398184299469
2020-08-20 22:32:43.875 +0200,12925.66250591667,-0.2552490234375,0.118408203125,-1.01031494140625,12925.64122691667,-2.051210402368756,-0.2573064504551392,-0.09908148174847416,0.009526161476969719,0.2517237663269043,0.18011374771595,-0.01372431218624115,0.005543604493141174,-0.0245402455329895,XArbitraryZVertical,0.1350325170920758,0.02446018190775341,0.8436267602358697,-0.5190970894636985,-0.2532285153865814,0.09891944378614426,-0.9623358249664307
2020-08-20 22:32:43.895 +0200,12925.68254291667,-0.267669677734375,0.1280975341796875,-1.0421142578125,12925.66126391667,-2.04760725012185,-0.2528347265597296,-0.09913446264777699,0.06620169430971146,0.2607697248458862,0.1839891672134399,-0.01403476297855377,0.01869142055511475,-0.04282134771347046,XArbitraryZVertical,0.1331172659160378,0.02351682402413412,0.8429870620172577,-0.5206722130243613,-0.2489213794469833,0.09897216409444809,-0.9634535312652588
2020-08-20 22:32:43.915 +0200,12925.70257991667,-0.279327392578125,0.1230316162109375,-1.02813720703125,12925.68130091667,-2.043658809799195,-0.2483994007881181,-0.09901342389142057,0.05246750265359879,0.2570783197879791,0.2017518728971481,-0.02644264698028564,0.03153392672538757,-0.07068079710006714,XArbitraryZVertical,0.1311720886779927,0.02267252321953354,0.8422569938651256,-0.522382104168483,-0.244648665189743,0.09885171800851822,-0.9645596742630005
2020-08-20 22:32:43.935 +0200,12925.72261791667,-0.265899658203125,0.123291015625,-1.021469116210938,12925.70133791667,-2.039281499875049,-0.2434836223072483,-0.09935921098805221,0.002290086820721626,0.307936429977417,0.2499724328517914,-0.04653280973434448,0.02953754365444183,-0.06801855564117432,XArbitraryZVertical,0.1291432822102688,0.02152443222888407,0.8414131454458549,-0.5242924238559331,-0.2398959100246429,0.09919580817222595,-0.9657174348831177
2020-08-20 22:32:43.955 +0200,12925.74265491667,-0.2402496337890625,0.15655517578125,-1.0390625,12925.72137591667,-2.033733690032614,-0.2366051937786101,-0.1005119251608752,0.04358546435832977,0.418701559305191,0.3121359348297119,-0.0448029488325119,0.01965311169624329,-0.05080395936965942,XArbitraryZVertical,0.126491323300636,0.01958336113012043,0.840334523435727,-0.526739370805722,-0.233220711350441,0.1003427729010582,-0.967232882976532
2020-08-20 22:32:43.975 +0200,12925.76269191667,-0.238739013671875,0.149444580078125,-1.086349487304688,12925.74141291667,-2.027058667423487,-0.228230369142578,-0.1010994624249688,0.07627563178539276,0.4295102655887604,0.3488399088382721,-0.02599552273750305,0.05706619471311569,-0.06064367294311523,XArbitraryZVertical,0.1230654430211905,0.01753956451184729,0.8390637418054492,-0.5296407660682497,-0.2250988334417343,0.100927323102951,-0.9690945148468018
2020-08-20 22:32:43.995 +0200,12925.78272891667,-0.2421417236328125,0.1384429931640625,-1.080734252929688,12925.76144991667,-2.019083460479045,-0.2194677114656919,-0.1010269590470322,0.1307218223810196,0.4103959798812866,0.4280047714710236,-0.02696229517459869,0.04962873458862305,-0.1094371676445007,XArbitraryZVertical,0.1193074369072855,0.01572539831298601,0.8374795814999262,-0.5330539136767717,-0.2166000604629517,0.1008551940321922,-0.9710369110107422
2020-08-20 22:32:44.015 +0200,12925.80276591667,-0.2295379638671875,0.069915771484375,-1.052566528320312,12925.78148691667,-2.009326125574925,-0.2103325980087705,-0.1008248895733172,0.08704279363155365,0.4063405096530914,0.5120883584022522,-0.04193486273288727,0.04941142350435257,-0.1096315383911133,XArbitraryZVertical,0.1153613908589027,0.01393869600457366,0.8354148458972306,-0.5371959256739597,-0.20772485435009,0.1006541475653648,-0.9729949235916138
2020-08-20 22:32:44.035 +0200,12925.82280291667,-0.204986572265625,0.073974609375,-1.019744873046875,12925.80152391667,-1.997317450177235,-0.2004306195001007,-0.1008334213920141,0.1786877512931824,0.4613142609596252,0.6698341965675354,-0.04163096845149994,-0.02104660868644714,-0.08888792991638184,XArbitraryZVertical,0.1111564119432736,0.01194292899100352,0.8327344233962881,-0.5422683842615567,-0.1980800926685333,0.1006626412272453,-0.9750032424926758
2020-08-20 22:32:44.066 +0200,12925.84283991667,-0.1865692138671875,0.191802978515625,-1.051437377929688,12925.82156091667,-1.982080108816899,-0.1892634163119378,-0.1011976346845448,0.07514458894729614,0.5069401264190674,0.8116568922996521,-0.02890804409980774,-0.03189556300640106,-0.04161268472671509,XArbitraryZVertical,0.1065324971352975,0.009574158048454115,0.8291690691479382,-0.5486691424774955,-0.187172994017601,0.1010249927639961,-0.9771183133125305
2020-08-20 22:32:44.076 +0200,12925.86287791667,-0.171356201171875,0.202972412109375,-1.017410278320312,12925.84159791667,-1.965531748035011,-0.1775722689827177,-0.1029375364809389,0.0631924569606781,0.4723837077617645,0.8130900263786316,-0.02020682394504547,0.06997449696063995,-0.06662857532501221,XArbitraryZVertical,0.1021043607428537,0.006485623864187644,0.825129594619986,-0.5556021422336062,-0.1757055073976517,0.1027558445930481,-0.9790652990341187
2020-08-20 22:32:44.096 +0200,12925.88291491667,-0.158905029296875,0.1228485107421875,-0.9996185302734375,12925.86163591667,-1.948668174225873,-0.1666634378682511,-0.1035235750903387,0.1930648237466812,0.4591251611709595,0.8745878934860229,-0.01494397222995758,0.1140114590525627,-0.04343277215957642,XArbitraryZVertical,0.09773242649737708,0.004035919493105676,0.820933850334389,-0.56258302049052,-0.1650047898292542,0.1033387631177902,-0.9808641672134399
2020-08-20 22:32:44.115 +0200,12925.90295191667,-0.1230010986328125,0.0688629150390625,-1.013198852539062,12925.88167291667,-1.930165543209825,-0.1547812387603781,-0.1015531501047364,0.2574641704559326,0.540002167224884,0.8631256222724915,-0.0145074725151062,0.03992075473070145,-0.02196860313415527,XArbitraryZVertical,0.09228778186174186,0.002361159689836841,0.8163448550154888,-0.5701390012992101,-0.1533696949481964,0.1013786867260933,-0.9829548001289368
2020-08-20 22:32:44.136 +0200,12925.92298891667,-0.102142333984375,0.063232421875,-1.0224609375,12925.90170991667,-1.912761513472475,-0.1413887243988315,-0.09934696894552064,0.1999676078557968,0.6056222319602966,0.8375361561775208,0.007719904184341431,-0.02056045085191727,-0.02124142646789551,XArbitraryZVertical,0.08619836238049444,0.0001991017854674548,0.8120422721806262,-0.5771976530138793,-0.1402232646942139,0.09918362647294998,-0.9851396083831787
2020-08-20 22:32:44.155 +0200,12925.94302591667,-0.0914764404296875,0.0301666259765625,-1.006362915039062,12925.92174691667,-1.895893210677995,-0.1286831812498721,-0.09936669918180911,0.08851484954357147,0.538353443145752,0.8253383040428162,0.01835440099239349,-0.03132164478302002,-0.03898906707763672,XArbitraryZVertical,0.08107001248194368,-0.002792084940955118,0.8076757884474747,-0.5840202684425384,-0.127695307135582,0.09920325875282288,-0.9868397116661072
2020-08-20 22:32:44.175 +0200,12925.96306291667,-0.0894012451171875,0.0243682861328125,-0.9873046875,12925.94178391667,-1.878877255674276,-0.1181606313990461,-0.1025188101530388,0.04426176846027374,0.447101503610611,0.89249587059021,0.02027986198663712,-0.06145809590816498,-0.01964414119720459,XArbitraryZVertical,0.07779027990915623,-0.006482109506728803,0.802974382513948,-0.5908796590601308,-0.117266908288002,0.1023393273353577,-0.9878132939338684
2020-08-20 22:32:44.196 +0200,12925.98309991667,-0.0763397216796875,0.1127777099609375,-0.954559326171875,12925.96182091667,-1.8598944705967,-0.1089034388648326,-0.1042033676796848,0.130125418305397,0.4155774116516113,0.9992374181747437,0.01468238979578018,-0.08400043845176697,-0.006212770938873291,XArbitraryZVertical,0.07465722216899219,-0.009188190720499319,0.7976196182001696,-0.5984520036602865,-0.1080987453460693,0.1040148884057999,-0.9886837601661682
2020-08-20 22:32:44.216 +0200,12926.00313791667,-0.0667572021484375,0.157928466796875,-0.913543701171875,12925.98185791667,-1.839097720637844,-0.09936063663024346,-0.1031980361149552,0.1393162459135056,0.4007502496242523,1.048830032348633,0.01722439378499985,-0.003915309906005859,0.03010594844818115,XArbitraryZVertical,0.07066913373841818,-0.01090662371820703,0.7917371283306657,-0.6066623258106352,-0.09866947680711746,0.1030149608850479,-0.9897738099098206
2020-08-20 22:32:44.236 +0200,12926.02317491667,-0.0637969970703125,0.155914306640625,-0.8698883056640625,12926.00189591667,-1.817800348677523,-0.0905153052945751,-0.1012672374412235,0.2182606011629105,0.3146800994873047,1.037170648574829,0.01872412860393524,0.05746915936470032,0.06625986099243164,XArbitraryZVertical,0.06671755913585486,-0.01211244377807418,0.7856032484915308,-0.6150037065612587,-0.08992866426706314,0.1010942459106445,-0.990804135799408
2020-08-20 22:32:44.256 +0200,12926.04321191667,-0.04888916015625,0.08746337890625,-0.867767333984375,12926.02193291667,-1.797583960803183,-0.0820167582630751,-0.09674766806056399,0.3329814374446869,0.3359670042991638,0.8862454891204834,0.01600414514541626,0.06539485603570938,0.1159803867340088,XArbitraryZVertical,0.06212398449883409,-0.01231660687383922,0.7797686511563899,-0.6228560779723989,-0.08154172450304031,0.09659680724143982,-0.9919778108596802
2020-08-20 22:32:44.276 +0200,12926.06324891667,-0.030609130859375,0.04150390625,-0.89129638671875,12926.04196991667,-1.781847221666794,-0.07433976194460681,-0.09073828107449101,0.3593743145465851,0.3308864831924438,0.6800055503845215,0.01875393092632294,0.01720297336578369,0.1253412365913391,XArbitraryZVertical,0.05736269732536113,-0.01190591157557751,0.7752563526074701,-0.6289239687961254,-0.07396576553583145,0.09061381965875626,-0.9931355118751526
2020-08-20 22:32:44.296 +0200,12926.08328591667,-0.0257415771484375,0.0184173583984375,-0.9449005126953125,12926.06200691667,-1.768236582267197,-0.06649877834235354,-0.08308310557295602,0.4449407458305359,0.3690448105335236,0.6220961809158325,0.02950327098369598,-0.0323273092508316,0.1128281950950623,XArbitraryZVertical,0.05200074590304404,-0.01104232604695748,0.7713867978185389,-0.6341422990705559,-0.06622056663036346,0.08298755437135696,-0.9943479895591736
2020-08-20 22:32:44.316 +0200,12926.10332291667,-0.03118896484375,0.0192108154296875,-0.9720611572265625,12926.08204391667,-1.756016071428499,-0.0584537126050868,-0.07663169309505155,0.3382424116134644,0.3356378376483917,0.5557652115821838,0.02895551919937134,-0.05077338218688965,0.05677306652069092,XArbitraryZVertical,0.04692475554317111,-0.01081261732011475,0.7678600778776983,-0.6388052304539308,-0.05824897810816765,0.07655671238899231,-0.9953622817993164
2020-08-20 22:32:44.336 +0200,12926.12335991667,-0.0317840576171875,0.03070068359375,-0.96490478515625,12926.10208091667,-1.744646705714963,-0.05120127671013402,-0.0711176603206221,0.2760771512985229,0.2975924611091614,0.5465744733810425,0.01926779374480247,-0.05290991067886353,0.02700227499008179,XArbitraryZVertical,0.04244483568984097,-0.01076691975075463,0.7645049364680977,-0.6431288884007185,-0.05104953795671463,0.07105772942304611,-0.9961650371551514
2020-08-20 22:32:44.356 +0200,12926.14339791667,-0.0269622802734375,0.019561767578125,-0.9393310546875,12926.12211791667,-1.733546273609143,-0.04475103577260755,-0.06647750879024421,0.2438125610351562,0.2700369954109192,0.5342941284179688,0.01105951517820358,-0.03480111062526703,0.02791482210159302,XArbitraryZVertical,0.03855051851104817,-0.01085081036813302,0.7611511795526512,-0.6473368421172647,-0.0446372851729393,0.06642855703830719,-0.9967922568321228
2020-08-20 22:32:44.376 +0200,12926.16343491667,-0.0212860107421875,0.0189361572265625,-0.920562744140625,12926.14215591667,-1.722934255786678,-0.03904573588357842,-0.06224182536909481,0.2258704453706741,0.2318200916051865,0.5090746283531189,0.008857958018779755,-0.03699454292654991,0.05445611476898193,XArbitraryZVertical,0.03506850979528868,-0.01089743882969136,0.7578913675366606,-0.6513464051946884,-0.03896022588014603,0.06220164522528648,-0.9973028898239136
2020-08-20 22:32:44.396 +0200,12926.18347191667,-0.0166778564453125,0.0131683349609375,-0.899688720703125,12926.16219291667,-1.71294332345433,-0.03411088932512858,-0.05851292464322105,0.1625605821609497,0.2021673917770386,0.4689775705337524,0.01099608838558197,-0.03891387954354286,0.06992393732070923,XArbitraryZVertical,0.03204046228553938,-0.01093011410522925,0.7547758436430536,-0.6551086675435798,-0.03404590860009193,0.05847954005002975,-0.9977079033851624
2020-08-20 22:32:44.416 +0200,12926.20350891667,-0.0180511474609375,-0.0053558349609375,-0.9087677001953125,12926.18222991667,-1.704174713465136,-0.0298007557276039,-0.05686081943410079,0.03179524838924408,0.1714928448200226,0.39295494556427,0.01057275198400021,-0.03817121684551239,0.100422739982605,XArbitraryZVertical,0.02992428452237159,-0.01158678929492868,0.7519898368483383,-0.6583931659529396,-0.02974819019436836,0.05683018267154694,-0.9979405403137207
2020-08-20 22:32:44.436 +0200,12926.22354591667,-0.022674560546875,-0.0059967041015625,-0.9235076904296875,12926.20226691667,-1.697372161331597,-0.026210013020267,-0.05638204076872651,0.05592827871441841,0.1425245702266693,0.297760933637619,0.009025897830724716,-0.05830768868327141,0.09035331010818481,XArbitraryZVertical,0.02845931504634855,-0.01249195487013275,0.749805861675937,-0.6609275559707311,-0.02616536803543568,0.0563521720468998,-0.9980680346488953
2020-08-20 22:32:44.456 +0200,12926.24358291667,-0.0223236083984375,0.004669189453125,-0.9440155029296875,12926.22230391667,-1.691769272105308,-0.02341098121004032,-0.05501849276659908,0.09710860252380371,0.1043971627950668,0.254025012254715,0.0004629045724868774,-0.06135334074497223,0.07969069480895996,XArbitraryZVertical,0.02699571086451454,-0.01282981969325947,0.7480100141201704,-0.6630140762144709,-0.02337342128157616,0.0549907386302948,-0.9982132315635681
2020-08-20 22:32:44.476 +0200,12926.26362091667,-0.0567474365234375,-0.021728515625,-0.9644317626953125,12926.24234091667,-1.687131166353037,-0.02157926936202934,-0.05318876564876024,0.0884016677737236,0.04219450801610947,0.1962057799100876,-0.001275137066841125,-0.04943699389696121,0.06082910299301147,XArbitraryZVertical,0.02573397324683648,-0.0126926793902538,0.7465199239969401,-0.664744108115245,-0.02154707908630371,0.05316368862986565,-0.9983533024787903
2020-08-20 22:32:44.496 +0200,12926.28365791667,-0.0811004638671875,-0.050018310546875,-0.9042816162109375,12926.26237891667,-1.684632233418214,-0.02208645182153466,-0.05147940929499904,0.1217280626296997,-0.1246043294668198,0.03923745825886726,-0.02808087691664696,-0.0619746670126915,0.02855634689331055,XArbitraryZVertical,0.02537033500525748,-0.01185404895049989,0.7457051779817092,-0.6656873684353868,-0.02205539867281914,0.05145667493343353,-0.9984316825866699
2020-08-20 22:32:44.516 +0200,12926.30369491667,-0.0824737548828125,-0.1167755126953125,-0.9044036865234375,12926.28241591667,-1.685035144302953,-0.02666654182737633,-0.04777351385221263,0.1736788898706436,-0.3101094663143158,-0.1204166486859322,-0.05206000059843063,-0.08487970381975174,0.08688437938690186,XArbitraryZVertical,0.02584353432342893,-0.008952266345788355,0.7458299669143837,-0.6655747266068276,-0.02663296088576317,0.04775534197688103,-0.9985039234161377
2020-08-20 22:32:44.536 +0200,12926.32373191667,-0.0950164794921875,-0.0303955078125,-0.9576263427734375,12926.30245291667,-1.68873660666666,-0.0327211437692002,-0.04570553962953864,0.0598500519990921,-0.2501161694526672,-0.2176713049411774,-0.04939226061105728,-0.1576779335737228,0.09881269931793213,XArbitraryZVertical,0.02740217416321614,-0.006216423464846121,0.747008170282653,-0.6642208337339044,-0.03268114104866982,0.04568962752819061,-0.9984209537506104
2020-08-20 22:32:44.566 +0200,12926.34376891667,-0.089019775390625,0.0933990478515625,-1.0206298828125,12926.32248991667,-1.692750940180464,-0.03636269636475707,-0.04454636907627901,0.03267542272806168,-0.1001509204506874,-0.1837603896856308,-0.0581684373319149,-0.09874103963375092,0.05497944355010986,XArbitraryZVertical,0.02836840210575859,-0.004630720090385546,0.7483055269061754,-0.6627312090088605,-0.03631861880421638,0.04453163594007492,-0.9983475804328918
2020-08-20 22:32:44.577 +0200,12926.36380591667,-0.046661376953125,0.1103057861328125,-1.049285888671875,12926.36256391667,-1.699265960236016,-0.03835690357605037,-0.04004153132789761,0.1237266361713409,-0.001329267397522926,-0.1380523294210434,-0.01871214434504509,0.0774465873837471,-0.04821032285690308,XArbitraryZVertical,0.02761555260578735,-0.002373160344121505,0.7504960389326636,-0.6602934568060433,-0.038316760212183,0.0400308333337307,-0.99846351146698
2020-08-20 22:32:44.597 +0200,12926.38384291667,-0.01275634765625,0.06268310546875,-1.016098022460938,12926.36256391667,-1.699265960236016,-0.03835690357605037,-0.04004153132789761,0.1237266361713409,-0.001329267397522926,-0.1380523294210434,-0.01871214434504509,0.0774465873837471,-0.04821032285690308,XArbitraryZVertical,0.02761555260578735,-0.002373160344121505,0.7504960389326636,-0.6602934568060433,-0.038316760212183,0.0400308333337307,-0.99846351146698
2020-08-20 22:32:44.617 +0200,12926.40388091667,0.0036773681640625,0.0339508056640625,-0.9833526611328125,12926.38260091667,-1.701696373320788,-0.04020415443015671,-0.03382703761800918,0.1110651716589928,-0.04568608105182648,-0.1076705008745193,0.02084828540682793,0.03962185606360435,-0.02556699514389038,XArbitraryZVertical,0.02625943524317228,0.0005383466410240536,0.7513563599726849,-0.6593737985889471,-0.0401703305542469,0.03382058814167976,-0.998620331287384
2020-08-20 22:32:44.636 +0200,12926.42391791667,0.0187225341796875,0.04937744140625,-0.977203369140625,12926.40263891667,-1.703256173300536,-0.04277434089532759,-0.02917645746959784,0.001343332696706057,-0.03036917373538017,-0.04700638353824615,0.0423978827893734,0.00690687820315361,0.01229804754257202,XArbitraryZVertical,0.02569537260370406,0.003113809040918856,0.751896311704059,-0.6587731135145012,-0.04274309799075127,0.02917231805622578,-0.9986600875854492
2020-08-20 22:32:44.657 +0200,12926.443955,0.0243072509765625,0.0612640380859375,-1.0037841796875,12926.42267591667,-1.703613790198353,-0.04462568766025662,-0.03050674643648039,-0.08080533146858215,-0.001376139000058174,0.01359761133790016,0.05909430980682373,0.01523228734731674,0.02403748035430908,XArbitraryZVertical,0.02682979382268713,0.003218428998168612,0.7519727454332148,-0.6586401065964624,-0.04459011927247047,0.03050201386213303,-0.9985396265983582
2020-08-20 22:32:44.676 +0200,12926.463992,0.0062103271484375,0.0580596923828125,-1.0072021484375,12926.442713,-1.703164076251789,-0.04572837019498402,-0.034895257472053,-0.06868408620357513,-0.05523111671209335,0.03145064413547516,0.06793614476919174,0.02619791030883789,-0.001738488674163818,XArbitraryZVertical,0.02868794822163305,0.001937014092672536,0.751749701609199,-0.6588215245161901,-0.04568460583686829,0.03488817438483238,-0.9983465075492859
2020-08-20 22:32:44.696 +0200,12926.484029,-0.011932373046875,0.03900146484375,-1.0074462890625,12926.46275,-1.702573208149707,-0.04651258701709375,-0.03792759448184226,-0.02429571747779846,-0.1040093079209328,0.03199948370456696,0.05579562857747078,0.02552176266908646,-0.008212685585021973,XArbitraryZVertical,0.02998032557152684,0.001063624914003686,0.7514997343672358,-0.6590510427605637,-0.04646237939596176,0.03791850060224533,-0.9982001185417175
2020-08-20 22:32:44.717 +0200,12926.504066,-0.0255279541015625,0.030364990234375,-0.9954376220703125,12926.482787,-1.701870753389708,-0.04692024667318772,-0.03814289069359907,0.02679609507322311,-0.1167069897055626,0.03018765896558762,0.03615450486540794,0.004363119602203369,-0.0108482837677002,XArbitraryZVertical,0.03020398382694963,0.001127606176271023,0.7512588762764779,-0.659315191722132,-0.04686891660094261,0.0381336435675621,-0.9981728792190552
2020-08-20 22:32:44.737 +0200,12926.524104,-0.0414886474609375,0.0105133056640625,-0.987701416015625,12926.502824,-1.701276766077013,-0.04699481607575053,-0.03774217896488954,0.02716241404414177,-0.1267140805721283,0.01936639845371246,0.0220060721039772,-0.00411447137594223,0.0006376504898071289,XArbitraryZVertical,0.03009964092001973,0.001311766910215513,0.75106787007971,-0.6595372885095977,-0.04694406315684319,0.03773321956396103,-0.9981845617294312
2020-08-20 22:32:44.757 +0200,12926.544141,-0.0490570068359375,-0.0003814697265625,-0.99224853515625,12926.522862,-1.701018281242051,-0.04680392469932056,-0.03813984935180446,0.01355872023850679,-0.119616761803627,-0.004292934201657772,0.004410583525896072,-0.02308448404073715,0.00690305233001709,XArbitraryZVertical,0.03015882113458433,0.001103257567350255,0.7509795834845558,-0.6596353847345461,-0.04675281420350075,0.03813060373067856,-0.9981784820556641
2020-08-20 22:32:44.777 +0200,12926.564178,-0.0530242919921875,0.0126800537109375,-1.009063720703125,12926.542899,-1.701021623100621,-0.04654382170470026,-0.03907473756698135,-0.008980944752693176,-0.08082515746355057,-0.003571712411940098,-0.002586841583251953,-0.03727952018380165,0.008848309516906738,XArbitraryZVertical,0.03036918309230496,0.0006661041972789534,0.7509706500402286,-0.6596365164222269,-0.04649150371551514,0.03906479477882385,-0.9981545209884644
2020-08-20 22:32:44.797 +0200,12926.584215,-0.059722900390625,0.01318359375,-1.016464233398438,12926.562936,-1.701146055093316,-0.04654867060618461,-0.0394839965268259,-0.002771917264908552,-0.07544663548469543,-0.01474625989794731,-0.00752672553062439,-0.02873388305306435,-0.01040881872177124,XArbitraryZVertical,0.0305058756645044,0.0005120126338040664,0.7510054567886948,-0.6595907484635499,-0.04649559408426285,0.03947373852133751,-0.9981382489204407
2020-08-20 22:32:44.817 +0200,12926.604252,-0.0578155517578125,0.01983642578125,-1.016372680664062,12926.582973,-1.701438957440645,-0.04717853027594823,-0.03903928799967859,0.03070428222417831,-0.07142207026481628,-0.02282686159014702,-0.01266970485448837,-0.02445835620164871,-0.01582205295562744,XArbitraryZVertical,0.03059600973251973,0.0008823803621334287,0.7510991406123774,-0.6594795034198907,-0.04712509736418724,0.03902937099337578,-0.998126208782196
2020-08-20 22:32:44.837 +0200,12926.624289,-0.0565643310546875,0.0140380859375,-1.011856079101562,12926.60301,-1.701711310569304,-0.04810583310073126,-0.03762061717116181,0.03354760631918907,-0.05862478166818619,-0.01125017553567886,-0.01061122864484787,-0.0175466500222683,-0.019581139087677,XArbitraryZVertical,0.03047719088576888,0.001717207540480219,0.7511961328190214,-0.6593728262646243,-0.04805325716733932,0.03761174529790878,-0.9981364011764526
2020-08-20 22:32:44.857 +0200,12926.644326,-0.0674591064453125,0.0637359619140625,-1.04315185546875,12926.623047,-1.701910059152845,-0.04912735618391908,-0.03589805829834675,0.02768306061625481,-0.03857757151126862,-0.005838062614202499,-0.01010917127132416,-0.01858051866292953,-0.01380014419555664,XArbitraryZVertical,0.0302938193971787,0.002698480504439333,0.751271835672119,-0.6592918005310151,-0.04907595738768578,0.03589034825563431,-0.9981499910354614
2020-08-20 22:32:44.877 +0200,12926.664364,-0.01190185546875,0.0348358154296875,-1.014556884765625,12926.643084,-1.700862804502732,-0.05219616343559335,-0.03493466614533547,0.0704205334186554,-0.09124850481748581,0.01251104101538658,-0.01762425526976585,0.06899122148752213,-0.02835232019424438,XArbitraryZVertical,0.03112716139173648,0.004088554479449187,0.7508938413522671,-0.659676302127267,-0.05214063078165054,0.03492756187915802,-0.9980287551879883
2020-08-20 22:32:44.897 +0200,12926.684401,-0.044464111328125,0.00335693359375,-1.0081787109375,12926.663122,-1.701147130766127,-0.05591836586236489,-0.0309591596190779,0.1423224210739136,-0.2958618402481079,-0.0008871317841112614,0.04164387658238411,0.01232248917222023,-0.01052182912826538,XArbitraryZVertical,0.03121570374783763,0.006805575984198728,0.7509896293100392,-0.6595406048062877,-0.05586244538426399,0.03095421381294727,-0.9979585409164429
2020-08-20 22:32:44.917 +0200,12926.704438,-0.0853118896484375,-0.0352935791015625,-0.976959228515625,12926.683159,-1.701205516047041,-0.0612632791847222,-0.02748198175893252,0.1900018006563187,-0.2054765373468399,-0.01975859515368938,0.01799049600958824,-0.0213143453001976,-0.007232308387756348,XArbitraryZVertical,0.032077420002244,0.009873793405948064,0.7509769776542287,-0.6594748831018602,-0.06120184436440468,0.02747852168977261,-0.9977471232414246
2020-08-20 22:32:44.937 +0200,12926.724475,-0.0599365234375,-0.00408935546875,-1.007003784179688,12926.703196,-1.701142907447929,-0.06518614240663625,-0.02436847662889503,0.04526897892355919,-0.1597348898649216,-0.01191706955432892,-0.00896114856004715,-0.04362995177507401,0.003714203834533691,XArbitraryZVertical,0.03252435914016408,0.01233819839129071,0.7509405933159888,-0.6594530087056183,-0.0651206448674202,0.02436606585979462,-0.9975798726081848
2020-08-20 22:32:44.962 +0200,12926.744512,-0.033721923828125,0.031494140625,-1.011642456054688,12926.74327,-1.699037810791053,-0.06172357856806368,-0.02592303224914692,0.04832002893090248,0.03456055372953415,0.04150088131427765,0.01779681816697121,0.007889455184340477,-0.009798169136047363,XArbitraryZVertical,0.0317251804731797,0.01064575783759322,0.75027805768728,-0.6602749827214484,-0.061663668602705,0.02592012844979763,-0.9977603554725647
2020-08-20 22:32:44.979 +0200,12926.764549,-0.023956298828125,0.00628662109375,-1.024337768554688,12926.74327,-1.699037810791053,-0.06172357856806368,-0.02592303224914692,0.04832002893090248,0.03456055372953415,0.04150088131427765,0.01779681816697121,0.007889455184340477,-0.009798169136047363,XArbitraryZVertical,0.0317251804731797,0.01064575783759322,0.75027805768728,-0.6602749827214484,-0.061663668602705,0.02592012844979763,-0.9977603554725647
2020-08-20 22:32:44.998 +0200,12926.784586,-0.1039886474609375,0.028106689453125,-0.9818878173828125,12926.763307,-1.699931438430739,-0.06174216932907081,-0.02173850095715908,0.3343608379364014,-0.1595559269189835,-0.1723626703023911,0.04406584054231644,-0.01586107164621353,-0.03251481056213379,XArbitraryZVertical,0.03035733002939629,0.01220919430198138,0.7506340505443406,-0.6599075539788337,-0.0616883710026741,0.02173678949475288,-0.9978587627410889
2020-08-20 22:32:45.017 +0200,12926.804624,-0.0445556640625,-0.0108489990234375,-1.019424438476562,12926.783344,-1.702221594655563,-0.06462765401840057,-0.0160951755734521,0.1411712616682053,-0.07365433126688004,-0.06905511021614075,-0.028945192694664,0.01320806704461575,0.01219648122787476,XArbitraryZVertical,0.02959712956058127,0.01524653932425918,0.7514247485822546,-0.6589783400755238,-0.06457430869340897,0.01609448157250881,-0.9977831244468689
2020-08-20 22:32:45.037 +0200,12926.824661,-0.03839111328125,-0.063720703125,-0.98809814453125,12926.803382,-1.704059300666766,-0.06522927392206039,-0.00913166790925562,0.4830921292304993,-0.05378235504031181,-0.2083389759063721,0.00020609050989151,-0.01462570764124393,-0.01650398969650269,XArbitraryZVertical,0.02754656345938519,0.01803681247768172,0.7521122674814549,-0.6582119928273508,-0.06518030911684036,0.009131540544331074,-0.9978317022323608
2020-08-20 22:32:45.061 +0200,12926.844698,-0.1017913818359375,-0.0254974365234375,-0.9747161865234375,12926.823419,-1.707854239319078,-0.06783998858410738,0.000889416478402437,0.4522764086723328,-0.190279483795166,-0.1469087153673172,0.03997792303562164,-0.0606316439807415,0.009521424770355225,XArbitraryZVertical,0.02527422112535816,0.02261715789158614,0.7534426293886116,-0.656638344985976,-0.06778793781995773,-0.0008894163765944541,-0.9976993799209595
2020-08-20 22:32:45.078 +0200,12926.864735,-0.1109466552734375,-0.026702880859375,-0.9928436279296875,12926.843456,-1.709295691549992,-0.06884730163501868,0.003373534419957145,-0.1702550649642944,-0.03955122083425522,-0.03924528509378433,-0.02635578066110611,-0.03237773850560188,0.02873677015304565,XArbitraryZVertical,0.02485528739156551,0.02386572876611695,0.7539299141161172,-0.6560504640936797,-0.06879253685474396,-0.003373528132215142,-0.9976252913475037
2020-08-20 22:32:45.098 +0200,12926.884772,-0.056976318359375,0.04364013671875,-1.017410278320312,12926.863493,-1.710937676657761,-0.0671448260044855,-0.002541639951015005,-0.2829929292201996,0.2395014464855194,-0.1017186716198921,-0.04692132025957108,-0.02606656774878502,0.005627334117889404,XArbitraryZVertical,0.02617132654566018,0.02105603188502979,0.7544245356022237,-0.6555267901239257,-0.06709416955709457,0.002541637280955911,-0.9977434277534485
2020-08-20 22:32:45.118 +0200,12926.904809,-0.07025146484375,0.0431976318359375,-1.01507568359375,12926.903567,-1.711827331997168,-0.06058738396694757,-0.008721417036309404,0.01841592602431774,0.04386324435472488,0.05268413946032524,-0.007041506469249725,0.0434955433011055,-0.01698082685470581,XArbitraryZVertical,0.02573042639318417,0.01656360603948076,0.7547299171219178,-0.6553215245098536,-0.06054801866412163,0.008721306920051575,-0.9981271624565125
2020-08-20 22:32:45.138 +0200,12926.924847,-0.054412841796875,0.0073699951171875,-0.9916534423828125,12926.903567,-1.711827331997168,-0.06058738396694757,-0.008721417036309404,0.01841592602431774,0.04386324435472488,0.05268413946032524,-0.007041506469249725,0.0434955433011055,-0.01698082685470581,XArbitraryZVertical,0.02573042639318417,0.01656360603948076,0.7547299171219178,-0.6553215245098536,-0.06054801866412163,0.008721306920051575,-0.9981271624565125
2020-08-20 22:32:45.157 +0200,12926.944884,-0.0531005859375,-0.00909423828125,-0.996826171875,12926.923605,-1.711521841233961,-0.06014621654369193,-0.005490326758589141,0.06074261292815208,0.04380838200449944,-0.01094204839318991,-0.0009663477540016174,0.008782532066106796,0.003376603126525879,XArbitraryZVertical,0.02450282848771929,0.01764236068178586,0.7546716521781093,-0.6554075616148414,-0.06010905280709267,0.005490299314260483,-0.9981766939163208
2020-08-20 22:32:45.179 +0200,12926.964921,-0.059722900390625,-0.0063018798828125,-0.9906463623046875,12926.943642,-1.711338087099469,-0.06131286383603284,-0.003839082867504299,0.03642422333359718,-0.002386542502790689,0.009011267684400082,0.009729016572237015,-0.01647395454347134,-0.002284467220306396,XArbitraryZVertical,0.02440031497020025,0.01865006072324457,0.7546150584388053,-0.6554486448488229,-0.06127400323748589,0.003839073469862342,-0.9981135725975037
2020-08-20 22:32:45.198 +0200,12926.984958,-0.051055908203125,-0.00762939453125,-0.990478515625,12926.963679,-1.711078153377979,-0.06198521110149247,-0.003654955277222018,0.003028980456292629,0.007654639892280102,0.01902254670858383,-0.0002870038151741028,-0.010665163397789,0.009028613567352295,XArbitraryZVertical,0.02459120126079282,0.01894307921907026,0.7545236167795181,-0.6555382977911841,-0.0619451105594635,0.00365494703873992,-0.9980728626251221
2020-08-20 22:32:45.218 +0200,12927.004995,-0.0507354736328125,-0.0242767333984375,-0.9880828857421875,12926.983716,-1.710676161414792,-0.06181020330553025,-0.003924542875772618,0.09392666071653366,-0.004142630845308304,0.02031981013715267,0.00767672061920166,-0.01188752055168152,0.005009770393371582,XArbitraryZVertical,0.02460975088546577,0.01878894846645449,0.75439106847296,-0.6556946222218518,-0.06177037581801414,0.003924532793462276,-0.99808269739151
2020-08-20 22:32:45.237 +0200,12927.025032,-0.0594329833984375,-0.00640869140625,-0.9942169189453125,12927.003753,-1.710205622957522,-0.06203047035311442,-0.003322932536478332,0.01066319830715656,-0.004127184860408306,0.02652349323034286,0.01030063629150391,-0.0236187893897295,0.01175832748413086,XArbitraryZVertical,0.02449113345669965,0.01909387196517404,0.7542406007431511,-0.6558633433828999,-0.06199035421013832,0.003322926349937916,-0.9980711936950684
2020-08-20 22:32:45.258 +0200,12927.045069,-0.065460205078125,-0.0046539306640625,-0.9971466064453125,12927.02379,-1.709540645272067,-0.06178971723552183,-0.003241945954027799,-0.02890245243906975,0.001961600966751575,0.03921539336442947,0.002072371542453766,-0.01418672874569893,0.003441751003265381,XArbitraryZVertical,0.02436745045240007,0.01905356886429869,0.754026307700026,-0.656115515574341,-0.06175008043646812,0.003241940168663859,-0.9980863928794861
2020-08-20 22:32:45.278 +0200,12927.065107,-0.053802490234375,-0.008544921875,-1.003082275390625,12927.043827,-1.708530040826005,-0.06141817503353494,-0.003822944466927867,-0.02425483800470829,0.03748124465346336,0.06350255012512207,-0.006862267851829529,-0.006250198930501938,0.001524031162261963,XArbitraryZVertical,0.02440849504752095,0.01872495204983098,0.7536929402212773,-0.6565063397891491,-0.06137911975383759,0.003822935046628118,-0.9981071949005127
2020-08-20 22:32:45.298 +0200,12927.085144,-0.0632781982421875,-0.0045623779296875,-1.002365112304688,12927.063865,-1.707483855202473,-0.06046082080928335,-0.003218842893063239,0.04677512869238853,0.03073492273688316,0.03977492451667786,0.002893678843975067,-0.01105156540870667,-0.004520952701568604,XArbitraryZVertical,0.02383968720627851,0.01865084751886147,0.753367418824185,-0.6569028941532308,-0.06042367964982986,0.00321883731521666,-0.9981676340103149
2020-08-20 22:32:45.318 +0200,12927.105181,-0.06622314453125,0.0125274658203125,-0.9991607666015625,12927.083902,-1.706551830182907,-0.0598672549429079,-0.002267209349061806,0.003069993108510971,0.01698475703597069,0.05227534472942352,-0.0007011592388153076,-0.009306073188781738,-0.002927482128143311,XArbitraryZVertical,0.02329479404449338,0.01882524296824156,0.7530781044583249,-0.6572490816880517,-0.05983134731650352,0.002267207484692335,-0.9982059001922607
2020-08-20 22:32:45.338 +0200,12927.125218,-0.055694580078125,-0.0062103271484375,-0.999420166015625,12927.103939,-1.70579459740115,-0.05936128931544905,-0.00156399608487551,0.01383275911211967,0.02602698653936386,0.02011680044233799,-0.009948708117008209,0.01081458851695061,-0.003247976303100586,XArbitraryZVertical,0.02286603112067291,0.01893243230420021,0.7528421934631477,-0.6575313183023657,-0.05932636186480522,0.001563995494507253,-0.9982374310493469
2020-08-20 22:32:45.358 +0200,12927.145255,-0.0573883056640625,-0.0023956298828125,-0.9940948486328125,12927.123976,-1.705517212569372,-0.05916691440864942,-0.001542517931452377,-0.008227534592151642,0.01240438688546419,0.004866779781877995,-0.0005388185381889343,-0.00201251357793808,0.0005321502685546875,XArbitraryZVertical,0.02278318629243906,0.01887977352720247,0.7527534222060552,-0.6576372856998001,-0.05913233011960983,0.001542517333291471,-0.9982489347457886
2020-08-20 22:32:45.380 +0200,12927.165292,-0.068572998046875,0.00079345703125,-0.9997406005859375,12927.144013,-1.705437448582517,-0.05919350182111254,-0.001775135078641238,-0.05243946984410286,-0.004384179599583149,0.01281821727752686,0.001943539828062057,-0.006220310926437378,0.005580902099609375,XArbitraryZVertical,0.02286893095288643,0.01880187249963695,0.7527245463707585,-0.657669484086491,-0.05915884673595428,0.001775134121999145,-0.9982470273971558
2020-08-20 22:32:45.398 +0200,12927.185329,-0.0544891357421875,0.0002899169921875,-0.9962310791015625,12927.16405,-1.705080383027232,-0.05903753436446126,-0.002940810431461338,-0.06227213144302368,0.02063621953129768,0.01905351504683495,-0.01160461083054543,0.000387098640203476,0.001741945743560791,XArbitraryZVertical,0.02319024535372802,0.01831598534330502,0.7525970725764668,-0.6578179667499859,-0.05900299176573753,0.002940806094557047,-0.9982534646987915
2020-08-20 22:32:45.418 +0200,12927.205367,-0.0618133544921875,0.0072021484375,-0.9956207275390625,12927.184087,-1.705193975069215,-0.05892214352701457,-0.003816322865938968,-0.04165513068437576,0.00322207435965538,-0.005963078700006008,0.0008874461054801941,-0.004229627549648285,0.001699924468994141,XArbitraryZVertical,0.02343577961315256,0.0179472195487908,0.7526267209018486,-0.6577854056447765,-0.05888762697577477,0.003816313575953245,-0.9982573390007019
2020-08-20 22:32:45.438 +0200,12927.225404,-0.0610504150390625,0.0072479248046875,-1.00396728515625,12927.204125,-1.705106945529444,-0.05906452628364971,-0.004947416372097,-0.06622665375471115,-0.004326389171183109,0.01883277669548988,-0.00100461021065712,0.0002903081476688385,0.003975808620452881,XArbitraryZVertical,0.02386055079743015,0.01756939710114831,0.752584506472921,-0.6578286592899045,-0.0590294674038887,0.004947395995259285,-0.9982439875602722
2020-08-20 22:32:45.458 +0200,12927.245441,-0.058685302734375,-0.001068115234375,-1.004562377929688,12927.224162,-1.704966820352373,-0.0588669586397657,-0.005282735957661615,-0.01665723882615566,0.00752281304448843,0.001752136973664165,-0.00555969774723053,0.002300195395946503,-0.007779121398925781,XArbitraryZVertical,0.02389526117018644,0.0173798937886025,0.7525372030293165,-0.6578866094800839,-0.05883214622735977,0.005282711237668991,-0.9982538819313049
2020-08-20 22:32:45.480 +0200,12927.265478,-0.0537567138671875,-0.0035247802734375,-0.99609375,12927.244199,-1.704859755804686,-0.05894728834630912,-0.005694465299917346,-0.02899979241192341,0.01031114254146814,0.01184026710689068,-0.0005383193492889404,-0.003942618146538734,-0.0055580735206604,XArbitraryZVertical,0.0240599757703016,0.01725266333845073,0.7524966010287129,-0.6579303293630876,-0.05891220271587372,0.005694434512406588,-0.9982469081878662
2020-08-20 22:32:45.499 +0200,12927.285515,-0.052978515625,0.0043487548828125,-0.99151611328125,12927.264236,-1.704832266766506,-0.05889549426736343,-0.005327510981457254,0.04438667371869087,-0.003231829963624477,-0.004730415530502796,0.002295635640621185,-0.0122237540781498,0.0007639527320861816,XArbitraryZVertical,0.02391955677410739,0.01737403969709105,0.7524921174514158,-0.6579373923648169,-0.05886061489582062,0.005327485967427492,-0.9982519745826721
2020-08-20 22:32:45.518 +0200,12927.305552,-0.0608367919921875,-0.0020599365234375,-0.9942779541015625,12927.284273,-1.705009949216642,-0.05928350550858131,-0.004563785516526085,-0.009688678197562695,-0.02674541249871254,-0.01918099448084831,0.005432762205600739,-0.0007267501205205917,0.004911065101623535,XArbitraryZVertical,0.02381592738567768,0.01778695248962267,0.7525540703617116,-0.6578592585828219,-0.05924816802144051,0.004563769791275263,-0.9982328414916992
2020-08-20 22:32:45.538 +0200,12927.32559,-0.05621337890625,-0.0054779052734375,-0.995574951171875,12927.30431,-1.70525002606868,-0.05988451379797014,-0.00640741464941258,-0.1495247334241867,-0.002443534322082996,-0.002596500795334578,-0.002470772713422775,-0.005701113492250443,0.004500448703765869,XArbitraryZVertical,0.02465046087692627,0.01728788324040626,0.7526057812985033,-0.6577826823402194,-0.05984750017523766,0.006407370790839195,-0.9981869459152222
2020-08-20 22:32:45.558 +0200,12927.345627,-0.0565338134765625,0.018463134765625,-1.013351440429688,12927.324348,-1.70514805260195,-0.05946248886273908,-0.009746407184877126,-0.1767274588346481,0.05503227561712265,0.04160147160291672,3.41758131980896e-05,-0.01500735618174076,0.003354310989379883,XArbitraryZVertical,0.02558873839949755,0.01589367352492769,0.7525396945778533,-0.6578576246016696,-0.05942463129758835,0.009746252559125423,-0.9981852173805237
2020-08-20 22:32:45.580 +0200,12927.365664,-0.05987548828125,0.0287628173828125,-1.00811767578125,12927.344385,-1.704015024068593,-0.05805903483105108,-0.01249158101289814,-0.1123450100421906,0.07893494516611099,0.08163182437419891,0.001147761940956116,0.002720221877098083,-0.009977340698242188,XArbitraryZVertical,0.02595516105052337,0.01441351867773956,0.752152673949137,-0.6583197329102302,-0.05802189558744431,0.01249125599861145,-0.998237133026123
2020-08-20 22:32:45.599 +0200,12927.385701,-0.036468505859375,-0.0108489990234375,-1.003265380859375,12927.364422,-1.701827179875802,-0.05737967928451661,-0.01164366340040372,0.1299042403697968,0.04192685708403587,0.1060684248805046,-0.007595539093017578,0.01283385790884495,-0.01763516664505005,XArbitraryZVertical,0.02540479166001454,0.01453668533015617,0.7514507844198441,-0.6591395816333604,-0.05734430998563766,0.01164340041577816,-0.9982865452766418
2020-08-20 22:32:45.619 +0200,12927.405738,-0.051513671875,-0.0213165283203125,-0.99774169921875,12927.384459,-1.701212923886795,-0.05666782168827709,-0.01043836926907418,0.0001000361517071724,0.01575730741024017,-0.009960826486349106,0.01564279943704605,-0.008780423551797867,-0.003010869026184082,XArbitraryZVertical,0.02473570624273203,0.01476266916703173,0.7512710648275022,-0.6593648824825296,-0.05663441121578217,0.01043817959725857,-0.9983404278755188
2020-08-20 22:32:45.638 +0200,12927.42577475,-0.0618743896484375,-0.001678466796875,-1.0037841796875,12927.404496,-1.701058960875728,-0.05712369602234808,-0.00998538073022264,0.01124270167201757,-0.02534965053200722,0.01609169878065586,0.007615141570568085,-0.03438854217529297,-0.001261472702026367,XArbitraryZVertical,0.02475649729187085,0.0150850693947989,0.7512197769712454,-0.6594151697242077,-0.05708978697657585,0.009985215030610561,-0.9983190894126892
2020-08-20 22:32:45.659 +0200,12927.44581175,-0.0542144775390625,0.01287841796875,-1.0079345703125,12927.42453275,-1.700820219815118,-0.05715190735864339,-0.01029787480072994,-0.04306820780038834,0.01790967583656311,0.01298622600734234,-0.008242160081863403,-0.01471738144755363,-0.003249764442443848,XArbitraryZVertical,0.02486830054707473,0.01497993487894518,0.7511371750408653,-0.6595075659809968,-0.0571177713572979,0.01029769238084555,-0.9983143210411072
2020-08-20 22:32:45.678 +0200,12927.46584975,-0.050079345703125,0.0068817138671875,-1.010513305664062,12927.44456975,-1.700498207534295,-0.05684762692107145,-0.01140967411086886,-0.02669629268348217,0.0251457467675209,0.01520190015435219,-0.0007855072617530823,0.000166749581694603,-0.008554697036743164,XArbitraryZVertical,0.02511819180708131,0.01446597202278756,0.7510220567725057,-0.6596405294093562,-0.0568133145570755,0.01140942610800266,-0.9983196258544922
2020-08-20 22:32:45.698 +0200,12927.48588675,-0.0564727783203125,0.0072784423828125,-1.007949829101562,12927.46460775,-1.700348546935319,-0.05629166593170036,-0.01174022608087328,0.01039848010987043,0.002658549696207047,0.002169834449887276,0.00400213897228241,-0.001801272854208946,-0.01203751564025879,XArbitraryZVertical,0.0250173446626503,0.01416031416244856,0.750975859916982,-0.659703598428637,-0.05625806376338005,0.01173995621502399,-0.9983472228050232
2020-08-20 22:32:45.718 +0200,12927.50592375,-0.059600830078125,0.0019073486328125,-1.001129150390625,12927.48464475,-1.700375501672809,-0.05599655190827445,-0.01061474772018962,0.01553971134126186,0.00120792631059885,-0.007411571685224771,-9.71965491771698e-05,-0.005151774734258652,-0.008926987648010254,XArbitraryZVertical,0.02453561923745778,0.01448536521955953,0.7510011948561393,-0.6596858479768575,-0.05596413835883141,0.01061454880982637,-0.9983763694763184
2020-08-20 22:32:45.738 +0200,12927.52596075,-0.0517730712890625,0.0018768310546875,-0.9918365478515625,12927.50468175,-1.700554450164161,-0.05602826384295014,-0.009935356980079683,0.001950799953192472,0.01554585341364145,-0.006474710069596767,-0.005528807640075684,-0.006004534661769867,-0.002940535545349121,XArbitraryZVertical,0.02432483153525328,0.01474882550399024,0.7510674101948341,-0.6596123354114521,-0.05599619075655937,0.009935193695127964,-0.9983815550804138
2020-08-20 22:32:45.758 +0200,12927.54599775,-0.0460052490234375,0.0040130615234375,-0.9969635009765625,12927.52471875,-1.700747823638272,-0.05575553216410126,-0.0100119549639487,-0.02165399491786957,0.02282453700900078,-0.008923714980483055,-8.573755621910095e-05,-0.008245455101132393,0.005664169788360596,XArbitraryZVertical,0.02424907861601633,0.01462776043723046,0.7511336494563616,-0.659542458650593,-0.05572385713458061,0.01001178752630949,-0.9983960390090942
2020-08-20 22:32:45.798 +0200,12927.56603475,-0.0482635498046875,0.0075531005859375,-0.9898834228515625,12927.54475575,-1.701053794912534,-0.05528613227298117,-0.010538545746862,-0.01912106387317181,0.002338171936571598,-0.0215290654450655,0.007547300308942795,-0.006848009303212166,0.001960992813110352,XArbitraryZVertical,0.0242485706529269,0.01427143577197633,0.7512343951048533,-0.6594355183738981,-0.05525490269064903,0.01053835079073906,-0.9984166622161865
2020-08-20 22:32:45.810 +0200,12927.58607175,-0.062652587890625,-0.005645751953125,-0.9900970458984375,12927.56479275,-1.701612592954311,-0.05564257612574287,-0.01067275790988994,-0.01216688379645348,-0.03611734136939049,-0.03660936653614044,0.006762683391571045,-0.00186626985669136,0.007982969284057617,XArbitraryZVertical,0.02443070016343801,0.01433171066056148,0.7514127759877973,-0.6592241741220115,-0.05561070144176483,0.01067255530506372,-0.9983955025672913
2020-08-20 22:32:45.818 +0200,12927.60610975,-0.068267822265625,0.0160980224609375,-0.9858856201171875,12927.58482975,-1.702947094985266,-0.05689181957638975,-0.01067610200601897,0.00632703909650445,-0.05939896404743195,-0.05387718975543976,-0.005869295448064804,-0.02172119729220867,0.001826643943786621,XArbitraryZVertical,0.0249109757266722,0.01472559868321036,0.7518370298455868,-0.6587136592276503,-0.05685789510607719,0.01067589875310659,-0.9983252286911011
2020-08-20 22:32:45.839 +0200,12927.62614675,-0.0665130615234375,0.0010223388671875,-0.9884796142578125,12927.60486775,-1.704019427097235,-0.05761518568809756,-0.009899986876583179,0.04536005854606628,-0.02364975214004517,-0.06139723211526871,-0.01307360455393791,0.004253106191754341,0.01619863510131836,XArbitraryZVertical,0.02493554687989204,0.01524230615214072,0.7521899040679918,-0.6582980298037941,-0.05758049339056015,0.009899824857711792,-0.9982917904853821
2020-08-20 22:32:45.859 +0200,12927.64618375,-0.0640411376953125,-0.019989013671875,-1.001068115234375,12927.62490475,-1.705332299955158,-0.0580921647002707,-0.008272995650865008,0.07273176312446594,-0.04624587669968605,-0.07322855293750763,-0.007988274097442627,-0.0006106514483690262,0.0107235312461853,XArbitraryZVertical,0.02459008878472084,0.01599521166935166,0.7526342293540879,-0.6577851178161095,-0.0580575093626976,0.008272901177406311,-0.9982789754867554
2020-08-20 22:32:45.879 +0200,12927.66622075,-0.056640625,-0.010833740234375,-0.9964447021484375,12927.64494175,-1.706817715521753,-0.058618784588707,-0.007203430404458041,0.0293549932539463,-0.03895626962184906,-0.07543247193098068,-0.008409544825553894,-0.02491980046033859,-0.001108467578887939,XArbitraryZVertical,0.024448887506801,0.01655283411547219,0.7531279249839169,-0.6572113213474223,-0.05858369916677475,0.007203368004411459,-0.998256504535675
2020-08-20 22:32:45.899 +0200,12927.68625775,-0.0607757568359375,0.007965087890625,-1.001449584960938,12927.66497875,-1.708184778905607,-0.05961006293827421,-0.006757378725811937,-0.01464428938925266,-0.0496978648006916,-0.06391924619674683,-0.0002795159816741943,-0.02074947021901608,0.001553893089294434,XArbitraryZVertical,0.02468727306335422,0.01702969633512382,0.75356970887856,-0.6566835842040585,-0.05957340821623802,0.006757327355444431,-0.9982010722160339
2020-08-20 22:32:45.919 +0200,12927.70629475,-0.06695556640625,0.014251708984375,-1.003402709960938,12927.68501575,-1.709483418235378,-0.06107455081995636,-0.006964365368896173,-0.0001363195478916168,-0.06813466548919678,-0.06588614732027054,-5.422532558441162e-05,-0.00213581882417202,-0.004239797592163086,XArbitraryZVertical,0.02531832292889851,0.0174161064111456,0.7539753159147556,-0.6561836230422118,-0.06103510782122612,0.006964309141039848,-0.9981113076210022
2020-08-20 22:32:45.939 +0200,12927.72633175,-0.0572967529296875,0.0018768310546875,-1.008331298828125,12927.70505275,-1.710857461836984,-0.06264730471265285,-0.006738128401965424,0.03328315541148186,-0.05694086477160454,-0.06754643470048904,-0.00631607323884964,0.008230352774262428,-0.005736291408538818,XArbitraryZVertical,0.02584939014976516,0.01799965601311657,0.7544084126140459,-0.6556491479830784,-0.06260491162538528,0.006738077383488417,-0.9980156421661377
2020-08-20 22:32:45.959 +0200,12927.74636975,-0.049530029296875,0.005096435546875,-1.012176513671875,12927.72508975,-1.712071233249782,-0.06358701895576914,-0.005398558848545123,0.04099167510867119,-0.03513676673173904,-0.06071371212601662,0.001672670245170593,-0.001611398532986641,-0.009280085563659668,XArbitraryZVertical,0.02577622791718542,0.0187974487563192,0.7548094341311048,-0.6551679332568772,-0.06354325264692307,0.005398532841354609,-0.9979645013809204
2020-08-20 22:32:45.979 +0200,12927.76640675,-0.061004638671875,0.0048065185546875,-1.006912231445312,12927.74512775,-1.713213202655836,-0.06446555123649143,-0.003970791859368044,0.0444192960858345,-0.06176970899105072,-0.0590951219201088,0.01413403078913689,-0.0009765047580003738,-0.01318854093551636,XArbitraryZVertical,0.02565136946769535,0.01960951081611515,0.7551883306710134,-0.6547121966327669,-0.06442040205001831,0.003970781341195107,-0.9979149699211121
2020-08-20 22:32:45.999 +0200,12927.78644375,-0.0611419677734375,0.001129150390625,-1.005172729492188,12927.76516475,-1.714288664202243,-0.0656923922856729,-0.002944259846868002,0.04237891733646393,-0.06691546738147736,-0.05014423280954361,0.00613393634557724,0.003694912418723106,-0.009630739688873291,XArbitraryZVertical,0.02578959012182321,0.02038490159449741,0.7555361001660763,-0.6542816993136992,-0.06564486771821976,0.002944255480542779,-0.9978386759757996
2020-08-20 22:32:46.019 +0200,12927.80648075,-0.0501861572265625,0.0024871826171875,-1.00537109375,12927.78520175,-1.714930513010844,-0.06669713613607889,-0.002431126680612838,0.03080761432647705,-0.02965757995843887,-0.02351821772754192,0.001596428453922272,-0.002537315711379051,-0.009464919567108154,XArbitraryZVertical,0.02600800751028127,0.02089910420738808,0.7557388442687666,-0.6540226888245981,-0.06664749979972839,0.002431124215945601,-0.9977736473083496
2020-08-20 22:32:46.057 +0200,12927.82651775,-0.05242919921875,0.0013580322265625,-1.010406494140625,12927.80523875,-1.715250783923322,-0.06706707021442898,-0.002191083763816868,0.01155415922403336,-0.02560131624341011,-0.01114935707300901,0.01265031099319458,0.0007621515542268753,-0.008816897869110107,XArbitraryZVertical,0.02607268556544244,0.0211066120771744,0.7558414787755763,-0.6538948144364245,-0.06701664626598358,0.002191082108765841,-0.9977494478225708
2020-08-20 22:32:46.071 +0200,12927.84655475,-0.0597381591796875,0.003997802734375,-1.004867553710938,12927.82527575,-1.715419895531857,-0.06722863218514839,-0.00203732226496128,0.002422179561108351,-0.03075719624757767,-0.01037768647074699,0.01364566385746002,-0.0007674191147089005,-0.0105971097946167,XArbitraryZVertical,0.02608527002500008,0.0212153417709032,0.7558964083026952,-0.6538272771178977,-0.06717786192893982,0.002037320751696825,-0.9977389574050903
2020-08-20 22:32:46.079 +0200,12927.86659275,-0.0582427978515625,0.0002593994140625,-0.9981231689453125,12927.84531275,-1.715485355668198,-0.06744509396215917,-0.00214369232606953,0.006960605271160603,-0.02069550752639771,0.003703511320054531,0.006850995123386383,0.001601498574018478,-0.008536219596862793,XArbitraryZVertical,0.02620254828090652,0.02124504362936686,0.7559137630505314,-0.6538015323736948,-0.06739381700754166,0.002143690595403314,-0.997724175453186
2020-08-20 22:32:46.099 +0200,12927.88662975,-0.0518035888671875,0.0055999755859375,-1.00054931640625,12927.86535075,-1.715265660609853,-0.06740594271291613,-0.002021886308584596,-0.004269812256097794,0.001829774118959904,0.01698195561766624,0.004829525947570801,0.000819183886051178,0.00147634744644165,XArbitraryZVertical,0.02614559587453343,0.02128115771534473,0.7558438483907051,-0.6538835333229852,-0.06735477596521378,0.002021885011345148,-0.9977270364761353
2020-08-20 22:32:46.119 +0200,12927.90666675,-0.0543670654296875,0.0059967041015625,-1.003265380859375,12927.88538775,-1.714940300941142,-0.06711645495406268,-0.002232809142478602,-0.01439395174384117,-0.005910171195864677,0.0190114751458168,0.01248437911272049,0.001332096755504608,-0.004913985729217529,XArbitraryZVertical,0.02610171485425523,0.02111104052813993,0.7557388340637174,-0.6540120790353947,-0.06706590950489044,0.002232807222753763,-0.9977460503578186
2020-08-20 22:32:46.139 +0200,12927.92670375,-0.0637054443359375,0.0152130126953125,-0.9931793212890625,12927.90542475,-1.714638152491737,-0.06695502493899978,-0.00244492781258787,0.004908506758511066,-0.0160051491111517,0.01536732073873281,0.0106651708483696,0.001965925097465515,-0.006445109844207764,XArbitraryZVertical,0.02610690113342085,0.02098203778559211,0.7556397145777465,-0.6541306317693257,-0.06690481305122375,0.002444925485178828,-0.9977563619613647
2020-08-20 22:32:46.160 +0200,12927.94674075,-0.0671539306640625,-0.00836181640625,-0.9835205078125,12927.92546175,-1.714344221122663,-0.0671501907799812,-0.002347380259778967,0.0182713158428669,-0.02801653742790222,0.01366963144391775,0.003468498587608337,0.01503035798668861,0.00121760368347168,XArbitraryZVertical,0.02614563988188492,0.02108657012409487,0.7555421333974502,-0.6542383857072168,-0.06709954887628555,0.002347378060221672,-0.997743546962738
2020-08-20 22:32:46.180 +0200,12927.96677775,-0.0630950927734375,-0.01898193359375,-0.966033935546875,12927.94549875,-1.713898781031621,-0.06726567151284714,-0.001907564371411377,0.0204994510859251,-0.006066498346626759,0.02943291887640953,-0.001638360321521759,-0.00741666741669178,0.01189213991165161,XArbitraryZVertical,0.02604066616613481,0.02129630630424948,0.7553999034720135,-0.6543998999522628,-0.06721483170986176,0.001907563186250627,-0.9977366924285889
2020-08-20 22:32:46.200 +0200,12927.98681475,-0.056365966796875,-0.016387939453125,-0.947479248046875,12927.96553575,-1.713381220433147,-0.06696365746412702,-0.002331485034218875,-0.05850135907530785,0.006552090868353844,0.01940516754984856,0.002189658582210541,-0.01986636407673359,0.02904653549194336,XArbitraryZVertical,0.02605984644905229,0.02104410659934424,0.7552296396178509,-0.6546037996591597,-0.06691344082355499,0.002331482945010066,-0.9977560639381409
2020-08-20 22:32:46.219 +0200,12928.00685275,-0.0524444580078125,-0.0030517578125,-0.9276275634765625,12927.98557275,-1.713105950358439,-0.0664519626186342,-0.004082853261559256,-0.1026174202561378,0.008527358062565327,0.01620107889175415,0.005646906793117523,-0.02093669958412647,0.04712527990341187,XArbitraryZVertical,0.02643700647792098,0.02021886558013026,0.7551260683206171,-0.654734243266484,-0.06640250980854034,0.004082841798663139,-0.9977845549583435
2020-08-20 22:32:46.240 +0200,12928.02688975,-0.0613250732421875,-0.019683837890625,-0.89202880859375,12928.00561075,-1.713164497823721,-0.06642005322631399,-0.006737082507466349,-0.1308184266090393,-0.02361593022942543,-0.01330316904932261,0.01130666583776474,-0.01120833121240139,0.06505781412124634,XArbitraryZVertical,0.02729426607822427,0.01920534629526689,0.7551140888379864,-0.6547435014040418,-0.06636971980333328,0.006737031508237123,-0.9977723360061646
2020-08-20 22:32:46.259 +0200,12928.04692675,-0.0803985595703125,-0.045654296875,-0.8390350341796875,12928.02564775,-1.713981766073056,-0.06758758233474946,-0.009643183965259627,-0.1982021331787109,-0.07424768060445786,-0.04793103784322739,0.006985753774642944,-0.02455096319317818,0.09924560785293579,XArbitraryZVertical,0.0286937037238995,0.01847840261464631,0.7553288696544213,-0.6544567545609404,-0.06753299385309219,0.00964303407818079,-0.9976704120635986
2020-08-20 22:32:46.279 +0200,12928.06696375,-0.08843994140625,-0.0884246826171875,-0.7442779541015625,12928.04568475,-1.715731099780159,-0.06939768010319758,-0.01404805925613608,-0.3294136822223663,-0.09862226247787476,-0.09367296099662781,-0.01032731682062149,-0.05496973916888237,0.1460875868797302,XArbitraryZVertical,0.03083325303206418,0.01737971269771839,0.7558148720850056,-0.6538279924346617,-0.06933514773845673,0.01404759753495455,-0.9974945187568665
2020-08-20 22:32:46.299 +0200,12928.08700075,-0.0789642333984375,-0.1656036376953125,-0.6233062744140625,12928.06572175,-1.718782751153292,-0.07142292793403514,-0.02279832652958537,-0.6188532114028931,-0.08341481536626816,-0.1448901742696762,-0.01968909054994583,-0.09820123016834259,0.2342948913574219,XArbitraryZVertical,0.03447956732203057,0.01468094317474611,0.7566474954485336,-0.6527481764986323,-0.07134367525577545,0.02279635146260262,-0.9971912503242493
2020-08-20 22:32:46.319 +0200,12928.10703775,-0.06500244140625,-0.241302490234375,-0.481903076171875,12928.08575875,-1.723474559954714,-0.07302066544998248,-0.03944350235715269,-1.126423478126526,-0.07226016372442245,-0.2101624459028244,-0.01047723740339279,-0.1857076734304428,0.3508705496788025,XArbitraryZVertical,0.04053071459764042,0.00880533377437777,0.757852888651935,-0.6511058504146172,-0.07289904356002808,0.03943327441811562,-0.9965594410896301
2020-08-20 22:32:46.340 +0200,12928.12707475,-0.069793701171875,-0.2375030517578125,-0.342681884765625,12928.10579575,-1.730985257630241,-0.07484826480942033,-0.06826472621007201,-1.822042465209961,-0.06847554445266724,-0.3324482440948486,0.005624063313007355,-0.2973921597003937,0.4822222590446472,XArbitraryZVertical,0.05057907407838347,-0.00172467486100611,0.7596106659465839,-0.648406056774479,-0.07460422813892365,0.06821171939373016,-0.9948775768280029
2020-08-20 22:32:46.360 +0200,12928.14711275,-0.07476806640625,-0.1296844482421875,-0.262115478515625,12928.12583275,-1.742882387636759,-0.07673910822767857,-0.1108909689086649,-2.470507383346558,-0.05228779092431068,-0.5337718725204468,0.003866605460643768,-0.3515474796295166,0.629998505115509,XArbitraryZVertical,0.06495733893687454,-0.01772171078023469,0.7621506744200338,-0.6438888572904919,-0.0761929377913475,0.1106638386845589,-0.9909329414367676
2020-08-20 22:32:46.380 +0200,12928.16714975,-0.0916900634765625,-0.034942626953125,-0.2594757080078125,12928.14587075,-1.759686290498089,-0.08002514224340286,-0.1654264708296374,-3.14844536781311,-0.03800392523407936,-0.7141376733779907,0.002684414386749268,-0.3130428194999695,0.7097213268280029,XArbitraryZVertical,0.08333023064519469,-0.03821347628715416,0.7652834499085676,-0.6371319984416157,-0.07884843647480011,0.1646730005741119,-0.9831916093826294
2020-08-20 22:32:46.400 +0200,12928.18718675,-0.127838134765625,0.019775390625,-0.244110107421875,12928.16590775,-1.783425297752569,-0.0863885321872669,-0.2354905358979747,-3.983436107635498,-0.1657291352748871,-1.050520777702332,-0.007576040923595428,-0.2759718894958496,0.7124527096748352,XArbitraryZVertical,0.1070823481774677,-0.06439324050604155,0.7688539188117897,-0.6270969134722802,-0.08389975875616074,0.2333200126886368,-0.9687737822532654
2020-08-20 22:32:46.420 +0200,12928.20722375,-0.2203826904296875,0.089630126953125,-0.196319580078125,12928.18594475,-1.817741807224641,-0.1015002236831325,-0.3187424747018688,-4.531173706054688,-0.417378157377243,-1.470491766929626,-0.02451303601264954,-0.2958593368530273,0.700000524520874,XArbitraryZVertical,0.1369236262655848,-0.09423662347948276,0.7728630409692775,-0.6124166531502816,-0.09622226655483246,0.3133726119995117,-0.944742739200592
2020-08-20 22:32:46.440 +0200,12928.22726075,-0.3558349609375,0.178955078125,-0.1503143310546875,12928.20598175,-1.865711788005956,-0.1302183677111121,-0.4072394561358302,-4.701440811157227,-0.7455373406410217,-1.952690601348877,-0.08217287063598633,-0.3083497583866119,0.7043384313583374,XArbitraryZVertical,0.1713597955240267,-0.1241530447639455,0.777225801912596,-0.5925723707392612,-0.119231179356575,0.3960760533809662,-0.9104436635971069
2020-08-20 22:32:46.460 +0200,12928.24729775,-0.544830322265625,0.28973388671875,-0.214508056640625,12928.22601875,-1.929117824767367,-0.1755886170787463,-0.4921040194954103,-4.508802890777588,-1.002906918525696,-2.416356801986694,-0.1782430112361908,-0.2976515889167786,0.7197349667549133,XArbitraryZVertical,0.208136800738658,-0.1509454387304039,0.781807772208579,-0.5680414406161465,-0.1539594084024429,0.4724812805652618,-0.867789089679718
2020-08-20 22:32:46.480 +0200,12928.26733475,-0.750946044921875,0.40008544921875,-0.3647308349609375,12928.24605575,-2.01279770931706,-0.2412644841884571,-0.5669913106397697,-4.26838493347168,-1.387006044387817,-3.201489925384521,-0.3189782202243805,-0.2448356151580811,0.6183922290802002,XArbitraryZVertical,0.2461512402839104,-0.1728143287702178,0.7872847718268449,-0.5382634118054828,-0.2015429884195328,0.5370966196060181,-0.8190895318984985
2020-08-20 22:32:46.500 +0200,12928.28737275,-0.9324798583984375,0.6490936279296875,-0.533477783203125,12928.26609275,-2.122557990765114,-0.3300159983429559,-0.6243190430850811,-3.664083480834961,-1.240402221679688,-3.855410814285278,-0.4517499804496765,-0.1982993483543396,0.4516890048980713,XArbitraryZVertical,0.2842281848404796,-0.1882162370703876,0.7949008505819259,-0.5019178739481176,-0.2629282772541046,0.5845448970794678,-0.7675779461860657
2020-08-20 22:32:46.520 +0200,12928.30740975,-1.019805908203125,0.8686676025390625,-0.5092620849609375,12928.28613075,-2.246354233431785,-0.4264538864456758,-0.6561518761494686,-2.975602626800537,-1.05877411365509,-4.123462200164795,-0.5836966633796692,-0.001034379005432129,0.2311121225357056,XArbitraryZVertical,0.3168978184718296,-0.1971923477223303,0.8045592935607079,-0.4619256475998844,-0.3277497589588165,0.6100723147392273,-0.7213819026947021
2020-08-20 22:32:46.557 +0200,12928.32744675,-1.192062377929688,0.6242523193359375,-0.2655792236328125,12928.30616775,-2.375402574626535,-0.5361124083924032,-0.6700023133210196,-3.069620609283447,-2.160855770111084,-4.281655311584473,-0.6078071594238281,0.2518690228462219,0.148418128490448,XArbitraryZVertical,0.3505056628382845,-0.2005499622845651,0.8121204390472003,-0.4211720162127203,-0.4003735482692719,0.6209877729415894,-0.6738510131835938
2020-08-20 22:32:46.569 +0200,12928.34748375,-1.401885986328125,0.376983642578125,-0.1346282958984375,12928.34624175,-2.652628078738236,-0.8133646127775842,-0.6380175111477437,-2.955379962921143,-2.329007863998413,-4.471736907958984,-0.7810230255126953,-0.18985915184021,0.4525494575500488,XArbitraryZVertical,0.4341600158457584,-0.1885627953978169,0.8161371821515711,-0.331465237982337,-0.5836642384529114,0.5956041216850281,-0.5518983006477356
2020-08-20 22:32:46.580 +0200,12928.36752075,-1.646194458007812,0.647430419921875,-0.0679473876953125,12928.34624175,-2.652628078738236,-0.8133646127775842,-0.6380175111477437,-2.955379962921143,-2.329007863998413,-4.471736907958984,-0.7810230255126953,-0.18985915184021,0.4525494575500488,XArbitraryZVertical,0.4341600158457584,-0.1885627953978169,0.8161371821515711,-0.331465237982337,-0.5836642384529114,0.5956041216850281,-0.5518983006477356
2020-08-20 22:32:46.600 +0200,12928.38755775,-1.719192504882812,0.91131591796875,-0.091644287109375,12928.36627875,-2.783405101497585,-0.9317836425931234,-0.6182968203444313,-4.010792255401611,-1.806903481483459,-3.937860488891602,-0.974506676197052,0.01513671875,0.4236987233161926,XArbitraryZVertical,0.469500852115392,-0.1912441689437219,0.8131076882345591,-0.2860952518317774,-0.654081404209137,0.5796481370925903,-0.4859892427921295
2020-08-20 22:32:46.620 +0200,12928.40759475,-1.694259643554688,0.9417572021484375,-0.1958770751953125,12928.38631575,-2.930511101303475,-1.047145027053204,-0.6038563622075239,-5.169862747192383,-1.342624664306641,-3.880595207214355,-1.028026223182678,0.3324978947639465,0.3528051972389221,XArbitraryZVertical,0.5018337045595457,-0.2058062094615867,0.8066002933843374,-0.2349526945181795,-0.712848961353302,0.5678210854530334,-0.4116134643554688
2020-08-20 22:32:46.640 +0200,12928.42763275,-1.698089599609375,0.9828643798828125,-0.228912353515625,12928.40635275,-3.087901367666086,-1.160257525562489,-0.5820089329549536,-5.324619293212891,-1.201058745384216,-3.930579900741577,-0.9571382403373718,0.40981125831604,0.173210084438324,XArbitraryZVertical,0.5313383310128981,-0.2257920499531897,0.7967168653677329,-0.1787171634078271,-0.7659465670585632,0.5497032403945923,-0.3333950638771057
2020-08-20 22:32:46.660 +0200,12928.44766975,-1.6787109375,1.076675415039062,-0.2322540283203125,12928.42639075,3.049355306391658,-1.262685977223051,-0.5435669800599449,-4.752984523773193,-1.207220792770386,-3.966914176940918,-0.9006209969520569,0.4676761627197266,0.05944937467575073,XArbitraryZVertical,0.5579692081780923,-0.2426840156371423,0.7840828741147277,-0.1224291423253142,-0.8155649900436401,0.5171921253204346,-0.2595496773719788
2020-08-20 22:32:46.680 +0200,12928.46770675,-1.532455444335938,1.096908569335938,-0.2042388916015625,12928.44642775,2.933060715284459,-1.34371258719984,-0.4886926092727256,-3.445865154266357,-1.104743957519531,-3.980628967285156,-0.862356424331665,0.6073925495147705,-0.01260769367218018,XArbitraryZVertical,0.5809643924558301,-0.2511737741287985,0.7709669166871237,-0.07072601451163545,-0.8602796196937561,0.4694719314575195,-0.1987842172384262
2020-08-20 22:32:46.700 +0200,12928.48774375,-1.388992309570312,1.012069702148438,-0.1529998779296875,12928.46646475,2.855647665241096,-1.400352717855432,-0.4216609414144263,-2.084345102310181,-1.141488432884216,-3.939646482467651,-0.6923535466194153,0.706714391708374,-0.0316314697265625,XArbitraryZVertical,0.6008531823329901,-0.2481816613330268,0.7593791142120496,-0.02691883625343432,-0.8991891741752625,0.4092764854431152,-0.1547626256942749
2020-08-20 22:32:46.720 +0200,12928.50778075,-1.281936645507812,0.915374755859375,-0.1198577880859375,12928.48650175,2.810526132618637,-1.441326296057035,-0.3494542777519816,-0.9974988698959351,-1.232917904853821,-3.783897876739502,-0.5108201503753662,0.7001241445541382,-0.01038044691085815,XArbitraryZVertical,0.61942994272203,-0.2359108216529766,0.7487159338003441,0.008778444237452481,-0.9316959977149963,0.3423851132392883,-0.1213052570819855
2020-08-20 22:32:46.740 +0200,12928.52781775,-1.207534790039062,0.82000732421875,-0.1388092041015625,12928.50653875,2.790502533139187,-1.473034067999918,-0.2786414413743411,-0.129308819770813,-1.291608095169067,-3.433506727218628,-0.3727335929870605,0.6672000288963318,0.001675903797149658,XArbitraryZVertical,0.6370131362757021,-0.217470235411018,0.7386507156124811,0.03627817356614661,-0.9568392634391785,0.2750497460365295,-0.09384192526340485
2020-08-20 22:32:46.760 +0200,12928.54785475,-1.149383544921875,0.6904754638671875,-0.160858154296875,12928.52657575,2.78893122685889,-1.499419471147761,-0.2142564662824029,0.4731570780277252,-1.295332789421082,-2.976448059082031,-0.2754573822021484,0.6333087086677551,-0.03441125154495239,XArbitraryZVertical,0.6532867504519404,-0.1958918548086044,0.7291884985901269,0.05591971705665323,-0.9746468067169189,0.2126209586858749,-0.06968560814857483
2020-08-20 22:32:46.780 +0200,12928.56789275,-1.104934692382812,0.525970458984375,-0.1720123291015625,12928.54661275,2.7984425891587,-1.523530325154964,-0.1586720315005956,0.7222253084182739,-1.292107462882996,-2.501291990280151,-0.20456862449646,0.5659860372543335,-0.07827377319335938,XArbitraryZVertical,0.668135135483588,-0.1739770237131867,0.720090562472989,0.06926096310768048,-0.9863352179527283,0.1580070555210114,-0.04665487259626389
2020-08-20 22:32:46.801 +0200,12928.58792975,-1.061370849609375,0.380279541015625,-0.0875701904296875,12928.56665075,2.809571916058798,-1.546557000148477,-0.1136743832548904,0.4966918230056763,-1.19358229637146,-1.964576363563538,-0.1492997407913208,0.4467842876911163,-0.1159726977348328,XArbitraryZVertical,0.6810521795735662,-0.1553308211916334,0.711203222204563,0.07893215608440136,-0.9932541847229004,0.1134297251701355,-0.02408052980899811
2020-08-20 22:32:46.820 +0200,12928.60796675,-1.014266967773438,0.3009490966796875,-0.0702667236328125,12928.58668775,2.81350802800515,-1.568567415019166,-0.07903195361316717,-0.08661555498838425,-1.024832844734192,-1.496613264083862,-0.1054022908210754,0.3284705281257629,-0.07180166244506836,XArbitraryZVertical,0.6917251008499412,-0.1428475011874911,0.7024026819014834,0.08798526274335219,-0.996876060962677,0.0789497047662735,-0.002221952425315976
2020-08-20 22:32:46.840 +0200,12928.62800375,-0.9528961181640625,0.3339691162109375,-0.1986083984375,12928.60672475,2.805239235135549,-1.584739240708507,-0.05437202780822373,-0.7689464688301086,-0.4836162924766541,-0.9459009766578674,-0.05598962306976318,0.2544877529144287,-0.04147529602050781,XArbitraryZVertical,0.6985194694884387,-0.1379546303855654,0.695237609785214,0.09840617146355596,-0.9984251856803894,0.05434524267911911,0.01392185874283314
2020-08-20 22:32:46.861 +0200,12928.64804075,-0.873565673828125,0.4170684814453125,-0.2506866455078125,12928.62676175,2.782503469566064,-1.590785949481926,-0.0390370595279551,-1.485450625419617,-0.06412660330533981,-0.5948623418807983,-0.0008605122566223145,0.285022497177124,-0.1619594097137451,XArbitraryZVertical,0.70008539587372,-0.1409502376454755,0.6911095393818045,0.1112699700460036,-0.9990384578704834,0.0390271469950676,0.01997306197881699
2020-08-20 22:32:46.881 +0200,12928.66807775,-0.8574066162109375,0.4832611083984375,-0.24249267578125,12928.64679875,2.750030066555392,-1.591202391489599,-0.02813636431111042,-1.697811961174011,0.09922290593385696,-0.4379988610744476,0.08177614212036133,0.3731327652931213,-0.2361454963684082,XArbitraryZVertical,0.698654200976961,-0.1485953998864545,0.6883721721348917,0.1262750757496555,-0.999396026134491,0.02813265286386013,0.02039657160639763
2020-08-20 22:32:46.905 +0200,12928.68811575,-0.89617919921875,0.485504150390625,-0.188995361328125,12928.66683575,2.715303066815111,-1.589451263975044,-0.02018930470571382,-1.799530982971191,0.1480652838945389,-0.2878029346466064,0.1138707995414734,0.4556857645511627,-0.230837881565094,XArbitraryZVertical,0.6959901279898233,-0.1578694673579827,0.6861181427050345,0.141127201656198,-0.9996222853660583,0.02018793299794197,0.01865005306899548
2020-08-20 22:32:46.920 +0200,12928.70815275,-0.9264984130859375,0.4936065673828125,-0.16961669921875,12928.68687375,2.679446120014512,-1.586059342371834,-0.01434462330186149,-1.741836071014404,0.2807378470897675,-0.251728355884552,0.07796752452850342,0.4740399718284607,-0.1853958368301392,XArbitraryZVertical,0.6923750316351943,-0.1680691564117877,0.6841925512325248,0.1557242741308507,-0.9997805953025818,0.01434413157403469,0.01526085194200277
2020-08-20 22:32:46.940 +0200,12928.72818975,-0.949066162109375,0.508392333984375,-0.1806793212890625,12928.70691075,2.64584475128578,-1.578912907329503,-0.009647991684318333,-1.632829427719116,0.4615204036235809,-0.1611109226942062,0.04688358306884766,0.4797320961952209,-0.1442365050315857,XArbitraryZVertical,0.6874297278371831,-0.1774779586868945,0.6835396354224569,0.1694562999764681,-0.9999204277992249,0.009647841565310955,0.008116113021969795
2020-08-20 22:32:46.961 +0200,12928.74822675,-0.96429443359375,0.519287109375,-0.2234039306640625,12928.72694775,2.61372750649459,-1.56865687948108,-0.007725381461555283,-1.545177698135376,0.5771008133888245,-0.0216237585991621,0.02275931835174561,0.497935950756073,-0.1407444477081299,XArbitraryZVertical,0.6811717482472736,-0.1869100278000676,0.6840572451968867,0.1820311936404016,-0.9999678730964661,0.007725304458290339,-0.002139381831511855
2020-08-20 22:32:46.985 +0200,12928.76826375,-0.9419097900390625,0.5075836181640625,-0.214111328125,12928.74698475,2.585548787718939,-1.557227672550185,-0.009089474746040474,-1.249037861824036,0.5676625967025757,0.1489761769771576,0.006212294101715088,0.5088373422622681,-0.1742179989814758,XArbitraryZVertical,0.674430461084832,-0.1958563620603382,0.6854202782461708,0.1923092963175387,-0.9998666048049927,0.009089349769055843,-0.01356767676770687
2020-08-20 22:32:47.001 +0200,12928.78830075,-0.90008544921875,0.4931488037109375,-0.237701416015625,12928.76702175,2.562588915087297,-1.546595945642215,-0.01480966393393721,-1.092782497406006,0.5219653844833374,0.3978931307792664,0.01797544956207275,0.499102383852005,-0.1590436100959778,XArbitraryZVertical,0.6679008325992193,-0.2044768822270308,0.6872893649369133,0.1993263352000059,-0.9995975494384766,0.01480912230908871,-0.02419536560773849
2020-08-20 22:32:47.021 +0200,12928.80833875,-0.85748291015625,0.4873809814453125,-0.2353057861328125,12928.78705875,2.542585760217533,-1.537322555949213,-0.02600306086562017,-0.9035720229148865,0.4271991848945618,0.6465427279472351,0.06011337041854858,0.4692834913730621,-0.1685541272163391,XArbitraryZVertical,0.6614129942285099,-0.2140204368559142,0.6894499699163656,0.2034376699998423,-0.999101996421814,0.02600013092160225,-0.03345620632171631
2020-08-20 22:32:47.057 +0200,12928.82837575,-0.8529815673828125,0.4693756103515625,-0.241729736328125,12928.80709675,2.528461936413869,-1.530829077789333,-0.04168127854179089,-0.5501499176025391,0.2552644312381744,0.871635377407074,0.1045047640800476,0.4483576118946075,-0.1640934944152832,XArbitraryZVertical,0.6558546217383225,-0.2233691160398733,0.6916826019587374,0.2038041993789714,-0.9983335733413696,0.04166921228170395,-0.03992190584540367
2020-08-20 22:32:47.078 +0200,12928.84841275,-0.8365936279296875,0.458892822265625,-0.220123291015625,12928.82713375,2.522906215698825,-1.527811415679273,-0.06161403044624099,-0.03761405497789383,0.07718843966722488,1.073225140571594,0.1122838854789734,0.4154707193374634,-0.1706642508506775,XArbitraryZVertical,0.6518282251518799,-0.2316784384320392,0.6940226971492288,0.1994429863990352,-0.9971804618835449,0.06157505512237549,-0.04289013147354126
2020-08-20 22:32:47.086 +0200,12928.86844975,-0.8186187744140625,0.4626922607421875,-0.2296600341796875,12928.84717075,2.529016272868547,-1.527244863267132,-0.08458311219282401,0.5256186723709106,-0.05709799006581306,1.241452217102051,0.1255298256874084,0.3768392205238342,-0.148001492023468,XArbitraryZVertical,0.6495598154103003,-0.2374468827891186,0.6969176630669079,0.1897281472265963,-0.9954801201820374,0.08448228985071182,-0.04338204860687256
2020-08-20 22:32:47.102 +0200,12928.88848675,-0.8183441162109375,0.4398651123046875,-0.201019287109375,12928.86720775,2.54591736232218,-1.528002825421361,-0.1097042877939217,1.04567551612854,-0.1944430619478226,1.315494775772095,0.1403703689575195,0.3564276099205017,-0.1534719467163086,XArbitraryZVertical,0.6487461269292388,-0.2405552534911149,0.7003750907860805,0.1753177664361313,-0.9930784702301025,0.1094843745231628,-0.04252326488494873
2020-08-20 22:32:47.121 +0200,12928.90852375,-0.852447509765625,0.3998260498046875,-0.17950439453125,12928.88724475,2.573392347965305,-1.530410048369295,-0.1351396070238393,1.551965236663818,-0.3786938786506653,1.334790349006653,0.1422679424285889,0.3146785795688629,-0.138192892074585,XArbitraryZVertical,0.6497513112273112,-0.2404571547603805,0.7038580898899156,0.1568036703412269,-0.9900745749473572,0.1347286403179169,-0.04000718146562576
2020-08-20 22:32:47.141 +0200,12928.92856075,-0.9064788818359375,0.36773681640625,-0.1649017333984375,12928.90728175,2.609422649994785,-1.534415617299124,-0.1605988275963112,1.885493040084839,-0.5496256351470947,1.336435794830322,0.1120980978012085,0.2528342008590698,-0.1164547204971313,XArbitraryZVertical,0.6523586089721383,-0.2376466495873899,0.7069214312234379,0.1349607868487176,-0.9864785075187683,0.1599093526601791,-0.03590463101863861
2020-08-20 22:32:47.161 +0200,12928.94859875,-0.9671173095703125,0.370849609375,-0.1474761962890625,12928.94735675,2.699627025667256,-1.545057967651707,-0.2094528080070451,2.384270429611206,-0.8288194537162781,1.212680339813232,-0.005462110042572021,0.1662225425243378,-0.09198039770126343,XArbitraryZVertical,0.6608362709791424,-0.225186347423085,0.7108967517086232,0.08492556535911731,-0.977820873260498,0.2079246938228607,-0.02517306432127953
2020-08-20 22:32:47.184 +0200,12928.96863575,-1.076187133789062,0.4054412841796875,-0.169677734375,12928.94735675,2.699627025667256,-1.545057967651707,-0.2094528080070451,2.384270429611206,-0.8288194537162781,1.212680339813232,-0.005462110042572021,0.1662225425243378,-0.09198039770126343,XArbitraryZVertical,0.6608362709791424,-0.225186347423085,0.7108967517086232,0.08492556535911731,-0.977820873260498,0.2079246938228607,-0.02517306432127953
2020-08-20 22:32:47.202 +0200,12928.98867275,-1.139755249023438,0.4378509521484375,-0.19647216796875,12928.96739375,2.751373873129102,-1.551969773948342,-0.2306692318075761,2.631808996200562,-0.9608815908432007,1.013065814971924,-0.1118507981300354,0.1771638095378876,-0.1144030094146729,XArbitraryZVertical,0.6666409235865328,-0.215468018274948,0.7111646993718185,0.05838031627802905,-0.973341166973114,0.22862908244133,-0.01832682453095913
2020-08-20 22:32:47.221 +0200,12929.00870975,-1.073516845703125,0.4102630615234375,-0.172271728515625,12928.98743075,2.808546764784995,-1.557300023856178,-0.2482965758864353,2.876181602478027,-0.8960078358650208,0.832784116268158,-0.1977885365486145,0.1973857581615448,-0.1488702893257141,XArbitraryZVertical,0.6726621011833213,-0.2024467693923944,0.7110273694984626,0.03132126472231543,-0.969244122505188,0.245753139257431,-0.01308200601488352
2020-08-20 22:32:47.241 +0200,12929.02874675,-0.9665069580078125,0.333953857421875,-0.102935791015625,12929.02750475,2.931764260373193,-1.555704974270736,-0.2763157350081126,2.849163055419922,-0.620444655418396,0.7281622290611267,-0.05071568489074707,0.08527505397796631,-0.06849968433380127,XArbitraryZVertical,0.6809679337036542,-0.1703628540359729,0.7118746759806005,-0.02221763576592869,-0.9619575142860413,0.2728129923343658,-0.01451834291219711
2020-08-20 22:32:47.262 +0200,12929.04878375,-0.9020538330078125,0.273468017578125,-0.056182861328125,12929.02750475,2.931764260373193,-1.555704974270736,-0.2763157350081126,2.849163055419922,-0.620444655418396,0.7281622290611267,-0.05071568489074707,0.08527505397796631,-0.06849968433380127,XArbitraryZVertical,0.6809679337036542,-0.1703628540359729,0.7118746759806005,-0.02221763576592869,-0.9619575142860413,0.2728129923343658,-0.01451834291219711
