@ HyperIMU -ianovir - 2018
@ Date:Wed Apr 22 15:49:14 GMT+02:00 2020, Sampling Rate:10ms

timestamp,K6DS3TR_Accelerometer.x,K6DS3TR_Accelerometer.y,K6DS3TR_Accelerometer.z
1587563354280,0.0,0.0,0.0
1587563354294,0.0,0.0,0.0
1587563354301,-1.2641385,2.2457612,8.696938
1587563354312,-1.1779473,2.0841527,8.699332
1587563354323,-1.1947067,1.9644425,8.568848
1587563354335,-0.9900024,1.9800048,9.028535
1587563354346,-1.0271125,1.7824832,8.967483
1587563354358,-1.0378864,1.9165585,9.330204
1587563354368,-0.9959879,1.9117701,9.548077
1587563354379,-0.89543146,1.7992426,9.730036
1587563354390,-0.712275,1.804031,9.835381
1587563354400,-0.5602432,1.8100165,10.073604
1587563354411,-0.39025488,1.8746599,10.1382475
1587563354422,-0.51116204,1.8950106,9.872491
1587563354434,-0.6368576,2.0003555,10.311827
1587563354443,-0.80205756,2.03148,10.081984
1587563354455,-0.80804306,1.9045875,9.794679
1587563354466,-1.1456255,1.8818425,9.691729
1587563354477,-1.5251064,1.8806454,9.77792
1587563354489,-1.9680338,2.0841527,9.503783
1587563354498,-2.2876596,2.373851,9.455899
1587563354512,-2.541445,2.1942859,9.169792
1587563354521,-2.9376855,1.7525556,8.787917
1587563354533,-2.4708161,2.6084828,8.546103
1587563354542,-2.2301989,2.7461493,8.804677
1587563354553,-2.2529438,2.825158,9.064447
1587563354565,-2.1284454,2.7820623,8.593987
1587563354576,-1.7286136,2.3558946,8.610746
1587563354588,-1.5646108,2.244564,9.058462
1587563354597,-1.5646108,2.244564,9.058462
1587563354608,-1.590947,2.4229321,8.969876
1587563354618,-1.5442601,2.4887726,8.761581
1587563354629,-1.447295,2.4193408,8.699332
1587563354640,-1.472434,2.328361,9.060856
1587563354653,-1.4269443,2.349909,9.01417
1587563354662,-1.3802572,2.3295584,8.926781
1587563354673,-1.2761095,2.2254105,8.711303
1587563354685,-1.1851299,2.0602105,8.368932
1587563354695,-1.4867992,2.4121583,9.639056
1587563354706,-1.4664485,2.633622,9.932345
1587563354718,-1.5215151,2.574964,9.267955
1587563354725,-1.5215151,2.574964,9.267955
1587563354737,-1.7489643,2.6060886,8.992621
1587563354749,-1.8471266,2.873042,8.851364
1587563354760,-1.9393034,3.1160536,9.414001
1587563354772,-1.7609353,3.05141,9.392453
1587563354781,-1.5310919,2.8060043,9.599552
1587563354793,-1.3443443,2.5677812,9.1590185
1587563354804,-1.3958195,2.480393,9.218874
1587563354815,-1.3311762,2.3918076,8.823831
1587563354827,-1.447295,2.4037786,8.462306
1587563354835,-1.5167267,2.4827871,8.969876
1587563354846,-1.5059528,2.6779146,9.41879
1587563354858,-1.5310919,2.8909986,9.668983
1587563354870,-1.8231846,2.9041667,9.545682
1587563354879,-1.8303672,2.7940333,9.180567
1587563354891,-1.483208,2.7473464,8.696938
1587563354903,-1.7585411,2.790442,8.701726
1587563354912,-2.066196,2.7401638,8.643068
1587563354924,-2.2984335,2.6503813,8.3150625
1587563354936,-2.5378537,2.7150247,8.304289
1587563354943,-2.670732,2.7808652,8.249222
1587563354955,-2.6874914,2.7461493,8.067263
1587563354966,-2.493561,2.7712884,8.15106
1587563354978,-1.4784195,2.4265234,7.825448
1587563354991,-1.685518,2.3211784,9.329007
1587563355001,-1.9572599,2.7281928,9.572019
1587563355011,-2.256535,2.9400797,9.244013
1587563355022,-2.420538,2.9855695,8.684967
1587563355034,-2.3630772,2.9963434,8.555679
1587563355044,-2.2182279,3.1016884,8.842984
1587563355055,-2.0111294,2.9975405,9.165004
1587563355068,-1.8830396,2.9640217,9.776723
1587563355078,-1.7645266,3.0322564,9.564836
1587563355090,-1.7154455,2.8622682,9.217676
1587563355103,-1.8722657,2.6503813,8.761581
1587563355113,-2.0231004,2.586935,8.639477
1587563355123,-2.1511903,2.5306711,8.718486
1587563355134,-2.0446482,2.5318682,8.737639
1587563355144,-1.9297266,2.4073699,8.6813755
1587563355154,-1.9979613,2.2110453,8.614338
1587563355167,-2.2385786,2.2720973,8.783129
1587563355178,-2.3211784,2.433706,9.091981
1587563355188,-2.2601264,2.7952304,9.084799
1587563355199,-2.0745757,2.7090392,8.714894
1587563355211,-2.0087352,2.3774424,8.620323
1587563355221,-2.110489,2.2517467,8.803479
1587563355233,-2.2960393,2.2505496,9.028535
1587563355243,-2.3475149,2.2840683,9.167398
1587563355253,-2.337938,2.5246856,9.378088
1587563355265,-2.2996306,2.597709,9.228451
1587563355274,-2.2146366,2.6443958,9.069236
1587563355287,-2.136825,2.565387,9.021352
1587563355297,-2.0853498,2.2864625,8.875306
1587563355307,-2.1092918,2.19668,8.916007
1587563355319,-2.5594015,2.006341,9.837775
1587563355330,-2.6850972,1.9859903,9.932345
1587563355340,-2.7880478,2.0123265,10.01734
1587563355352,-2.7042508,2.086547,10.0903635
1587563355363,-2.5773582,2.0087352,9.77792
1587563355373,-2.4169466,1.7776948,9.374496
1587563355386,-2.303222,1.5622166,9.3026705
1587563355398,-2.0901382,1.5682021,9.309854
1587563355408,-2.0338743,1.5813702,9.409213
1587563355421,-1.9141643,1.8614918,9.739613
1587563355432,-1.7753005,1.8818425,9.688137
1587563355442,-1.7836803,1.8459295,9.639056
1587563355452,-1.7956513,1.7872716,9.674969
1587563355461,-1.7381904,1.7741034,9.540894
1587563355473,-1.5610195,1.6962919,9.360131
1587563355482,-1.4089876,1.5897499,9.440337
1587563355496,-1.2557588,1.5466543,9.519346
1587563355505,-1.2856863,1.555034,9.6845455
1587563355517,-1.472434,1.6795325,9.880871
1587563355526,-1.532289,1.8124107,10.01734
1587563355537,-1.5526398,1.7717092,9.890448
1587563355549,-1.3670892,1.6986861,9.143456
1587563355560,-1.2629414,1.4221559,8.98903
1587563355571,-1.2856863,1.4425066,9.039309
1587563355582,-1.2306197,1.5310919,9.066842
1587563355593,-1.3335704,1.5107412,9.32781
1587563355603,-1.30484,1.5610195,9.475053
1587563355616,-1.3467385,1.5119383,9.712079
1587563355627,-1.4856021,1.3994108,9.859323
1587563355637,-1.6675615,1.2306197,9.974244
1587563355649,-1.6292542,1.364695,10.012551
1587563355659,-1.3467385,1.5215151,7.7213006
1587563355669,-1.1552023,1.62686,9.520543
1587563355682,-1.2557588,1.9117701,9.913192
1587563355692,-1.6232687,2.0913353,9.488221
1587563355702,-2.0027497,2.0242975,9.012972
1587563355714,-2.2038627,1.9369092,8.9279785
1587563355724,-2.1775265,1.8794483,9.0237465
1587563355737,-2.2062569,1.7788919,8.826224
1587563355748,-2.2900538,1.3634979,8.586804
1587563355758,-2.2900538,1.3634979,8.586804
1587563355768,-1.9428947,1.0115502,8.847773
1587563355781,-1.6675615,0.7374141,9.204509
1587563355791,-1.6663644,0.7565677,9.475053
1587563355802,-1.6807296,0.770933,9.660604
1587563355812,-1.7250223,0.770933,9.764751
1587563355825,-1.7657237,0.78410107,9.700109
1587563355836,-1.7980455,0.6655881,9.452309
1587563355847,-1.8148049,0.58657944,9.004593
1587563355857,-1.7609353,0.40821138,8.985439
1587563355868,-1.5969325,0.1376666,9.121908
1587563355878,-1.721431,0.20709845,9.3026705
1587563355891,-1.8447324,0.36870706,9.313444
1587563355902,-1.7106571,0.5494693,9.810242
1587563355914,-1.4915876,0.7505822,10.271125
1587563355924,-1.30484,0.9959879,10.305841
1587563355938,-1.1851299,1.1252748,10.45907
1587563355946,-1.067814,1.246182,10.309433
1587563355959,-1.0773908,1.3108255,10.327389
1587563355972,-1.1647792,1.2126632,10.362105
1587563355983,-1.1611878,0.9900024,10.365696
1587563355993,-1.1133038,0.91817635,10.33936
1587563356004,-1.282095,1.1025299,9.793482
1587563356015,-1.3215994,1.1204864,9.715671
1587563356025,-1.283292,1.1240777,9.674969
1587563356035,-1.2533646,1.1360487,9.665392
1587563356049,-1.1025299,1.2389994,9.691729
1587563356057,-1.1025299,1.2389994,9.691729
1587563356070,-1.2306197,1.3036429,9.733627
1587563356081,-1.2533646,1.4281414,9.392453
1587563356091,-1.3144168,1.5263035,9.139865
1587563356105,-1.2964603,1.6017209,8.670602
1587563356115,-1.0259154,1.5155296,9.537302
1587563356125,-0.5518635,1.5394717,10.263943
1587563356136,-0.33518824,1.6903064,10.418368
1587563356149,-0.51475334,1.6591818,9.97185
1587563356155,-0.51475334,1.6591818,9.97185
1587563356167,-0.60693014,1.3491327,9.836577
1587563356180,-0.79487497,1.1384429,9.587581
1587563356191,-0.878672,1.1336545,9.568427
1587563356201,-0.8750807,1.0773908,9.688137
1587563356214,-0.7457938,0.973243,9.731233
1587563356224,-0.6607997,0.8726865,9.537302
1587563356234,-0.62608373,0.8738836,9.465476
1587563356247,-0.7649474,0.82360536,8.983045
1587563356257,-0.78888947,0.6679823,8.968679
1587563356269,-0.94570965,0.50397944,9.084799
1587563356281,-1.0354922,0.5482722,8.943541
1587563356291,-1.0223241,0.5746084,8.821436
1587563356302,-0.93373865,0.51954174,8.868123
1587563356314,-0.878672,0.4213795,8.887277
1587563356324,-0.81761986,0.31603462,8.767567
1587563356334,-0.62368953,0.25019407,9.046491
1587563356347,-0.46926352,0.17477672,9.14226
1587563356357,-0.44891283,0.023942016,8.793902
1587563356369,-0.21308395,-0.50158525,8.267179
1587563356377,-0.21308395,-0.50158525,8.267179
1587563356390,-0.4201824,-1.0630256,8.347384
1587563356400,-0.4381389,-0.9504981,8.710106
1587563356413,-0.4189853,-0.6512229,9.011775
1587563356423,-0.15083471,-0.533907,9.244013
1587563356433,-0.11372458,-0.6631939,9.466674
1587563356446,-0.35434186,-1.0390835,9.635465
1587563356457,-1.6448165,-1.6340426,10.351331
1587563356468,0.25258827,-1.1947067,9.259575
1587563356478,0.2813187,-1.1719618,9.707291
1587563356490,0.4201824,-1.6244658,8.805874
1587563356501,0.17477672,-1.9907787,8.759187
1587563356512,0.41060558,-2.123657,8.962694
1587563356522,0.21068975,-2.135628,9.566033
1587563356534,-0.48602295,-1.8411411,10.896012
1587563356546,-0.095768064,-1.5502456,11.853693
1587563356558,-0.33877954,-1.3623008,11.832145
1587563356568,0.12689269,-1.0606314,10.864887
1587563356579,0.38187516,-1.3024458,10.196905
1587563356589,0.6356605,-1.472434,9.26197
1587563356602,0.770933,-1.8746599,8.333019
1587563356613,0.7517793,-2.8778305,7.337031
1587563356623,0.5746084,-3.1866825,7.4447703
1587563356633,0.46447513,-3.0023289,8.129512
1587563356645,-0.107739076,-2.4193408,9.659407
1587563356655,-0.33518824,-1.6531962,11.162966
1587563356668,-0.089782566,-1.1791444,11.923124
1587563356678,0.46686932,-2.0757728,10.96305
1587563356688,1.4437037,-2.802413,9.42238
1587563356700,1.7106571,-3.311181,8.754398
1587563356710,1.7537527,-3.4201171,7.991845
1587563356720,1.6915035,-3.169923,7.7727757
1587563356732,2.4911668,-3.3901896,7.1885905
1587563356743,1.910573,-3.333926,7.5225816
1587563356753,0.6739678,-3.8151605,8.719683
1587563356765,-0.5446809,-3.4320881,10.879252
1587563356775,0.11731588,-2.753332,11.859678
1587563356788,0.46806642,-2.1416135,11.795034
1587563356798,1.7238252,-2.243367,10.885238
1587563356808,2.835932,-2.765303,9.850943
1587563356820,3.9085343,-3.3279405,8.143877
1587563356830,3.8714242,-4.3478703,7.1622543
1587563356842,3.6248214,-4.7860093,7.53575
1587563356852,3.7612908,-4.2784386,7.9583263
1587563356864,3.6739025,-3.5458126,8.117541
1587563356875,3.2968156,-3.3482912,8.734048
1587563356885,2.681506,-3.3638535,9.888053
1587563356897,1.9189527,-3.309984,11.087548
1587563356907,1.5598224,-3.2010477,12.117055
1587563356919,3.1711202,-3.655946,10.733206
1587563356928,3.8271315,-3.7002387,10.0664215
1587563356940,4.4759603,-3.6739025,9.051279
1587563356951,4.619612,-3.4368765,8.425196
1587563356961,4.654328,-3.4823663,8.577228
1587563356973,4.223372,-3.8271315,8.365341
1587563356984,3.8714242,-4.173094,8.626308
1587563356994,3.6475663,-4.092888,8.789114
1587563357006,3.2381577,-3.9240966,8.649054
1587563357016,2.9963434,-4.1623197,8.53892
1587563357029,2.529474,-4.5872903,8.6334915
1587563357034,2.529474,-4.5872903,8.6334915
1587563357049,2.4277205,-3.9935284,9.248801
1587563357060,2.6635494,-3.9588125,9.082404
1587563357070,3.1507695,-4.1335893,8.826224
1587563357082,3.6750996,-4.249708,8.459911
1587563357093,3.977966,-4.1623197,8.085219
1587563357103,4.260482,-4.0976763,7.839813
1587563357115,4.461595,-4.0821137,7.845799
1587563357126,4.3718123,-4.072537,7.7787614
1587563357136,4.1611223,-3.9193082,7.8326306
1587563357148,3.9252937,-4.289212,7.884106
1587563357159,3.8594532,-4.128801,8.019379
1587563357170,3.7948096,-4.1264067,8.063671
1587563357180,3.810372,-4.2221746,7.9810715
1587563357195,3.8642416,-4.3299136,7.9451585
1587563357205,3.821146,-4.361038,7.902063
1587563357215,3.7002387,-4.3957543,7.7560163
1587563357227,3.5410242,-4.3179426,7.631518
1587563357237,3.2728736,-5.1247888,7.1191587
1587563357247,3.3913867,-5.341464,7.7823524
1587563357259,3.8534677,-5.17387,7.007828
1587563357270,4.074931,-5.6658783,6.658275
1587563357280,3.9205053,-5.566519,6.621165
1587563357294,3.8115692,-5.473145,6.634333
1587563357304,3.620033,-5.4899044,6.5828576
1587563357315,3.4847605,-5.7724204,6.457162
1587563357326,3.3865983,-5.9986725,6.3362546
1587563357336,3.3638535,-6.0345855,6.373365
1587563357346,3.515885,-6.101623,6.5744777
1587563357359,4.426879,-5.6060233,7.016208
1587563357365,4.426879,-5.6060233,7.016208
1587563357378,5.6096144,-5.765238,6.587646
1587563357390,5.946,-5.7760115,7.335834
1587563357400,5.6335564,-5.3594203,7.526173
1587563357413,5.463568,-5.005079,7.7213006
1587563357424,5.5006785,-4.644751,8.376115
1587563357434,5.4384294,-4.794389,8.34499
1587563357444,5.269638,-4.9524064,7.9511437
1587563357456,5.5581393,-4.722563,7.2149267
1587563357466,5.389348,-5.0876784,6.862979
1587563357479,5.5701103,-5.0374002,7.053318
1587563357489,5.471948,-4.709395,7.337031
1587563357499,5.225345,-4.4759603,7.441179
1587563357512,4.88058,-4.437653,7.441179
1587563357522,4.7321396,-4.358644,7.4842744
1587563357532,4.6112323,-4.1706996,7.6171527
1587563357545,4.6471453,-4.140772,7.559692
1587563357556,4.6363716,-4.134786,7.3106947
1587563357567,4.6662993,-4.272453,7.049727
1587563357578,4.542998,-4.501099,6.6163764
1587563357588,4.64116,-4.5645456,6.453571
1587563357601,4.950012,-4.9548006,6.405687
1587563357612,4.808754,-4.879383,6.338649
1587563357622,4.7405195,-4.711789,6.6534867
1587563357633,4.6902413,-4.6591167,6.781576
1587563357642,4.674679,-4.7524905,6.6654577
1587563357654,4.8662148,-4.7620673,6.423643
1587563357665,5.185841,-4.7656584,6.2943563
1587563357677,5.5126495,-4.8985367,6.1758432
1587563357688,5.919664,-5.0900726,6.0010667
1587563357697,5.919664,-5.0900726,6.0010667
1587563357708,5.955577,-4.7740383,6.3182983
1587563357719,5.8203044,-4.8482585,6.3949127
1587563357730,5.6156,-4.9428296,6.3901243
1587563357742,5.5006785,-5.0781016,6.471527
1587563357754,5.483919,-5.1571107,6.4463882
1587563357764,5.4647655,-5.225345,6.4368114
1587563357776,5.48751,-5.079299,6.113594
1587563357786,5.589264,-5.055357,6.1746464
1587563357799,5.625177,-5.116409,5.6910176
1587563357805,5.7029886,-5.023035,5.8454432
1587563357817,5.755661,-5.4647655,5.6215854
1587563357830,5.6179943,-5.401319,5.791574
1587563357840,5.791574,-5.5701103,5.683835
1587563357853,5.9651537,-5.4324436,5.49589
1587563357863,6.1638722,-5.2840033,5.261258
1587563357873,6.289568,-5.2899885,5.1642933
1587563357885,6.375759,-5.0996494,5.097255
1587563357896,6.257246,-4.9057193,5.011064
1587563357907,5.9843073,-4.8027687,5.097255
1587563357917,5.9424086,-4.8338933,5.1798553
1587563357929,6.133945,-4.859032,5.309142
1587563357940,6.56131,-5.485116,5.887342
1587563357951,6.716933,-4.772841,5.759252
1587563357961,6.7121444,-4.510676,5.2289367
1587563357975,6.872556,-5.1846437,5.0721164
1587563357985,6.879739,-5.2121773,4.945224
1587563357995,6.930017,-4.96318,4.805163
1587563358007,7.097611,-4.7740383,4.6112323
1587563358017,7.267599,-4.8255134,4.392163
1587563358029,7.275979,-5.171476,3.9348705
1587563358040,7.7308774,-5.0374002,4.4484267
1587563358050,8.321048,-4.8015714,4.6232033
1587563358063,8.701726,-5.3366756,4.095282
1587563358073,8.798691,-5.33907,3.7696705
1587563358083,8.428787,-5.33069,4.1156325
1587563358095,8.67539,-5.439626,4.380192
1587563358107,8.591593,-5.281609,4.5142674
1587563358117,9.01776,-5.380968,4.4520183
1587563358128,9.479841,-5.4444146,4.26527
1587563358138,9.700109,-5.318719,3.9564183
1587563358150,9.859323,-5.2923827,2.823961
1587563358161,9.774328,-4.201824,3.2728736
1587563358171,9.232041,-4.373009,3.1292217
1587563358184,8.611943,-4.4280763,2.56419
1587563358194,8.882488,-4.047398,2.4301147
1587563358205,8.684967,-3.8774097,2.1703439
1587563358215,8.27077,-3.750517,1.9021933
1587563358227,7.9068513,-3.5853171,1.6915035
1587563358238,7.735666,-3.300407,1.7190368
1587563358248,5.225345,-4.308366,1.6986861
1587563358260,4.486734,-4.5262384,1.4508862
1587563358272,5.2660465,-3.6619315,2.0602105
1587563358282,7.511808,-2.657564,3.1711202
1587563358292,7.8493905,-2.8191724,3.0502129
1587563358305,8.3150625,-3.2920272,2.7521348
1587563358315,8.690952,-3.515885,2.4061728
1587563358325,8.870518,-3.5326445,2.3523033
1587563358337,9.024943,-3.3482912,2.433706
1587563358347,9.180567,-2.574964,2.6611552
1587563358360,9.229648,-2.9903579,1.9979613
1587563358371,8.4587145,-3.2477345,1.258153
1587563358381,7.763199,-4.4520183,0.8415619
1587563358391,7.5525093,-3.309984,2.160767
1587563358403,7.603985,-3.645172,2.6168625
1587563358413,7.303512,-3.526659,2.2146366
1587563358426,7.608773,-4.1946416,1.9440918
1587563358436,7.9691005,-5.1463366,1.7836803
1587563358446,8.073248,-5.345055,1.2246342
1587563358459,8.025364,-6.599617,1.2306197
1587563358465,8.025364,-6.599617,1.2306197
1587563358477,8.02297,-6.8605847,1.2330139
1587563358491,8.354567,-7.536947,1.5957354
1587563358501,8.366538,-7.5932107,2.3199813
1587563358512,8.078036,-7.4746976,2.8107927
1587563358523,7.9128366,-7.8290396,2.823961
1587563358533,7.465121,-7.9343843,2.6024973
1587563358545,6.7085533,-7.5584946,2.5582044
1587563358556,6.679823,-7.350199,2.4157495
1587563358566,6.6067996,-7.252037,1.9393034
1587563358578,6.659472,-6.8988924,1.2773066
1587563358590,6.465542,-5.3019595,-0.44651863
1587563358600,6.4463882,-5.056554,1.9237411
1587563358612,6.367379,-5.759252,1.5442601
1587563358623,6.4404025,-6.64391,1.460463
1587563358633,6.645107,-7.2951326,1.4760253
1587563358643,7.043741,-7.1059904,1.6831238
1587563358656,7.2831616,-7.1191587,1.3263878
1587563358666,7.526173,-7.3669586,1.3144168
1587563358678,7.517793,-7.752425,1.2318168
1587563358687,7.477092,-7.878121,1.0785879
1587563358700,7.539341,-7.8865004,1.4796166
1587563358710,7.6734166,-7.9343843,1.5993267
1587563358721,7.5213847,-7.860164,1.6208745
1587563358732,7.01142,-7.15986,1.3455414
1587563358742,6.8869214,-6.655881,1.4520833
1587563358755,6.8581905,-6.531382,1.270124
1587563358765,6.7959414,-6.76362,1.3239936
1587563358776,6.805518,-6.9000893,1.271321
1587563358787,6.8486137,-7.0066314,1.1659763
1587563358798,6.9144545,-6.897695,1.1097125
1587563358808,6.8881183,-6.9850836,1.3335704
1587563358820,6.813898,-6.9252286,1.0510546
1587563358830,6.655881,-6.769605,0.8834604
1587563358843,6.493075,-6.7013707,0.82719666
1587563358855,6.8605847,-6.579266,1.4856021
1587563358865,6.751649,-6.631939,1.2497733
1587563358876,6.827066,-6.703765,1.1755531
1587563358887,6.88333,-6.8809357,1.1360487
1587563358897,6.977901,-7.005434,1.3503298
1587563358911,7.0784574,-7.2364745,1.1779473
1587563358918,7.1407065,-7.395689,1.1013328
1587563358929,6.9623384,-7.40766,1.1252748
1587563358940,6.7851677,-7.089231,1.1671734
1587563358951,6.847417,-6.8402343,1.364695
1587563358962,6.8079123,-6.825869,1.5598224
1587563358974,6.932411,-6.7839704,1.4377182
1587563358987,7.0425444,-6.873753,1.2737153
1587563358997,7.117962,-6.895301,1.1264719
1587563359007,7.1766195,-6.8162923,0.93014735
1587563359019,7.2939353,-7.025785,0.5530606
1587563359030,7.589619,-7.431602,0.29448682
1587563359040,6.2464724,-7.715315,0.8678981
1587563359053,6.0956373,-7.8529816,1.2964603
1587563359063,6.199785,-7.5704656,1.1923125
1587563359073,6.518214,-7.004237,1.5071499
1587563359085,6.9240313,-6.7109475,1.3838485
1587563359095,7.201759,-6.8809357,1.1504139
1587563359107,7.6865845,-6.8079123,0.62488663
1587563359117,7.089231,-6.5684924,0.88944596
1587563359129,6.7743936,-6.992266,0.9696517
1587563359140,6.9886746,-6.70975,1.0690111
1587563359151,7.4471645,-6.4260373,0.79726917
1587563359161,7.3442135,-6.8162923,0.35913026
1587563359173,7.135918,-7.338228,0.7218518
1587563359183,7.1167645,-6.9108634,0.7625532
1587563359196,7.1993647,-6.9108634,1.1947067
1587563359206,7.2628107,-6.8103065,1.1025299
1587563359217,7.3657618,-7.0102224,1.0534488
1587563359227,7.3537903,-7.383718,1.2174516
1587563359240,6.5146227,-7.237672,1.1360487
1587563359250,5.8095303,-7.1383123,1.1575965
1587563359261,5.3462524,-7.4268136,1.3443443
1587563359271,4.9787426,-8.019379,1.2174516
1587563359282,4.981137,-8.276755,0.94690675
1587563359294,5.463568,-8.063671,0.79846627
1587563359303,6.3003416,-7.5561004,0.7015011
1587563359314,6.847417,-7.4351935,0.90859956
1587563359325,7.253234,-8.057686,1.6316484
1587563359337,6.849811,-8.154651,-0.23463176
1587563359346,6.1926026,-6.7851677,-1.6089035
1587563359358,5.734113,-6.870162,0.9504981
1587563359369,5.7065797,-7.315483,0.7290344
1587563359380,5.482722,-7.479486,0.6787562
1587563359392,5.613206,-7.5920134,1.0761937
1587563359402,5.7520695,-7.973889,1.2174516
1587563359412,6.206968,-8.415619,1.6998832
1587563359424,6.82946,-8.708909,1.1049241
1587563359435,6.3745623,-8.219295,0.4381389
1587563359453,5.2409077,-7.547721,0.521936
1587563359465,4.6220064,-7.72968,0.6512229
1587563359477,4.7285485,-8.147469,0.7781156
1587563359481,5.104438,-8.426393,1.4317327
1587563359491,5.297171,-8.820239,1.6232687
1587563359502,5.353435,-8.4108305,0.7589619
1587563359512,5.2744265,-8.139089,0.50637364
1587563359522,5.133168,-8.069656,0.05626374
1587563359534,4.7429137,-8.118738,0.2621651
1587563359544,4.8662148,-8.091205,0.59855044
1587563359556,5.09127,-8.048109,0.7733272
1587563359566,4.9440265,-7.997831,0.6356605
1587563359577,5.1379566,-7.8865004,0.47046062
1587563359588,5.6443305,-7.061698,0.4381389
1587563359598,5.5988407,-7.1526775,0.4357447
1587563359611,5.093664,-7.9583263,-0.25857377
1587563359621,3.9983168,-8.842984,-1.2605472
1587563359631,3.70383,-8.905233,-0.8331822
1587563359643,3.9815574,-7.8637557,-0.08499416
1587563359653,4.6399627,-7.65546,0.1604115
1587563359665,5.0038815,-7.1993647,-0.045489833
1587563359674,4.8733974,-7.103596,0.044292733
1587563359686,4.7764325,-5.935226,-0.9504981
1587563359695,4.6399627,-6.1399302,0.30765492
1587563359707,4.663905,-6.7229185,0.2693477
1587563359720,4.8865657,-7.9810715,0.9768343
1587563359730,4.912902,-8.110358,0.6919243
1587563359739,4.7189717,-8.317456,0.33877954
1587563359750,4.4005427,-8.461109,0.50158525
1587563359762,4.313154,-8.367735,0.60094464
1587563359777,4.35625,-8.075643,0.427365
1587563359790,4.630386,-7.880515,0.4429273
1587563359794,4.630386,-7.880515,0.4429273
1587563359808,4.892551,-8.428787,0.4429273
1587563359818,4.948815,-8.728063,-0.1352724
1587563359828,4.7417164,-9.458294,0.11492168
1587563359838,4.7417164,-9.458294,0.11492168
1587563359850,4.2102036,-10.113108,0.11971009
1587563359861,3.5673606,-9.81503,0.4441244
1587563359871,2.5809495,-9.416395,0.7517793
1587563359883,2.3798366,-9.562442,0.36750996
1587563359892,1.9369092,-9.502586,0.9672575
1587563359904,1.5514427,-9.500193,0.7098808
1587563359915,1.4856021,-9.346964,0.51595044
1587563359925,1.5478514,-9.284714,1.2880806
1587563359938,0.9552865,-9.001001,-0.09816227
1587563359948,0.89902276,-9.216479,-0.23463176
1587563359958,0.89902276,-9.216479,-0.23463176
1587563359970,0.32441434,-9.591172,-0.2908955
1587563359980,0.16879122,-9.44752,0.033518825
1587563359993,0.10534488,-9.552865,-0.48362875
1587563359999,0.05746084,-9.947908,-0.90979666
1587563360011,0.045489833,-10.54167,-0.90261406
1587563360023,0.45010993,-12.100295,-0.47644615
1587563360036,1.2366052,-14.5759,0.22744916
1587563360047,1.5346833,-15.781381,1.9572599
1587563360058,1.0295067,-16.674417,0.49919105
1587563360068,0.23104046,-15.9657345,-1.1575965
1587563360078,-0.40102878,-9.616311,0.110133275
1587563360090,0.92535895,-7.6351094,0.56982
1587563360101,2.8682537,-6.849811,0.78410107
1587563360111,0.93732995,-8.392874,1.5442601
1587563360123,-0.1376666,-10.006566,0.6979098
1587563360133,-0.830788,-10.429143,-0.973243
1587563360146,-0.6464345,-10.406398,-1.8710686
1587563360156,-0.5422867,-11.02889,-1.6017209
1587563360167,-0.35913026,-11.397597,-0.94331545
1587563360177,-0.15083471,-11.167754,-0.010773907
1587563360190,-0.4261679,-10.20289,-0.16280572
1587563360200,-0.52073884,-10.000581,-0.34476504
1587563360210,-0.5614403,-10.068815,-0.7026982
1587563360223,-0.39624038,-10.005369,-0.7661445
1587563360233,-0.2896984,-9.452309,-0.7433996
1587563360243,-0.20829555,-9.615114,-0.39025488
1587563360255,-0.08499416,-9.516952,-0.090979666
1587563360266,-0.09935937,-9.006987,-0.32920274
1587563360276,-0.12689269,-8.973468,-0.33638534
1587563360288,-0.19273324,-8.992621,-0.1388637
1587563360300,-0.16280572,-9.1590185,-0.03232172
1587563360311,-0.25498247,-9.129091,-0.22744916
1587563360321,-0.7661445,-9.545682,-0.6488287
1587563360333,-0.7433996,-9.7958765,-0.6991069
1587563360343,-1.0307038,-9.367314,-0.6895301
1587563360355,-1.1025299,-9.696517,-0.41060558
1587563360365,-0.9792285,-9.858126,-0.31364042
1587563360378,-0.92895025,-10.029311,-0.22026655
1587563360388,-0.91937345,-11.145009,-0.712275
1587563360399,-0.61770403,-11.269507,-0.47046062
1587563360408,-0.5470751,-11.061212,0.49081135
1587563360420,-0.62368953,-10.488997,0.23582886
1587563360433,-0.6596026,-10.120291,0.027533319
1587563360440,-0.82719666,-9.861717,-0.30406362
1587563360452,-0.8415619,-9.726444,-0.557849
1587563360464,-0.973243,-9.606734,-0.59136784
1587563360474,-1.0486604,-9.574412,-0.8726865
1587563360485,-1.2844892,-9.903615,-0.94211835
1587563360496,-1.70946,-10.262746,-1.0953473
1587563360509,-2.3127987,-10.757148,-0.7457938
1587563360518,-2.6443958,-10.770316,-0.5470751
1587563360529,-2.6539726,-10.8182,-0.4405331
1587563360540,-2.4492683,-11.026496,-0.30885202
1587563360551,-2.2301989,-10.749966,-0.5386954
1587563360561,-1.1348516,-9.716867,-0.038307227
1587563360573,0.14604631,-9.339781,0.7673417
1587563360584,-0.21068975,-8.564059,-0.62249243
1587563360594,-0.48243165,-8.645462,-1.448492
1587563360606,-0.60333884,-9.039309,-1.22224
1587563360616,-0.79487497,-9.49301,-0.7098808
1587563360628,-1.1623849,-9.691729,-0.5626374
1587563360639,-1.0462662,-9.764751,-0.62009823
1587563360649,-0.91937345,-9.883265,-0.6500258
1587563360662,-0.7613561,-9.878476,-0.5758055
1587563360673,-0.5494693,-9.91439,-0.4321534
1587563360683,-0.48123455,-10.044873,-0.2681506
1587563360693,-0.5710171,-9.992201,-0.077811554
1587563360705,-0.7290344,-10.13705,-0.10414778
1587563360715,-0.80924016,-9.900024,0.11492168
1587563360728,-0.7733272,-9.7479925,0.17956513
1587563360738,-0.736217,-9.828198,-0.15203181
1587563360748,-0.6344634,-10.131064,-0.2669535
1587563360760,-0.700304,-10.171766,-0.11851298
1587563360769,-0.6691794,-9.659407,-0.23702596
1587563360781,-0.5614403,-9.710882,-0.36152446
1587563360791,-0.5530606,-9.841366,-0.39983168
1587563360803,-0.60214174,-9.80665,-0.40102878
1587563360814,-0.62368953,-9.865308,-0.44532153
1587563360824,-0.6835446,-9.8916445,-0.4261679
1587563360836,-0.7565677,-9.862914,-0.45130703
1587563360847,-0.80564886,-9.953894,-0.51116204
1587563360857,-0.89902276,-9.999383,-0.50757074
1587563360869,-0.8810662,-10.022128,-0.39025488
1587563360879,-0.9780314,-9.860519,-0.521936
1587563360889,-1.009156,-9.854534,-0.51235914
1587563360901,-0.9900024,-9.849746,-0.51475334
1587563360910,-0.9576807,-9.896433,-0.51834464
1587563360922,-0.93493575,-9.894038,-0.5758055
1587563360933,-0.94092125,-9.838972,-0.60453594
1587563360945,-0.9564836,-9.809045,-0.6380547
1587563360955,-0.9696517,-9.791088,-0.6452374
1587563360967,-0.9911995,-9.803059,-0.61291564
1587563360978,-1.0582372,-9.8198185,-0.5650316
1587563360989,-1.0582372,-9.8198185,-0.5650316
1587563360999,-1.0737995,-9.79827,-0.59376204
1587563361011,-1.1073183,-9.81503,-0.6404489
1587563361020,-1.174356,-9.797073,-0.6536171
1587563361033,-1.2090719,-9.76954,-0.6512229
1587563361043,-1.2485762,-9.77792,-0.6572084
1587563361055,-1.2868834,-9.776723,-0.65242
1587563361065,-1.2952632,-9.7863,-0.6655881
1587563361077,-1.3108255,-9.7803135,-0.6871359
1587563361089,-1.3443443,-9.832987,-0.6787562
1587563361097,-1.3443443,-9.832987,-0.6787562
1587563361109,-1.496376,-9.907207,-0.7529764
1587563361121,-1.5885528,-9.940725,-0.7398083
1587563361131,-1.6723499,-9.937134,-0.7445967
1587563361143,-1.7118542,-9.937134,-0.7278373
1587563361153,-1.7034745,-9.910798,-0.7110779
1587563361166,-1.6340426,-9.898827,-0.6811504
1587563361176,-1.5167267,-9.874885,-0.676362
1587563361187,-1.3934253,-9.834184,-0.7278373
1587563361198,-1.2988545,-9.801862,-0.7374141
1587563361208,-1.2401965,-9.752781,-0.7398083
1587563361220,-1.1767502,-9.69532,-0.79008657
1587563361230,-1.1444284,-9.719262,-0.7793127
1587563361242,-1.1192893,-9.7863,-0.7697359
1587563361252,-1.1133038,-9.810242,-0.7398083
1587563361265,-1.0905589,-9.82341,-0.7266402
1587563361274,-1.0714053,-9.79827,-0.7086837
1587563361285,-1.0378864,-9.794679,-0.6775591
1587563361297,-1.0007763,-9.781511,-0.6979098
1587563361307,-1.1001357,-9.7803135,-0.7457938
1587563361318,-1.1767502,-9.764751,-0.7086837
1587563361329,-1.2282255,-9.738416,-0.6823475
1587563361341,-1.2270284,-9.716867,-0.6679823
1587563361350,-1.2150574,-9.721656,-0.676362
1587563361361,-1.2198458,-9.770737,-0.62608373
1587563361373,-1.210269,-9.822212,-0.5662287
1587563361385,-1.1803415,-9.901221,-0.48602295
1587563361397,-1.1264719,-9.947908,-0.4249708
1587563361408,-1.0821792,-9.980229,-0.4369418
1587563361418,-1.0055647,-9.834184,-0.5805939
1587563361431,-0.9828198,-9.759963,-0.6739678
1587563361441,-0.94451255,-9.68694,-0.7541735
1587563361451,-0.94211835,-9.668983,-0.81163436
1587563361464,-0.9696517,-9.662998,-0.94690675
1587563361475,-1.0857705,-9.716867,-0.93014735
1587563361485,-1.2234371,-9.788693,-0.82480246
1587563361496,-1.3670892,-9.853337,-0.6967127
1587563361506,-1.447295,-9.878476,-0.6799533
1587563361519,-1.5478514,-9.91439,-0.79846627
1587563361529,-1.5658079,-9.946711,-0.80804306
1587563361541,-1.5382746,-9.939528,-0.82480246
1587563361552,-1.4700398,-9.938332,-0.82121116
1587563361563,-1.364695,-9.908403,-0.81642276
1587563361573,-1.2785037,-9.837775,-0.8451532
1587563361585,-1.1959038,-9.7803135,-0.8415619
1587563361596,-1.1312603,-9.730036,-0.8714894
1587563361606,-1.0821792,-9.691729,-0.91937345
1587563361619,-1.1085154,-9.680955,-1.0342951
1587563361630,-1.1623849,-9.651027,-1.0283096
1587563361640,-1.2162545,-9.617508,-0.92775315
1587563361653,-1.2198458,-9.622296,-0.8571242
1587563361663,-1.2090719,-9.635465,-0.81283146
1587563361673,-1.198298,-9.580399,-0.7422025
1587563361685,-1.151611,-9.563639,-0.641646
1587563361697,-1.091756,-9.676167,-0.5662287
1587563361707,-1.0702082,-9.800665,-0.51475334
1587563361718,-1.0570401,-10.049662,-0.50517654
1587563361729,-1.0414777,-10.092757,-0.5279215
1587563361738,-0.9900024,-10.060435,-0.60932434
1587563361751,-0.94092125,-9.998186,-0.7374141
1587563361758,-0.94092125,-9.998186,-0.7374141
1587563361770,-0.91099375,-9.900024,-1.0127473
1587563361782,-0.9696517,-9.731233,-1.1133038
1587563361793,-1.0594343,-9.599552,-1.0845734
1587563361803,-1.1683705,-9.5732155,-1.0031705
1587563361815,-1.2653356,-9.630676,-0.8738836
1587563361826,-1.352724,-9.714474,-0.79607207
1587563361836,-1.411382,-9.821015,-0.712275
1587563361848,-1.5646108,-10.103531,-0.6859388
1587563361858,-1.5646108,-10.115502,-0.7110779
1587563361870,-1.5334862,-9.965864,-0.7194576
1587563361881,-1.459266,-9.762358,-0.6787562
1587563361891,-1.4317327,-9.591172,-0.80924016
1587563361904,-1.3682863,-9.568427,-0.91458505
1587563361914,-1.3144168,-9.598354,-0.91338795
1587563361924,-1.2904748,-9.698911,-0.7398083
1587563361936,-1.2282255,-9.7240505,-0.7433996
1587563361946,-1.1228806,-9.745598,-0.79966336
1587563361958,-1.0019734,-9.755175,-0.7457938
1587563361967,-0.89184016,-9.835381,-0.6799533
1587563361982,-0.7015011,-9.865308,-0.61890113
1587563361991,-0.5470751,-9.837775,-0.7637503
1587563362001,-0.36631286,-9.734824,-1.0163386
1587563362013,-0.19273324,-9.557653,-1.2018893
1587563362024,-0.12210429,-9.488221,-1.1444284
1587563362035,-0.15442601,-9.588778,-1.0354922
1587563362045,-0.035913024,-9.746795,-0.82360536
1587563362056,0.1604115,-9.91439,-0.90740246
1587563362068,0.22385786,-9.775525,-1.0342951
1587563362078,-0.24779987,-9.397242,-1.1468226
1587563362089,-0.5530606,-9.411607,-0.90381116
1587563362100,-0.9588778,-9.372103,-1.0857705
1587563362111,-1.1468226,-9.3661175,-0.9564836
1587563362123,-1.1085154,-9.376891,-0.93732995
1587563362132,-0.9804256,-9.332599,-0.82121116
1587563362143,-0.748188,-9.482236,-0.6907272
1587563362155,-0.29209262,-9.5385,-1.2198458
1587563362167,-0.033518825,-9.714474,-1.0881647
1587563362177,0.36631286,-9.809045,-0.81283146
1587563362189,1.2174516,-9.908403,-1.091756
1587563362198,1.3000516,-9.985018,-0.82480246
1587563362211,1.1611878,-10.180145,-0.40821138
1587563362221,1.1540052,-10.210073,-0.20470424
1587563362231,1.1432313,-10.101137,-0.18914193
1587563362243,1.0737995,-9.916783,-0.20111294
1587563362253,1.0043676,-9.749189,-0.24660277
1587563362265,0.89902276,-9.629479,-0.50876784
1587563362276,0.78529817,-9.534908,-0.7529764
1587563362287,0.5374983,-9.519346,-1.0773908
1587563362298,0.17597382,-9.496601,-1.2665327
1587563362309,-0.35793316,-9.489418,-1.3227965
1587563362319,-0.44891283,-9.435549,-1.2653356
1587563362331,-0.49440265,-9.384073,-1.1971009
1587563362341,-0.50876784,-9.384073,-1.0103531
1587563362353,-0.47884035,-9.4774475,-0.82480246
1587563362363,-0.36152446,-9.697714,-0.80804306
1587563362375,-0.22026655,-10.010158,-1.0630256
1587563362385,-0.14724341,-10.109517,-0.80086046
1587563362397,0.022744916,-9.822212,-0.8631097
1587563362408,0.39983168,-9.617508,-1.0642227
1587563362418,0.46447513,-9.903615,-1.4856021
1587563362430,0.50278234,-10.315418,-1.7884687
1587563362441,0.60453594,-10.732009,-1.8291701
1587563362451,0.8439561,-11.07438,-1.7884687
1587563362464,1.1587936,-11.362882,-1.6783354
1587563362474,1.4532804,-11.6190605,-1.5514427
1587563362484,1.7034745,-11.672931,-1.3742718
1587563362496,1.79206,-11.6442,-1.1492168
1587563362507,1.7513585,-11.779472,-1.009156
1587563362517,1.6160861,-11.930307,-0.9648633
1587563362530,3.453636,-13.694834,-3.0418332
1587563362540,-0.81522566,-12.081141,-0.6835446
1587563362550,-0.6404489,-12.211626,-0.90500826
1587563362562,-0.34715924,-12.952631,-1.4257472
1587563362572,-0.18914193,-13.395558,-1.0247183
1587563362584,-0.34117374,-13.781025,-0.51116204
1587563362595,-0.32920274,-13.80377,-0.32202014
1587563362605,0.29568392,-13.335704,0.04309563
1587563362617,0.6512229,-13.201628,1.1468226
1587563362628,1.4293385,-13.443442,2.2278047
1587563362638,1.9333179,-13.403938,2.859874
1587563362650,1.0462662,-11.287464,3.904943
1587563362660,0.6631939,-10.480618,3.2453403
1587563362672,0.6572084,-10.414778,2.528277
1587563362683,0.62967503,-11.536461,-0.7589619
1587563362693,0.50517654,-12.621035,-3.1663318
1587563362705,-0.01316811,-13.605051,-2.6120741
1587563362716,-1.5286977,-14.592659,-0.11492168
1587563362726,-3.2501287,-15.263036,2.219425
1587563362739,-4.0653543,-14.682442,2.1499932
1587563362745,-4.0653543,-14.682442,2.1499932
1587563362757,-3.4524388,-14.2143755,0.32321724
1587563362769,-1.6938977,-13.594277,-2.0626047
1587563362781,-0.81761986,-13.875596,0.08738836
1587563362791,0.41180268,-13.796587,2.8215668
1587563362803,1.9991584,-13.196839,3.526659
1587563362814,1.2497733,-14.215572,0.79966336
1587563362824,0.1340753,-14.911088,-1.4556746
1587563362837,-1.4939818,-12.741941,-2.9903579
1587563362849,-3.064578,-8.310274,-2.1212628
1587563362856,-3.064578,-8.310274,-2.1212628
1587563362868,-3.3411086,-5.815516,-1.3192052
1587563362879,-3.0059202,-4.9799395,-1.4149733
1587563362890,-2.5629928,-4.35625,-0.48482585
1587563362902,-1.9309237,-4.1012673,-0.4297592
1587563362913,-1.2689269,-3.7972038,0.0023942017
1587563362924,-0.8846575,-3.7612908,0.39384618
1587563362935,-0.6512229,-3.5817258,0.533907
1587563362946,-0.3866636,-3.2249897,0.6452374
1587563362957,-0.6560113,-2.8191724,0.01316811
1587563362966,-0.81163436,-2.5809495,0.11611878
1587563362977,-1.0833763,-2.4181437,-0.5566519
1587563362989,-1.5490485,-2.0135236,-1.0869676
1587563363001,-1.7154455,-1.8004397,-0.80684596
1587563363011,-1.7034745,-1.6196774,-0.47405192
1587563363023,-1.5933412,-1.448492,-0.01316811
1587563363033,-1.3994108,-1.5035586,0.60932434
1587563363045,-1.1492168,-1.6711528,1.4736311
1587563363058,0.39264908,-3.4488475,5.7185507
1587563363068,0.39264908,-3.4488475,5.7185507
1587563363080,2.8550856,-7.428011,8.082825
1587563363090,3.727772,-11.358093,10.596737
1587563363102,4.4544125,-17.73864,12.739547
1587563363113,4.5633483,-28.186937,13.578715
1587563363124,3.645172,-35.545517,14.591462
1587563363134,1.103727,-29.099127,13.6649065
1587563363146,0.1448492,-18.000805,12.431892
1587563363156,0.63206923,-10.314221,9.343372
1587563363172,1.3862427,-1.8842367,5.8598084
1587563363182,0.6440403,-1.8674773,4.4927197
1587563363194,-5.0302176,-14.451402,7.8326306
1587563363204,-5.0302176,-14.451402,7.8326306
1587563363216,-6.303933,-25.52698,6.0489507
1587563363226,-5.133168,-37.878666,-2.5354595
1587563363238,6.1004257,-35.35757,-12.819753
1587563363248,8.294712,-16.919823,-8.645462
1587563363260,-7.7799582,9.151836,-12.144588
1587563363271,-14.632164,15.354015,10.890026
1587563363281,-12.421119,11.014524,-3.5673606
1587563363293,-7.5213847,2.1942859,-12.071565
1587563363301,-7.457938,-9.977836,-11.109096
1587563363313,-7.7907324,-18.478449,-5.363012
1587563363326,-5.8741736,-22.750902,3.2561142
1587563363336,-1.2114661,-21.824347,3.003526
1587563363347,2.1511903,-18.09777,-2.2852654
1587563363357,4.2521024,-15.788563,-4.259285
1587563363369,7.1754227,-13.312959,-1.7322049
1587563363380,7.025785,-10.833763,-0.038307227
1587563363391,5.5701103,-8.665813,1.246182
1587563363401,4.653131,-8.63828,1.2737153
1587563363413,3.7098155,-8.734048,-0.19752164
1587563363424,2.8766334,-8.030152,-1.8375498
1587563363434,2.433706,-7.359776,-2.4396915
1587563363448,2.1930888,-6.8282633,-2.2720973
1587563363458,1.7621324,-6.8557963,-1.769315
1587563363468,1.2761095,-7.536947,-1.3395559
1587563363478,-1.6543933,-8.659827,-0.6871359
1587563363491,-3.0813377,-8.736442,-0.4357447
1587563363501,-3.5051112,-8.724471,0.15682021
1587563363511,-2.2864625,-8.522161,1.2605472
1587563363523,-1.4987702,-8.623915,0.9900024
1587563363533,-1.0223241,-9.1829605,0.91937345
1587563363546,-0.7146692,-9.718064,0.62488663
1587563363557,-0.29448682,-9.810242,-0.33399114
1587563363567,0.3196259,-9.552865,-1.484405
1587563363577,1.1073183,-9.707291,-1.2749124
1587563363590,1.8531121,-10.697293,-1.2964603
1587563363600,1.614889,-11.145009,-1.0809821
1587563363611,1.271321,-11.608287,0.2705448
1587563363622,1.2162545,-11.845313,1.8662802
1587563363633,1.6639702,-11.587936,2.814384
1587563363642,2.372654,-11.158177,2.5187001
1587563363653,2.8263552,-10.800244,1.2641385
1587563363665,2.801216,-10.930728,-0.3878607
1587563363676,2.597709,-11.355699,-1.2497733
1587563363687,2.5139117,-11.520899,-1.3551182
1587563363698,2.4827871,-11.063606,-0.59974754
1587563363709,2.6767175,-11.062409,0.17956513
1587563363720,2.8119898,-11.337742,0.51595044
1587563363731,2.907758,-11.623849,0.6607997
1587563363741,2.9125464,-12.006922,1.2030864
1587563363753,2.9616275,-12.310986,0.6931214
1587563363763,2.6886885,-12.7096195,-0.15442601
1587563363775,2.3894134,-13.181277,-0.089782566
1587563363786,2.2134395,-13.212402,-0.34117374
1587563363796,1.6998832,-12.283452,-1.0546459
1587563363809,-0.736217,-15.3193,-1.875857
1587563363819,-3.323152,-15.788563,-1.0498575
1587563363829,-5.6419363,-15.154099,0.19393034
1587563363841,-7.3537903,-14.385561,0.10175357
1587563363849,-8.566454,-14.192827,-2.067393
1587563363861,-9.5732155,-15.020024,-3.229778
1587563363873,-10.387244,-16.403873,-2.5917234
1587563363883,-10.648212,-17.179594,-0.8583213
1587563363895,-10.226832,-16.163256,0.49440265
1587563363906,-9.066842,-14.2143755,1.4867992
1587563363917,-6.9970546,-12.7814455,2.0350714
1587563363927,-4.868609,-12.674904,3.6595373
1587563363940,0.16879122,-11.602302,4.009091
1587563363950,2.2732944,-12.36246,1.1887212
1587563363963,4.177882,-13.897143,-0.5710171
1587563363973,3.9193082,-13.104663,-0.07182605
1587563363983,2.778471,-11.137826,-1.673547
1587563363995,1.0618285,-8.64666,-3.05141
1587563364006,-0.8367735,-6.777985,-3.2632968
1587563364016,-2.2756886,-5.3737855,-2.6743233
1587563364028,-3.074155,-4.0462008,-2.0410569
1587563364038,-3.072958,-2.3570917,-0.37828386
1587563364050,-2.4384944,-2.2373815,0.5614403
1587563364061,-1.3515269,-2.6767175,0.7529764
1587563364071,-0.40102878,-3.1591492,0.36272156
1587563364083,0.45968673,-3.2872388,0.7386112
1587563364094,0.8655039,-3.4129345,0.92176765
1587563364104,0.79487497,-3.3554738,0.78888947
1587563364116,0.1328782,-2.8514943,0.6631939
1587563364127,-0.7565677,-2.220622,0.12808979
1587563364138,-1.5119383,-1.7753005,-0.3866636
1587563364148,-1.958457,-1.5155296,-0.6619968
1587563364160,-1.7369933,-1.4532804,-0.2753332
1587563364171,-1.2665327,-1.7753005,0.2645593
1587563364181,-0.93613285,-2.1511903,0.8595184
1587563364193,-0.6895301,-2.5115175,3.0478187
1587563364203,-0.37828386,-4.1838675,5.1343656
1587563364215,0.023942016,-5.2169657,7.6853876
1587563364226,0.6751649,-7.1143703,10.085575
1587563364237,1.5514427,-10.694899,12.028469
1587563364248,2.5677812,-15.709555,14.7877865
1587563364258,4.1491513,-22.545,15.927426
1587563364271,4.2700586,-30.10948,14.895526
1587563364281,2.348712,-20.50993,13.402741
1587563364302,-0.30406362,-10.350134,10.059238
1587563364314,-3.333926,-10.747571,6.6726403
1587563364318,-3.333926,-10.747571,6.6726403
1587563364328,-7.3047094,-11.918336,2.3439236
1587563364338,-14.112622,-13.729549,-0.34835634
1587563364348,-13.238738,-17.557878,3.6894648
1587563364358,-6.633136,-17.79251,1.6053122
1587563364372,3.490746,-15.793351,-4.2293572
1587563364382,5.9148755,-9.927557,-7.8050976
1587563364392,1.4796166,-1.7286136,-10.366894
1587563364404,-3.4883518,2.7844565,-7.5561004
1587563364415,-7.502231,3.927688,4.782418
1587563364425,-5.043386,-2.6192567,-5.8681884
1587563364439,-1.1899183,-9.015367,-9.755175
1587563364448,-1.5741876,-14.301764,-3.8151605
1587563364458,-1.2892777,-19.822792,1.8662802
1587563364470,1.0426749,-20.43092,1.7393875
1587563364480,3.0777464,-17.483658,-0.32441434
1587563364491,4.334702,-14.812926,-2.9747956
1587563364504,5.2600613,-13.144167,-3.040636
1587563364510,5.7760115,-11.993753,-2.3690627
1587563364522,5.639542,-10.405201,-0.25139117
1587563364535,4.6232033,-8.725668,0.9959879
1587563364545,3.156755,-7.880515,1.2964603
1587563364557,1.9907787,-7.6949644,0.3878607
1587563364568,1.0941502,-7.8182654,-0.92895025
1587563364578,-0.15682021,-8.051701,-1.352724
1587563364590,-0.7793127,-7.7189064,-1.2282255
1587563364600,-1.0893618,-7.3047094,-1.4209588
1587563364612,-1.484405,-7.2352777,-0.93613285
1587563364620,-1.9967642,-7.6387005,0.02873042
1587563364632,-2.743755,-8.1881695,0.58538234
1587563364644,-3.4404678,-8.191761,0.6380547
1587563364654,-3.1747115,-7.902063,1.3503298
1587563364666,-1.7034745,-8.677784,1.8986019
1587563364677,-0.029927522,-8.98903,1.3335704
1587563364688,1.6484078,-9.053674,-0.5303157
1587563364698,3.016694,-9.015367,-2.0266917
1587563364710,3.9025488,-9.210494,-1.0570401
1587563364720,2.8000188,-9.192537,0.033518825
1587563364732,1.5765818,-9.895236,1.6041151
1587563364743,0.93014735,-10.921151,2.789245
1587563364753,0.8834604,-11.768699,3.0382419
1587563364765,1.2294226,-12.02009,2.337938
1587563364775,1.7741034,-12.199655,0.9947908
1587563364789,2.8395233,-12.343307,-0.51475334
1587563364799,3.0801406,-11.965023,-0.108936176
1587563364810,3.2190042,-11.23958,0.6907272
1587563364820,3.3662477,-11.040861,0.78649527
1587563364830,3.5889084,-11.43351,0.33039984
1587563364843,3.6619315,-12.000936,-0.23822308
1587563364853,3.3662477,-12.197261,-0.34715924
1587563364863,2.7401638,-11.955446,0.088585466
1587563364875,2.384625,-11.771092,0.03232172
1587563364886,1.9991584,-12.867637,-0.6847417
1587563364898,1.7393875,-13.986926,-0.079008654
1587563364909,1.9752164,-13.754689,-0.93493575
1587563364920,1.6831238,-15.33965,-2.255338
1587563364930,0.260968,-16.73547,-1.9033904
1587563364941,-2.8060043,-15.405491,-0.6560113
1587563364951,-5.094861,-14.790181,-0.45729253
1587563364963,-6.918046,-14.523228,-2.7497406
1587563364974,-8.678981,-15.38514,-3.2824504
1587563364984,-10.077195,-17.002424,-2.1033063
1587563364996,-10.453085,-17.958906,-1.3455414
1587563365009,-9.908403,-17.161638,-0.6943185
1587563365020,-7.103596,-15.920244,2.801216
1587563365030,-3.9252937,-14.615404,3.466804
1587563365040,-1.1540052,-14.207192,2.360683
1587563365051,0.8655039,-14.686033,0.5255273
1587563365061,2.7222073,-14.743494,0.10534488
1587563365073,3.7708676,-14.853627,1.1097125
1587563365083,3.7708676,-14.4107,1.2868834
1587563365095,2.7222073,-12.838906,-1.1683705
1587563365105,1.6005238,-10.676943,-2.9712043
1587563365117,0.11851298,-6.4787097,-4.220978
1587563365127,-0.878672,-4.594473,-4.2904096
1587563365139,-1.9213469,-2.1583729,-1.6663644
1587563365150,-2.27928,-1.6675615,-0.9744401
1587563365160,-2.348712,-1.6448165,-0.6991069
1587563365172,-1.9536686,-1.6340426,-0.088585466
1587563365182,-1.4688427,-1.484405,0.5422867
1587563365194,-0.8475474,-1.6747441,1.0019734
1587563365206,-0.32800564,-1.922544,0.79487497
1587563365217,-0.079008654,-2.0590134,0.59376204
1587563365228,-0.5267244,-1.3443443,-0.90859956
1587563365238,-0.8822633,-1.270124,-1.3443443
1587563365249,-1.1827357,-1.2844892,-1.471237
1587563365258,-1.364695,-1.3012487,-1.1563994
1587563365269,-1.3299791,-1.532289,-0.63087213
1587563365278,-1.1336545,-1.9488802,-0.17118542
1587563365289,-1.0259154,-2.6300306,0.7661445
1587563365300,-0.7350199,-3.430891,2.6994624
1587563365311,-0.110133275,-4.4101195,5.436035
1587563365323,0.59256494,-6.063316,7.9331875
1587563365335,1.7944542,-13.856442,15.929821
1587563365344,3.630807,-22.102074,22.183475
1587563365356,4.8039656,-36.08062,19.841946
1587563365369,-0.7637503,-26.866535,13.561955
1587563365379,-1.7812861,-14.639346,10.514136
1587563365391,-1.6627731,-7.189788,8.2995
1587563365400,-2.055422,-5.392939,5.163096
1587563365412,-4.345476,-6.5445504,3.6379895
1587563365425,-9.001001,-8.939949,3.5853171
1587563365434,-11.908759,-13.643358,5.3474493
1587563365446,-11.064803,-19.782091,6.715736
1587563365457,-4.1838675,-21.483171,-1.9788077
1587563365467,6.0046577,-18.476055,-11.32218
1587563365480,1.6124948,-0.9828198,-10.5680065
1587563365491,-3.9815574,4.5860934,-8.851364
1587563365501,-9.40203,7.6494746,8.846576
1587563365513,-12.032061,6.4284315,12.846089
1587563365523,-6.325481,1.5107412,-6.051345
1587563365536,-1.6783354,-3.7984009,-10.1143055
1587563365547,-0.7673417,-8.3868885,-9.391256
1587563365557,-1.5993267,-13.359646,-4.876989
1587563365567,0.997185,-21.072567,2.7617116
1587563365579,6.8893156,-17.18917,-1.4856021
1587563365590,7.9212165,-14.802152,-2.992752
1587563365600,7.976283,-11.650186,-2.4025815
1587563365612,6.88333,-8.878897,-0.81881696
1587563365622,4.6698904,-7.4986396,1.1935096
1587563365635,2.469619,-7.043741,1.9093759
1587563365645,0.9876082,-7.023391,1.365892
1587563365655,0.034715924,-7.1502833,0.11851298
1587563365667,-0.7314286,-7.5668745,-0.92416185
1587563365677,-1.5442601,-7.750031,-1.9093759
1587563365689,-2.3582888,-7.800309,-0.6572084
1587563365700,-2.8275523,-7.9930425,0.059855044
1587563365710,-3.6643257,-8.451532,0.011971008
1587563365722,-4.51307,-8.875306,-0.2777274
1587563365733,-4.7022123,-8.916007,-0.5566519
1587563365743,-4.104859,-8.371326,-0.56982
1587563365755,-2.468422,-8.433576,0.14963761
1587563365766,-1.0390835,-8.750807,0.62967503
1587563365777,0.01436521,-9.056067,0.6823475
1587563365787,1.0821792,-9.435549,-0.10654198
1587563365800,3.6248214,-9.392453,-2.0626047
1587563365810,3.3913867,-9.551667,-1.3874398
1587563365820,2.7760768,-10.042479,-0.25977087
1587563365833,2.3355439,-10.825383,1.1791444
1587563365843,1.9788077,-11.6430025,2.3391352
1587563365853,1.6747441,-12.293029,2.979584
1587563365866,1.5047557,-12.433089,2.89459
1587563365877,1.6555905,-12.3038025,1.9907787
1587563365887,2.1775265,-12.434286,0.7637503
1587563365899,3.2740707,-12.0332575,-0.29328972
1587563365909,3.3877954,-11.620258,0.11492168
1587563365919,3.3985693,-11.32218,0.38067806
1587563365930,3.3530796,-11.354502,0.39264908
1587563365940,3.122039,-11.574768,0.45729253
1587563365953,2.706645,-11.554418,0.90500826
1587563365963,2.3774424,-11.377247,1.5825673
1587563365973,2.256535,-11.34253,1.9009962
1587563365985,2.2649148,-11.6908865,0.62249243
1587563365997,1.9955671,-12.668919,-0.093373865
1587563366007,1.6915035,-13.897143,0.24779987
1587563366016,1.7956513,-14.273033,-0.6871359
1587563366028,-0.29328972,-15.901091,-1.115698
1587563366039,-2.956839,-14.891934,-0.48243165
1587563366048,-5.069722,-13.883976,-1.2114661
1587563366059,-6.955156,-13.571532,-2.6479871
1587563366070,-8.793902,-14.976929,-1.2940661
1587563366081,-9.885659,-17.419014,-0.6536171
1587563366093,-9.572019,-18.907011,-1.9381063
1587563366105,-8.024167,-18.217482,-0.5243302
1587563366115,-6.199785,-17.838,1.4652514
1587563366127,-3.705027,-16.609774,3.3626564
1587563366138,-1.4030021,-15.533581,3.4703953
1587563366150,1.8806454,-15.411476,-1.1456255
1587563366158,1.8806454,-15.411476,-1.1456255
1587563366170,2.6240451,-14.178462,2.112883
1587563366183,1.4173675,-13.135788,-0.6811504
1587563366193,0.37588966,-10.793061,-2.6623523
1587563366205,-0.045489833,-8.698134,-2.5594015
1587563366215,-0.39264908,-7.0784574,-3.25372
1587563366225,-0.8415619,-5.2480903,-4.1922474
1587563366237,-1.2174516,-3.6284127,-4.1623197
1587563366248,-2.1380222,-1.3455414,-1.2413936
1587563366258,-1.9321208,-0.8523358,-0.545878
1587563366273,-1.4987702,-0.39145198,-0.30885202
1587563366281,-1.2054806,-0.17238252,-0.18674773
1587563366291,-0.7433996,-0.18794483,-0.22385786
1587563366303,-0.5255273,-0.5315128,-0.051475335
1587563366314,-0.7230489,-0.8295909,-0.2741361
1587563366324,-1.2186487,-0.93014735,-0.6835446
1587563366336,-1.7058687,-1.1959038,-0.9816227
1587563366347,-2.135628,-1.4161704,-1.3467385
1587563366357,-2.3750482,-1.5334862,-1.1719618
1587563366369,-2.0099323,-2.554613,0.29807812
1587563366378,-1.5143325,-3.1914709,1.6041151
1587563366390,-0.81522566,-3.7337575,3.7816415
1587563366400,0.14963761,-4.614824,6.89171
1587563366413,1.1540052,-6.1638722,9.657013
1587563366423,1.5239093,-9.411607,13.941437
1587563366433,1.9740193,-16.565481,22.663513
1587563366444,5.269638,-27.993006,21.680693
1587563366456,5.625177,-39.221813,16.935387
1587563366467,2.2852654,-39.09013,16.831238
1587563366478,-1.4856021,-11.184513,9.502586
1587563366488,-0.7661445,-4.2820296,7.3777328
1587563366500,-1.7968484,1.8950106,3.6044707
1587563366510,-4.0054994,2.7377696,2.9496565
1587563366522,-4.6686935,1.2808979,3.9432502
1587563366532,-4.900931,-2.3714569,4.477157
1587563366544,-6.081272,-7.2448545,-1.0965444
1587563366554,-7.5165963,-14.026431,-3.3913867
1587563366566,-6.9719152,-21.659145,-7.4866686
1587563366576,-4.711789,-23.74689,-6.2632318
1587563366588,0.62847793,-11.851298,-2.2613235
1587563366596,0.62847793,-11.851298,-2.2613235
1587563366608,-5.112818,-5.4085016,3.1735144
1587563366620,-4.8626237,-5.007473,-2.694674
1587563366631,-3.9336734,-4.4663835,-7.2951326
1587563366641,-3.0753522,-4.617218,-5.603629
1587563366653,-2.5761611,-6.649895,-3.122039
1587563366663,-2.1332338,-8.611943,-0.18555063
1587563366675,-1.0079589,-10.338163,1.1647792
1587563366686,0.6619968,-12.076353,0.15442601
1587563366697,2.4289176,-13.300987,-1.4269443
1587563366707,4.2197804,-14.477737,-5.5270147
1587563366720,5.257667,-13.480553,-3.1483753
1587563366730,5.185841,-11.520899,-0.89184016
1587563366741,4.630386,-9.868899,1.2366052
1587563366751,3.5051112,-9.172187,3.0238767
1587563366763,1.9069817,-7.8865004,2.542642
1587563366773,-0.12090719,-7.1155677,0.02633622
1587563366787,-1.9213469,-6.5601125,-1.6699557
1587563366797,-2.9257145,-6.081272,-1.9967642
1587563366806,-2.9053638,-6.7121444,-0.664391
1587563366819,-3.6332011,-9.100361,-0.29688102
1587563366828,-3.8726213,-9.173384,-0.34476504
1587563366839,-3.1280246,-8.628703,0.7769185
1587563366851,-1.7908629,-8.222886,1.5885528
1587563366862,-0.45250413,-8.669404,1.210269
1587563366873,0.7613561,-8.834604,1.0642227
1587563366884,1.7166426,-9.0237465,0.45130703
1587563366895,2.670732,-9.229648,-0.91817635
1587563366907,3.6715083,-9.749189,-1.6663644
1587563366918,4.3394904,-10.004171,-1.3215994
1587563366928,1.9716251,-11.432313,2.8658595
1587563366940,1.4520833,-12.075156,3.642778
1587563366951,1.3467385,-12.017695,3.6703112
1587563366961,1.5873557,-11.744757,2.706645
1587563366973,2.2014685,-12.005724,0.91219085
1587563366984,2.8000188,-12.263102,-0.30286652
1587563366994,3.1902738,-12.190078,-0.49799395
1587563367006,3.371036,-11.83813,-0.079008654
1587563367017,3.515885,-11.343728,0.5626374
1587563367028,3.739743,-11.415554,0.8403648
1587563367038,3.9516299,-12.328941,0.49440265
1587563367050,3.9743748,-12.400767,0.7218518
1587563367060,4.083311,-12.700043,0.40342298
1587563367073,3.7110126,-13.459004,-0.48003745
1587563367083,3.205836,-14.168885,-0.9900024
1587563367093,3.1435869,-14.292187,-1.5717934
1587563367105,2.1140802,-13.066356,-2.2840683
1587563367115,0.015562311,-13.297397,-2.1883004
1587563367128,-4.7381253,-16.133327,-0.008379706
1587563367141,-4.7381253,-16.133327,-0.008379706
1587563367147,-8.238448,-13.789405,-0.22026655
1587563367158,-9.995792,-15.002068,-2.765303
1587563367170,-10.68652,-16.785748,-2.006341
1587563367182,-10.977415,-17.100586,-1.614889
1587563367196,-10.867282,-16.20276,-0.82480246
1587563367206,-9.548077,-14.730326,2.3810337
1587563367218,-6.8246717,-14.00608,4.796783
1587563367228,-3.2932243,-14.128184,5.4061074
1587563367238,-0.50397944,-14.662091,3.0142999
1587563367248,1.3563153,-14.812926,-0.7338228
1587563367260,3.6715083,-14.028825,0.62488663
1587563367270,3.3518825,-13.10586,-0.748188
1587563367283,2.932897,-11.062409,-2.731784
1587563367293,1.922544,-9.038112,-3.477578
1587563367303,0.6344634,-7.2029557,-2.7222073
1587563367315,-0.91697925,-5.3462524,-2.5558102
1587563367327,-1.8207904,-3.4979286,-0.8571242
1587563367340,-2.2864625,-1.8303672,0.40222588
1587563367351,-1.8076223,-1.4508862,0.5674258
1587563367361,-1.1923125,-1.5298948,0.7038953
1587563367373,-0.5805939,-1.8076223,0.40342298
1587563367384,0.017956512,-1.8028339,-0.17118542
1587563367394,-0.31364042,-1.6771383,-0.22505496
1587563367406,-0.7422025,-1.5059528,-0.49919105
1587563367417,-1.3096284,-0.8511387,-0.62129533
1587563367427,-1.8950106,-0.33638534,-0.62009823
1587563367439,-2.3906105,-0.10414778,-0.48602295
1587563367449,-2.267309,-0.1448492,-0.12449849
1587563367462,-1.9476831,-0.45609543,0.5363012
1587563367472,-1.520318,-1.1575965,1.6364368
1587563367484,-0.9744401,-2.1092918,3.5877113
1587563367494,-0.2801216,-3.1771057,6.953959
1587563367506,0.5327099,-5.043386,10.291476
1587563367517,1.2653356,-8.337808,15.363592
1587563367527,2.6874914,-15.44739,21.131224
1587563367539,6.8581905,-39.221813,14.7399025
1587563367549,2.1775265,-39.213432,15.822082
1587563367562,-2.4588451,-25.057714,12.896367
1587563367572,-3.8426938,-12.585121,10.754754
1587563367583,-3.3363202,-5.2409077,9.734824
1587563367593,-3.678691,-2.6240451,7.69257
1587563367605,-5.831078,-2.4768016,4.0857053
1587563367615,-11.419145,-3.8893807,2.244564
1587563367628,-9.871294,-19.929335,5.076905
1587563367637,-9.871294,-19.929335,5.076905
1587563367649,7.9463553,-20.160376,-11.8094
1587563367658,5.6239796,-9.029732,-8.239645
1587563367670,-0.32561144,0.11971009,-10.907983
1587563367682,-6.337452,5.115212,-5.380968
1587563367692,-10.212467,6.3781533,10.0029745
1587563367704,-9.404425,3.0909145,4.7321396
1587563367714,-4.132392,-0.92296475,-5.898116
1587563367726,-1.1671734,-5.8921304,-8.716091
1587563367736,-0.30885202,-9.957485,-7.369353
1587563367749,-0.33518824,-18.584991,4.1503487
1587563367759,2.1057005,-21.065384,2.6324248
1587563367769,5.5641246,-20.256144,-0.5351041
1587563367782,7.667431,-16.924612,-1.7645266
1587563367792,7.6027875,-13.415909,-2.4372973
1587563367802,6.1195793,-10.596737,-2.0338743
1587563367814,4.3754034,-8.791509,0.4369418
1587563367824,2.5127146,-7.207744,2.1859062
1587563367836,0.94331545,-6.339846,3.0478187
1587563367846,-0.46327803,-6.6415157,0.45489833
1587563367860,-1.3994108,-8.195353,-2.7246015
1587563367870,-1.3096284,-8.774749,-1.757344
1587563367880,-1.3982137,-8.98903,-1.946486
1587563367890,-1.650802,-8.865729,-1.9285295
1587563367903,-1.7992426,-8.985439,-0.8283938
1587563367913,-1.9656396,-9.326612,-0.21667525
1587563367926,-2.3535004,-9.763555,-0.36511576
1587563367936,-2.4636335,-9.753978,-0.51595044
1587563367947,-1.8650831,-9.062054,0.31004912
1587563367958,-0.82121116,-8.395268,1.6915035
1587563367968,-0.5770026,-8.701726,1.1851299
1587563367980,-0.1340753,-8.896853,0.59256494
1587563367991,0.80325466,-9.197326,0.046686932
1587563368001,1.7585411,-9.522937,-0.78170687
1587563368013,2.4492683,-9.888053,-1.0007763
1587563368024,2.516306,-10.176555,-0.92775315
1587563368034,2.2182279,-10.632649,0.39863458
1587563368046,1.7932571,-11.287464,2.2230163
1587563368058,1.5215151,-11.905168,3.5098996
1587563368068,1.8231846,-12.10269,3.7600937
1587563368078,2.4516625,-11.852495,2.4037786
1587563368090,3.9097314,-12.161347,-0.33039984
1587563368100,3.9432502,-11.74715,-0.7326257
1587563368112,3.83192,-11.218032,-0.4345476
1587563368123,3.821146,-11.033679,0.34715924
1587563368133,3.383007,-11.180922,0.90859956
1587563368145,2.5582044,-11.596316,1.6017209
1587563368155,1.8423382,-11.990162,2.3104045
1587563368167,1.650802,-12.364855,1.9524715
1587563368177,1.5179238,-12.830527,0.031124622
1587563368190,0.62847793,-14.065935,-0.62129533
1587563368200,0.142455,-13.686454,-0.58897364
1587563368210,-0.23582886,-14.3975315,-1.3263878
1587563368222,-1.079785,-15.249867,-1.0127473
1587563368232,-2.067393,-15.095442,-1.127669
1587563368244,-3.3614593,-14.189237,-0.8595184
1587563368255,-4.8961425,-13.912706,-1.4891934
1587563368266,-6.731298,-13.801375,-3.5290532
1587563368277,-8.342596,-14.717158,-3.4249055
1587563368287,-9.593566,-16.269798,-2.3020248
1587563368299,-7.7799582,-16.12854,2.8778305
1587563368309,-4.8159366,-14.905103,3.9025488
1587563368319,-2.0685902,-14.398729,2.9137435
1587563368331,0.10055647,-14.41908,0.37948096
1587563368341,1.9955671,-14.270639,0.108936176
1587563368353,3.6463692,-13.949816,0.7529764
1587563368361,4.0785227,-13.9151,1.3922282
1587563368374,3.2142158,-13.4422455,0.4357447
1587563368384,1.5933412,-11.890802,-2.0087352
1587563368397,0.48602295,-9.901221,-2.5318682
1587563368407,0.090979666,-8.027759,-3.4404678
1587563368416,-0.6823475,-6.017826,-3.6367924
1587563368428,-1.8866309,-2.8323407,-2.2301989
1587563368439,-2.2852654,-2.1260512,-1.4173675
1587563368450,-2.3762453,-1.6160861,-0.60932434
1587563368462,-2.2409728,-1.5370775,0.16400282
1587563368470,-1.99437,-1.5897499,0.48123455
1587563368482,-1.5251064,-1.7286136,0.7134721
1587563368494,-1.1073183,-1.9812019,0.79966336
1587563368505,-0.9672575,-2.2469583,0.6356605
1587563368515,-1.1121067,-2.3403323,0.29448682
1587563368527,-1.8124107,-1.9524715,-0.94451255
1587563368538,-2.1942859,-1.7298107,-0.9672575
1587563368548,-2.079364,-1.8423382,-0.4429273
1587563368560,-1.8734628,-2.0219033,0.16400282
1587563368572,-1.6065093,-2.2984335,0.9816227
1587563368580,-1.3084313,-2.7497406,2.1152773
1587563368592,-0.8870517,-3.3961751,3.8989575
1587563368604,-0.3172317,-4.560954,6.63553
1587563368614,0.32441434,-6.7109475,8.74123
1587563368626,0.5422867,-10.053253,12.324153
1587563368637,1.1899183,-17.20234,19.859903
1587563368647,4.3299136,-30.723593,22.09489
1587563368659,0.82599956,-34.822468,16.390705
1587563368670,-0.91578215,-19.103334,12.436681
1587563368680,-0.6452374,-9.200917,8.747216
1587563368692,0.14604631,-3.596091,5.8622026
1587563368703,0.22146365,0.22984336,3.9863458
1587563368713,-0.85473,2.942474,2.2996306
1587563368725,-3.2082303,2.2050598,1.2665327
1587563368735,-4.900931,-2.303222,2.6156654
1587563368747,-5.9483943,-8.070854,5.366603
1587563368757,-7.2448545,-24.037785,-3.6116533
1587563368769,3.5757403,-21.705833,-7.255628
1587563368779,2.9604304,-8.258799,-8.956709
1587563368791,-1.4688427,-2.0901382,-4.132392
1587563368799,-6.9707184,0.25378537,7.8410106
1587563368812,-10.478224,0.7685388,7.311892
1587563368822,-9.085996,-0.36511576,-5.0625396
1587563368834,-5.7389016,-3.38181,-9.251195
1587563368844,-4.1611223,-7.037756,-7.9870567
1587563368856,-3.8283286,-10.557233,-4.0892963
1587563368867,-3.2477345,-13.512875,0.19871874
1587563368878,-1.3299791,-16.399084,2.4181437
1587563368888,4.485537,-15.360001,-2.2720973
1587563368900,5.3199162,-14.204799,-4.307169
1587563368908,6.25964,-13.532028,-4.128801
1587563368920,6.7121444,-12.484565,-2.7377696
1587563368932,6.233304,-10.304645,-0.4237737
1587563368947,5.2157683,-8.528147,2.1511903
1587563368958,2.4229321,-7.1347213,3.0190883
1587563368967,2.4229321,-7.1347213,3.0190883
1587563368977,1.0726024,-6.706159,0.19033903
1587563368987,-0.79726917,-6.8450227,-1.3922282
1587563368997,-1.3479356,-6.991069,-0.62129533
1587563369008,-1.532289,-8.535329,-0.736217
1587563369017,-1.8291701,-9.136273,-1.9369092
1587563369028,-1.9297266,-9.287108,-2.2397757
1587563369039,-1.6819267,-8.929175,-1.0869676
1587563369050,-1.3515269,-8.317456,0.59256494
1587563369061,-1.2557588,-8.258799,2.160767
1587563369072,-1.3634979,-8.884883,2.861071
1587563369082,-1.4820108,-9.078813,2.597709
1587563369093,-1.0546459,-9.409213,1.4389153
1587563369104,0.17597382,-9.51336,-0.3842694
1587563369115,1.6172832,-9.751583,-2.0278888
1587563369124,2.4133554,-10.1621895,-2.0278888
1587563369135,2.2661119,-10.860099,-0.4237737
1587563369146,1.34195,-11.727997,1.6819267
1587563369158,0.39743748,-12.674904,3.3255463
1587563369171,0.5542577,-12.76349,3.7493198
1587563369181,2.9747956,-12.375628,0.89662856
1587563369192,2.9747956,-12.375628,0.89662856
1587563369203,4.2784386,-12.352883,-0.9600749
1587563369212,5.133168,-11.352107,-0.9935937
1587563369224,5.105635,-11.366472,-0.760159
1587563369231,4.665102,-11.88362,-0.04309563
1587563369242,3.5996823,-12.360066,1.0043676
1587563369254,2.4959552,-12.53604,2.12246
1587563369265,1.9740193,-12.457031,2.4516625
1587563369276,1.8902222,-12.58991,1.0869676
1587563369288,0.7745243,-14.149732,-0.35913026
1587563369299,0.29688102,-14.038402,-0.5530606
1587563369310,-0.0011971008,-13.880384,-1.4856021
1587563369323,-0.6991069,-14.116213,-1.4664485
1587563369333,-1.7944542,-14.239514,-1.1145009
1587563369345,-2.7114334,-14.075512,-0.62009823
1587563369355,-4.2042184,-13.456611,-0.7589619
1587563369367,-5.7389016,-13.295002,-2.1787236
1587563369377,-7.383718,-13.713987,-2.7964275
1587563369389,-9.090784,-16.38472,-0.736217
1587563369399,-8.366538,-16.42183,0.7757214
1587563369412,-7.833828,-17.477673,1.3323733
1587563369422,-5.3318872,-16.530766,2.835932
1587563369432,-2.6384103,-15.974113,2.790442
1587563369444,1.210269,-16.609774,0.22625206
1587563369452,2.7497406,-15.966931,0.7685388
1587563369464,3.1280246,-15.160085,-0.25258827
1587563369477,2.3798366,-13.802573,-2.2146366
1587563369488,-0.11611878,-9.586384,-2.8263552
1587563369498,-0.45729253,-8.08881,-3.7074213
1587563369508,-0.81283146,-6.0262055,-4.0282445
1587563369521,-1.2868834,-3.8031895,-3.53863
1587563369530,-1.6579847,-2.3295584,-2.207454
1587563369542,-1.8028339,-1.174356,-0.88944596
1587563369551,-1.9979613,-0.6332663,-0.34237084
1587563369564,-1.9309237,-0.320823,0.7661445
1587563369573,-1.7022774,-0.5602432,1.6867151
1587563369585,-1.6627731,-0.81642276,1.0390835
1587563369597,-1.340753,-0.93732995,0.9995792
1587563369608,-0.90141696,-1.8662802,0.19871874
1587563369618,-1.1180922,-1.8016368,-0.80205756
1587563369630,-1.4640543,-1.4820108,-1.3144168
1587563369641,-1.8100165,-1.1408371,-1.4101849
1587563369652,-2.0841527,-0.7661445,-1.0869676
1587563369662,-1.922544,-0.9552865,0.2896984
1587563369674,-1.483208,-1.270124,1.0785879
1587563369684,-0.6799533,-1.8579005,2.3989902
1587563369696,0.40940848,-2.469619,5.3282957
1587563369707,1.520318,-3.657143,7.9750857
1587563369718,2.4899697,-10.8864355,17.056293
1587563369728,3.8546648,-20.79843,23.070528
1587563369740,6.1327477,-37.325603,17.658434
1587563369751,4.5681367,-39.221813,15.586253
1587563369761,0.45609543,-38.291664,14.927848
1587563369774,-1.377863,-20.523096,11.166556
1587563369781,-1.2425907,-8.191761,8.860941
1587563369793,-0.6380547,-1.6807296,6.265626
1587563369805,-1.6950948,1.9045875,3.016694
1587563369818,-4.522647,2.9532478,0.1376666
1587563369828,-7.607576,-4.256891,4.5657425
1587563369838,-7.359776,-11.186908,-1.127669
1587563369848,-6.4607534,-19.582176,-7.1622543
1587563369860,-1.0845734,-26.062082,-12.227188
1587563369870,2.19668,-21.760899,-8.1343
1587563369882,2.777274,-10.502166,-6.331466
1587563369890,-6.4380083,-2.801216,10.4171715
1587563369903,-7.8948803,-2.4349031,5.9639564
1587563369913,-7.374141,-2.3953989,-6.075287
1587563369925,-4.9895163,-2.9831753,-9.61272
1587563369935,-3.5924997,-5.368997,-7.5692687
1587563369948,-3.4883518,-9.114726,-3.4165258
1587563369958,-3.1112652,-13.0998745,2.1643584
1587563369968,2.4061728,-14.80694,1.5562311
1587563369980,4.0497923,-13.597869,-2.3535004
1587563369989,5.106832,-13.104663,-4.283227
1587563370004,6.196194,-12.751518,-4.5358152
1587563370011,6.7839704,-12.269087,-3.2812533
1587563370022,6.8438253,-10.632649,-1.067814
1587563370034,6.0010667,-9.24521,1.2114661
1587563370044,4.534618,-8.300697,2.7102363
1587563370055,2.8802247,-8.117541,2.7820623
1587563370068,0.22864626,-7.8266454,-1.0402806
1587563370078,-0.7685388,-7.7440453,-1.520318
1587563370090,-1.4341269,-7.881712,-0.90500826
1587563370101,-1.8171991,-8.121132,-0.4429273
1587563370111,-2.019509,-8.485051,-0.51116204
1587563370123,-2.2697031,-8.692149,-1.2533646
1587563370133,-2.1080947,-8.354567,-0.7457938
1587563370145,-1.9656396,-7.7105265,0.6631939
1587563370156,-1.8650831,-7.836222,1.6747441
1587563370167,-1.7824832,-8.589199,1.9536686
1587563370177,-1.3192052,-9.004593,1.5179238
1587563370189,1.4568717,-10.07121,-0.78410107
1587563370200,2.3247697,-10.5919485,-1.9201498
1587563370210,2.5713725,-10.645818,-1.3958195
1587563370223,2.2026656,-10.971429,0.89184016
1587563370233,1.4496891,-11.415554,3.4835634
1587563370243,1.1444284,-11.720815,4.260482
1587563370255,1.4413095,-11.895591,3.1387985
1587563370267,2.0039468,-11.936293,1.4760253
1587563370278,2.5905263,-12.069171,0.2633622
1587563370288,3.2022448,-12.070368,0.08738836
1587563370298,3.6774938,-11.535264,-0.33877954
1587563370310,4.6902413,-10.887632,-0.038307227
1587563370320,4.7285485,-11.537658,-0.062249243
1587563370332,4.271256,-12.246342,0.44771573
1587563370342,3.6104562,-12.611458,1.4927847
1587563370354,3.1136594,-13.256695,0.89543146
1587563370366,2.8407204,-13.998898,0.30885202
1587563370375,2.554613,-14.320917,-0.85473
1587563370389,0.8391677,-14.550761,-1.6915035
1587563370400,-1.2114661,-16.53316,-1.4700398
1587563370409,-3.2465374,-18.452112,-0.23942018
1587563370420,-5.4168816,-17.312473,0.4369418
1587563370430,-7.0305734,-14.875175,0.23582886
1587563370442,-8.49343,-13.224373,-1.13964
1587563370452,-9.770737,-13.4195,-3.2357635
1587563370464,-10.882844,-14.736312,-3.1268275
1587563370474,-11.3964,-15.292963,-2.717419
1587563370486,-11.195287,-14.160506,-1.2078748
1587563370496,-9.828198,-12.11107,1.2234371
1587563370508,-5.579687,-13.158532,3.6104562
1587563370518,-3.0789435,-13.181277,4.426879
1587563370530,-0.8475474,-13.085509,2.3319526
1587563370540,1.1731589,-13.516466,-0.7457938
1587563370552,2.6551697,-13.702016,-1.2557588
1587563370563,3.1423898,-13.426683,-0.6344634
1587563370573,1.7357962,-11.061212,-3.074155
1587563370585,0.89303726,-9.058462,-2.2014685
1587563370595,-0.25378537,-7.2089415,-0.8379706
1587563370607,-1.3575124,-5.7377043,-0.50517654
1587563370617,-2.0817583,-4.322731,0.25617957
1587563370629,-1.8674773,-3.0885203,1.8590976
1587563370639,-1.1097125,-3.0992942,1.5933412
1587563370652,-0.31004912,-3.2369606,0.59495914
1587563370658,-0.31004912,-3.2369606,0.59495914
1587563370670,0.58538234,-2.0446482,-0.5470751
1587563370682,0.62728083,-1.3311762,-0.5386954
1587563370694,0.2837129,-0.7493851,-0.36272156
1587563370703,-0.36391866,-0.5291186,-0.5327099
1587563370715,-1.0630256,-0.33279404,-0.70509243
1587563370726,-1.541866,-0.2753332,-0.6512229
1587563370738,-1.8435353,-0.50637364,-0.31603462
1587563370751,-1.7621324,-0.7254431,0.2633622
1587563370761,-1.5370775,-1.0833763,0.90859956
1587563370773,-1.1085154,-1.7657237,1.9476831
1587563370783,-0.533907,-2.6372132,3.738546
1587563370795,0.075417355,-3.8067808,9.498995
1587563370804,1.1001357,-8.1797905,12.921507
1587563370815,1.3491327,-13.745112,18.127699
1587563370826,3.2824504,-22.979548,19.88624
1587563370839,3.690662,-39.221813,14.405911
1587563370848,0.09935937,-28.209682,12.989741
1587563370859,-1.0989386,-14.243106,10.887632
1587563370870,-0.29688102,-6.2763996,9.907207
1587563370880,0.5386954,-1.8938135,8.719683
1587563370891,-0.021547815,1.6555905,6.223727
1587563370902,-1.6567876,4.6591167,4.394557
1587563370914,-3.6978445,4.51307,4.349067
1587563370924,-5.33907,1.0019734,1.3012487
1587563370935,-6.5684924,-5.4168816,0.32800564
1587563370946,-8.1797905,-12.428301,-6.6163764
1587563370957,-10.536881,-19.747375,-7.2089415
1587563370968,-2.4001873,-29.594727,-0.9540894
1587563370979,4.4161053,-18.669985,-2.1906946
1587563370988,0.40222588,-9.205706,-2.6036944
1587563370999,-4.727351,-4.5178585,1.3251907
1587563371010,-6.4607534,-3.0909145,-1.7776948
1587563371020,-5.815516,-2.846706,-8.001422
1587563371032,-3.3638535,-4.927267,-6.4906807
1587563371042,-2.9484594,-8.153454,-3.3087866
1587563371053,-2.1978772,-10.611102,-0.9864111
1587563371064,-0.5662287,-12.953828,-0.4189853
1587563371075,1.5251064,-15.264233,-1.3706805
1587563371086,3.3255463,-15.68681,-2.6036944
1587563371096,4.2102036,-15.178041,-4.1455603
1587563371109,5.171476,-13.206416,-1.7609353
1587563371118,5.2804117,-10.82658,1.4784195
1587563371130,4.295198,-8.860941,2.7569232
1587563371140,2.4971523,-7.690176,2.9053638
1587563371153,0.842759,-7.469909,1.6328455
1587563371163,-0.41299978,-7.503428,-0.1604115
1587563371173,-1.4041992,-7.406463,-1.6903064
1587563371185,-1.9800048,-7.487866,-2.088941
1587563371196,-2.043451,-7.4148426,-1.6065093
1587563371206,-1.7705121,-7.5333557,-1.2892777
1587563371218,-1.4341269,-8.067263,-0.8846575
1587563371229,-0.60932434,-8.75799,-0.19871874
1587563371239,-0.60932434,-8.75799,-0.19871874
1587563371251,0.60094464,-9.333796,2.778471
1587563371262,1.021127,-9.5385,2.336741
1587563371272,1.6759412,-9.788693,1.2006922
1587563371284,2.4875755,-9.69532,0.16280572
1587563371294,3.1423898,-9.524135,-1.0666169
1587563371306,3.276465,-9.352949,-1.6484078
1587563371315,2.645593,-9.774328,-0.5805939
1587563371327,1.009156,-10.582372,0.80205756
1587563371337,-0.4261679,-11.7303915,3.2130187
1587563371349,-0.19393034,-12.117055,4.8135424
1587563371359,1.4915876,-11.893197,2.9951463
1587563371371,3.3028011,-12.09431,0.6440403
1587563371381,4.3394904,-12.297817,-0.9696517
1587563371394,4.1946416,-12.035652,-1.5885528
1587563371404,3.702633,-11.6442,-1.174356
1587563371414,3.3243492,-11.320983,-0.5722142
1587563371426,3.3063924,-11.250354,-0.17597382
1587563371437,2.991555,-11.488577,0.39384618
1587563371447,2.160767,-11.853693,1.401805
1587563371459,0.7553706,-11.525687,2.6898856
1587563371470,0.23822308,-11.3138,2.232593
1587563371480,-0.050278235,-12.2319765,-0.3196259
1587563371492,-0.40222588,-13.131,0.45130703
1587563371503,-0.108936176,-13.956999,0.090979666
1587563371513,0.48841715,-14.316129,-2.2936451
1587563371525,0.0011971008,-14.308947,-2.4145525
1587563371534,-0.94092125,-14.482526,-1.3479356
1587563371547,-2.552219,-14.329297,-0.63087213
1587563371558,-4.248511,-13.395558,-1.0295067
1587563371570,-7.2987237,-13.657723,-3.430891
1587563371581,-8.652645,-15.053543,-2.1152773
1587563371590,-9.004593,-16.219519,-0.8619126
1587563371600,-8.137892,-16.585833,0.7649474
1587563371611,-6.815095,-16.779762,2.5474305
1587563371623,-4.423288,-16.517597,2.822764
1587563371632,-1.5957354,-15.284584,2.5785553
1587563371645,0.50038815,-14.317327,0.20111294
1587563371654,1.532289,-14.322115,-1.2389994
1587563371666,2.3008277,-14.130578,0.9552865
1587563371678,1.5227122,-12.860455,1.1468226
1587563371689,0.48961425,-11.676521,-1.2653356
1587563371699,-0.045489833,-10.087969,-2.3918076
1587563371711,-0.78290397,-6.739678,-3.2944214
1587563371721,-1.0366893,-5.1475334,-2.741361
1587563371733,-1.6017209,-4.120421,-1.863886
1587563371743,-1.9081788,-3.347094,-1.2569559
1587563371755,-2.0494366,-2.8395233,-0.33039984
1587563371765,-1.9728222,-2.6994624,0.14844051
1587563371777,-1.6687586,-2.6408045,0.59017074
1587563371788,-1.2174516,-2.5917234,0.8415619
1587563371798,-0.6488287,-2.0805612,0.47764325
1587563371810,-0.82240826,-1.5167267,0.10414778
1587563371820,-1.3395559,-1.258153,-0.5793968
1587563371832,-1.8423382,-1.2797008,-1.0690111
1587563371842,-2.1404164,-1.4508862,-1.3239936
1587563371854,-2.1906946,-1.6089035,-1.2605472
1587563371862,-2.0530279,-1.7226281,-0.8846575
1587563371874,-1.8531121,-1.9632454,-0.40940848
1587563371886,-1.6304513,-2.3080103,0.25258827
1587563371897,-1.4628572,-2.717419,1.3012487
1587563371907,-1.1683705,-3.2273839,2.7138276
1587563371920,0.09696517,-5.6443305,7.3442135
1587563371930,0.6703765,-8.076839,9.384073
1587563371940,1.6687586,-18.702307,21.774067
1587563371953,4.7070007,-30.946255,20.008343
1587563371963,4.408922,-39.221813,17.630901
1587563371975,1.4496891,-29.823374,13.843274
1587563371986,-0.272939,-16.94975,10.16578
1587563371996,-0.16400282,-8.859743,7.0209966
1587563372008,0.23343466,-4.435259,4.8841715
1587563372019,0.20709845,-1.2090719,3.478775
1587563372029,-3.4991257,0.6991069,2.0530279
1587563372040,-5.2959743,-2.5210943,4.547786
1587563372052,-6.331466,-8.520964,8.067263
1587563372062,-7.323863,-15.705963,5.17387
1587563372074,-6.8665705,-24.801535,3.1352072
1587563372082,-1.8902222,-33.881546,-3.726575
1587563372095,2.694674,-27.972656,-8.329428
1587563372105,2.255338,-11.104307,-10.415975
1587563372117,-2.5450363,-2.2457612,-8.159439
1587563372127,-8.194156,2.1296425,0.56982
1587563372140,-10.970232,5.33069,-1.875857
1587563372151,-6.0920463,0.9624691,-7.6602483
1587563372162,-2.9161377,-4.498705,-7.049727
1587563372171,-1.4173675,-13.156138,-2.553416
1587563372184,-0.4285621,-16.502035,1.2425907
1587563372190,1.6819267,-18.37909,0.61650693
1587563372202,4.8147397,-17.919403,-1.1659763
1587563372214,6.872556,-16.687586,-2.4911668
1587563372228,7.0569096,-12.855666,-2.1188686
1587563372238,5.8382607,-10.123882,-0.39504328
1587563372248,4.435259,-8.821436,2.110489
1587563372259,2.966416,-7.5429325,3.642778
1587563372269,1.6723499,-7.103596,2.8455088
1587563372282,0.49799395,-7.297527,0.32680854
1587563372292,-0.48482585,-7.2699933,-1.2761095
1587563372304,-0.90381116,-7.0820484,-1.270124
1587563372314,-1.1013328,-6.932411,-1.8890251
1587563372326,-1.3730747,-7.7823524,-1.9536686
1587563372336,-1.6663644,-8.617929,-1.8052281
1587563372349,-1.496376,-9.035717,-0.41180268
1587563372361,-1.3395559,-8.805874,-0.37948096
1587563372371,-1.3515269,-8.807071,-0.664391
1587563372381,-1.2294226,-8.844181,-0.63206923
1587563372393,-1.0163386,-8.72088,2.516306
1587563372402,-1.0965444,-9.121908,2.3906105
1587563372415,-0.5662287,-9.514558,1.0606314
1587563372426,0.6488287,-10.004171,-0.4345476
1587563372435,2.1272483,-10.33098,-1.210269
1587563372446,3.0262709,-10.642226,-1.4173675
1587563372458,2.56419,-11.07438,0.9600749
1587563372469,1.8435353,-11.395203,3.2381577
1587563372481,1.6579847,-11.525687,4.9021277
1587563372491,2.079364,-11.587936,4.497508
1587563372503,2.871845,-11.713632,2.6982653
1587563372513,3.727772,-11.844116,0.8882488
1587563372525,4.1635165,-11.6669445,-0.089782566
1587563372535,4.009091,-11.389217,-0.36032736
1587563372547,3.7445314,-11.188105,-0.18076223
1587563372557,3.5541923,-11.016919,-0.2681506
1587563372569,2.859874,-11.517307,0.075417355
1587563372579,2.0207062,-12.118252,0.6799533
1587563372592,1.4772224,-12.688072,1.4293385
1587563372602,1.3575124,-13.328521,1.0079589
1587563372612,1.0414777,-14.052767,0.12330139
1587563372624,0.6943185,-14.948198,-0.45250413
1587563372631,1.0450691,-14.689625,-1.1815386
1587563372644,0.92176765,-15.015236,-1.2557588
1587563372656,0.14604631,-15.461755,-0.9959879
1587563372666,-1.0271125,-14.979323,0.2777274
1587563372679,-3.855862,-11.949461,-0.23463176
1587563372690,-5.043386,-11.212047,-2.397793
1587563372700,-6.5804634,-11.894394,-4.1419687
1587563372710,-8.161834,-13.532028,-3.5434184
1587563372722,-9.118318,-15.646108,-2.5127146
1587563372732,-9.19972,-16.423027,-0.7158663
1587563372744,-8.5700445,-15.829265,1.9859903
1587563372754,-6.793547,-15.598224,3.157952
1587563372767,-3.4871547,-14.348451,3.952827
1587563372777,-0.9828198,-14.004883,2.5737667
1587563372787,0.32202014,-14.846445,-0.80086046
1587563372799,2.469619,-14.451402,1.4676456
1587563372810,2.1033063,-13.862428,0.45848963
1587563372820,1.1935096,-12.542026,-2.1930888
1587563372833,0.49081135,-10.431537,-2.8455088
1587563372843,-0.10175357,-8.567651,-2.8048072
1587563372855,-0.4357447,-5.54138,-2.7509377
1587563372865,-0.7410054,-4.6686935,-2.0709844
1587563372878,-0.94331545,-3.9432502,-1.436521
1587563372888,-1.3491327,-3.5302503,-0.65242
1587563372898,-1.5777789,-2.846706,0.34117374
1587563372910,-1.3970166,-2.3678656,1.3275849
1587563372920,-1.1133038,-2.1332338,1.3204023
1587563372933,-0.8882488,-2.1404164,0.9624691
1587563372943,-0.7685388,-2.2158337,0.5770026
1587563372953,-0.7266402,-2.2170308,-0.19752164
1587563372965,-0.7553706,-1.9129672,-0.8870517
1587563372976,-1.0726024,-1.602918,-1.3551182
1587563372987,-1.4101849,-1.4173675,-1.377863
1587563372998,-1.5514427,-1.460463,-1.1372458
1587563373009,-1.3551182,-1.9033904,-0.427365
1587563373018,-1.352724,-2.2146366,0.17956513
1587563373030,-1.2401965,-2.5558102,1.6484078
1587563373042,-0.7230489,-2.9233203,4.277241
1587563373051,0.06703765,-3.645172,7.4687123
1587563373062,0.9540894,-5.109226,11.756727
1587563373071,1.6687586,-8.056489,17.563864
1587563373082,6.3206925,-23.124397,16.411055
1587563373093,6.683414,-37.073017,15.05474
1587563373105,2.124854,-39.221813,14.636952
1587563373117,-2.44448,-25.735273,9.239224
1587563373127,-3.4751837,-12.913127,6.4763155
1587563373139,-2.586935,-1.376666,5.8083334
1587563373149,-4.745308,0.3854665,3.550601
1587563373161,-7.548918,-0.29448682,1.7238252
1587563373172,-9.714474,-2.8407204,5.213374
1587563373182,-11.173739,-7.94037,9.339781
1587563373194,-10.928333,-13.849259,8.910022
1587563373204,-5.85502,-22.141577,7.517793
1587563373215,2.432509,-28.075605,-2.6539726
1587563373229,3.3147724,-9.64145,-12.054806
1587563373238,-1.8746599,-2.5594015,-8.750807
1587563373247,-1.8746599,-2.5594015,-8.750807
1587563373259,-8.838196,1.8327614,3.309984
1587563373270,-6.393716,-0.40342298,-2.9400797
1587563373282,-2.60968,-3.6475663,-7.499837
1587563373292,-0.82719666,-6.9371996,-7.368156
1587563373302,-0.2885013,-9.844957,-1.5191209
1587563373314,0.5686229,-14.356831,1.5598224
1587563373324,1.9141643,-16.581043,1.1324574
1587563373336,3.3375173,-16.989256,-0.9959879
1587563373347,3.9588125,-15.739482,-2.8562827
1587563373358,3.807978,-14.101848,-3.5338416
1587563373368,3.4584243,-11.273099,-0.62368953
1587563373380,3.192668,-9.329007,1.7860745
1587563373391,2.4349031,-7.645883,3.5338416
1587563373401,1.5346833,-7.656657,3.8474822
1587563373413,0.78050977,-7.848193,1.2294226
1587563373423,0.22864626,-8.0684595,-1.2509704
1587563373435,-0.1412579,-8.277952,-1.79206
1587563373446,-0.044292733,-8.069656,-1.5885528
1587563373457,0.077811554,-8.112753,-1.5215151
1587563373467,0.12090719,-7.7213006,-1.7824832
1587563373479,-0.35793316,-7.8865004,-0.20111294
1587563373490,-1.033098,-8.2276745,-0.7589619
1587563373500,-1.6041151,-8.717288,-1.2737153
1587563373512,-1.8471266,-8.847773,-0.37588966
1587563373523,-1.6986861,-8.993818,1.3359646
1587563373533,-0.91219085,-9.627085,2.4025815
1587563373545,-0.29328972,-9.78989,1.4425066
1587563373556,0.8343793,-9.834184,-0.108936176
1587563373566,1.9393034,-9.850943,-1.496376
1587563373578,2.7509377,-9.467871,-0.90381116
1587563373590,2.1930888,-9.862914,0.3890578
1587563373600,1.2773066,-10.758346,2.2984335
1587563373610,0.62368953,-11.651382,3.807978
1587563373622,0.6967127,-11.850101,4.120421
1587563373632,1.4927847,-11.558009,3.2309752
1587563373644,2.4349031,-11.577163,1.5502456
1587563373654,3.156755,-11.951855,0.19632454
1587563373666,3.4596214,-12.050017,-0.16879122
1587563373676,3.5075054,-12.0093155,-0.06464344
1587563373689,4.010288,-11.895591,0.4297592
1587563373699,4.2281604,-12.175713,0.34117374
1587563373709,3.9564183,-12.4390745,0.5758055
1587563373721,3.264494,-12.300211,1.283292
1587563373729,2.6910827,-11.969811,1.9931729
1587563373741,2.554613,-12.021287,1.9656396
1587563373753,2.3475149,-12.861651,0.724246
1587563373763,1.508347,-14.176068,-0.21667525
1587563373775,1.388637,-13.831304,-1.2892777
1587563373785,0.92535895,-13.933057,-2.4001873
1587563373797,-0.10055647,-14.601039,-1.5957354
1587563373808,-1.6651673,-14.948198,-0.59735334
1587563373818,-5.4384294,-12.934674,-0.6584055
1587563373830,-6.853402,-12.710816,-2.6300306
1587563373838,-8.39886,-13.570335,-3.2609026
1587563373850,-10.011354,-15.478514,-2.1691468
1587563373863,-10.406398,-17.186777,-1.4520833
1587563373873,-9.69532,-17.021578,0.38187516
1587563373883,-7.9152308,-15.553931,3.3494883
1587563373895,-5.2421045,-15.152903,3.1783028
1587563373906,-1.9045875,-14.00608,2.6264393
1587563373917,0.39025488,-13.891158,-0.4429273
1587563373929,1.7322049,-14.306552,-1.5143325
1587563373939,3.2513258,-14.172477,2.885013
1587563373951,2.6503813,-13.901932,0.93254155
1587563373962,1.6986861,-12.600683,-2.574964
1587563373972,1.1073183,-10.758346,-3.1028855
1587563373984,0.7637503,-8.9998045,-3.739743
1587563373993,-0.89902276,-5.4671597,-2.64679
1587563374004,-1.4341269,-4.024653,-0.79726917
1587563374016,-1.9512744,-3.489549,-0.1436521
1587563374026,-2.0937295,-3.1639376,0.47764325
1587563374038,-1.5346833,-3.074155,1.4305356
1587563374049,-1.0726024,-2.9017725,1.282095
1587563374058,-0.6512229,-2.6180596,0.8774749
1587563374069,-0.37948096,-2.4839842,0.17357962
1587563374080,-0.40462008,-2.2421699,-0.6428431
1587563374091,-0.641646,-1.7345991,-1.1563994
1587563374103,-0.91338795,-1.3575124,-1.5382746
1587563374115,-1.1755531,-1.0474633,-1.6400281
1587563374125,-1.3850456,-0.81761986,-1.4628572
1587563374137,-1.388637,-0.7374141,-0.9804256
1587563374147,-1.1875241,-0.7793127,-0.49440265
1587563374160,-1.1085154,-1.5370775,1.0354922
1587563374166,-1.1085154,-1.5370775,1.0354922
1587563374179,-0.79008657,-2.042254,2.8933928
1587563374191,0.48362875,-4.2580876,7.9367785
1587563374201,1.1731589,-6.5840545,11.164163
1587563374213,1.673547,-10.382456,16.697163
1587563374223,4.722563,-31.361649,20.059818
1587563374235,3.4368765,-39.221813,17.070658
1587563374245,-0.16639702,-34.48249,13.126211
1587563374257,-1.4664485,-20.211851,9.980229
1587563374267,-0.8846575,-10.534488,7.9810715
1587563374279,-1.9333179,-6.745663,2.0135236
1587563374289,-6.6056023,-8.659827,1.2354081
1587563374301,-9.633071,-13.6254015,2.837129
1587563374311,-9.412804,-20.061016,5.8909335
1587563374323,-4.9308586,-26.737247,5.4767365
1587563374333,8.3868885,-25.098417,-8.421604
1587563374345,12.263102,-16.54992,-15.951369
1587563374356,3.7134068,-3.66672,-10.881647
1587563374366,-5.781997,6.1938,-12.035652
1587563374378,-11.768699,11.127052,2.2589293
1587563374386,-18.72984,14.106636,24.82907
1587563374398,-3.8127663,2.980781,-10.577583
1587563374410,-1.3838485,-4.844667,-9.890448
1587563374421,-2.9245174,-14.61301,-7.656657
1587563374431,-3.7660792,-22.759281,0.9564836
1587563374443,-0.4285621,-22.890963,2.966416
1587563374454,5.509058,-16.716316,-2.7844565
1587563374464,7.2951326,-14.945804,-3.5853171
1587563374475,8.479065,-12.447454,-1.2737153
1587563374488,6.5816603,-7.8625584,2.657564
1587563374494,6.5816603,-7.8625584,2.657564
1587563374506,3.7134068,-7.2592196,2.433706
1587563374519,2.7497406,-7.8386164,0.81642276
1587563374529,2.384625,-8.771158,-0.45968673
1587563374541,1.9728222,-8.856153,-0.8750807
1587563374551,1.6196774,-8.413225,-0.91219085
1587563374563,1.1779473,-8.214506,-0.80205756
1587563374573,0.82360536,-8.212111,-0.6703765
1587563374586,0.39983168,-8.520964,-0.110133275
1587563374596,-0.5398925,-8.889671,0.1376666
1587563374608,-1.3192052,-8.738836,-0.095768064
1587563374620,-1.8028339,-8.327033,0.51235914
1587563374630,-1.8016368,-8.030152,0.9816227
1587563374640,-1.8495208,-7.66384,0.8750807
1587563374653,-1.8375498,-7.4627266,0.79726917
1587563374663,-1.9261353,-7.3549876,1.0450691
1587563374673,-2.1284454,-7.893683,-1.0989386
1587563374686,-1.5275006,-10.420763,-1.6005238
1587563374696,-0.33039984,-11.452663,-1.2653356
1587563374706,1.1444284,-11.59871,-0.7613561
1587563374719,3.084929,-10.284293,2.4349031
1587563374728,3.4368765,-10.407595,4.23654
1587563374740,3.8367083,-11.105505,2.778471
1587563374760,3.630807,-12.582727,-1.4903905
1587563374768,2.834735,-12.653356,-0.830788
1587563374775,2.834735,-12.653356,-0.830788
1587563374786,2.3918076,-12.679692,0.22625206
1587563374796,2.802413,-12.588713,0.35434186
1587563374807,3.3889925,-12.348095,0.06823475
1587563374816,3.309984,-12.239159,0.34835634
1587563374829,1.9333179,-12.117055,1.9740193
1587563374838,1.4341269,-12.299014,2.280477
1587563374849,1.3479356,-12.939463,1.496376
1587563374859,1.2437878,-13.88637,0.37469256
1587563374870,1.1480197,-14.945804,0.3890578
1587563374882,1.2940661,-15.381549,0.5722142
1587563374894,1.2533646,-14.833277,-0.7733272
1587563374906,-0.92176765,-15.350424,0.088585466
1587563374918,-2.1751323,-14.693215,0.62009823
1587563374928,-3.3387144,-13.350069,0.61770403
1587563374940,-6.218939,-11.674128,-3.3518825
1587563374950,-7.9702973,-13.005303,-2.2337902
1587563374962,-8.839393,-15.073894,-0.25019407
1587563374972,-8.37372,-16.492458,0.2645593
1587563374984,-7.3669586,-17.017986,1.4077905
1587563374994,-5.5126495,-16.147694,2.4049757
1587563375006,-3.2130187,-15.705963,1.650802
1587563375018,-1.1791444,-15.0343895,1.2234371
1587563375028,0.50158525,-14.250289,1.5370775
1587563375038,1.650802,-13.645753,1.685518
1587563375049,1.7202339,-13.711593,1.1803415
1587563375062,1.4329298,-12.99453,-1.151611
1587563375072,1.2186487,-11.289858,-3.1902738
1587563375082,0.9600749,-9.376891,-3.7732618
1587563375094,0.2873042,-7.505822,-2.7126305
1587563375104,-0.48243165,-5.9998693,-2.066196
1587563375117,-1.2425907,-4.5202527,-1.447295
1587563375127,-1.7537527,-3.3195608,-0.6679823
1587563375138,-1.910573,-1.8794483,0.70509243
1587563375148,-1.3718776,-1.8614918,1.1480197
1587563375160,-0.08020575,-1.4652514,0.5518635
1587563375170,0.09696517,-1.0953473,0.2633622
1587563375182,-0.21906945,-1.0390835,-0.01436521
1587563375192,-0.8535329,-0.9720459,-0.38307226
1587563375204,-1.4425066,-0.7745243,-0.91697925
1587563375214,-1.757344,-0.6835446,-1.1049241
1587563375227,-1.8555063,-0.6560113,-1.1420342
1587563375237,-1.8243817,-0.5793968,-0.6931214
1587563375247,-1.6998832,-0.50397944,-0.12449849
1587563375260,-0.91099375,-1.2150574,1.4748282
1587563375266,-0.91099375,-1.2150574,1.4748282
1587563375278,-0.36272156,-2.0769699,3.05141
1587563375290,1.0989386,-4.402937,8.784326
1587563375302,1.4784195,-6.631939,11.622652
1587563375312,1.1384429,-11.32218,15.756242
1587563375324,2.7341783,-21.209036,21.254526
1587563375334,5.1798553,-38.707058,19.218258
1587563375347,2.8072014,-39.221813,15.603012
1587563375358,-0.9696517,-33.40031,13.570335
1587563375368,-1.0151415,-5.650316,8.514978
1587563375380,-2.4947581,2.1523874,2.9101522
1587563375390,-5.4312468,-0.62608373,0.7015011
1587563375403,-8.598776,-6.7923503,3.6152446
1587563375413,-10.7356,-14.234726,6.944382
1587563375423,-9.36492,-22.521059,0.47046062
1587563375436,0.521936,-30.442274,-8.828619
1587563375447,9.375694,-25.215733,-11.174936
1587563375457,6.3745623,-9.892841,-9.580399
1587563375468,-0.5231331,-0.062249243,-10.761936
1587563375478,-7.6973586,4.0761285,5.327099
1587563375490,-9.3733,3.1950622,-4.4663835
1587563375500,-4.626795,0.23463176,-9.114726
1587563375512,-2.6527755,-4.7070007,-9.849746
1587563375523,-2.48159,-10.205285,-6.471527
1587563375533,-3.1878796,-16.96292,2.4073699
1587563375545,-1.5275006,-20.526688,6.2943563
1587563375555,2.6288335,-19.203892,2.541445
1587563375572,8.051701,-14.405911,-3.727772
1587563375582,7.976283,-12.464214,-3.2321723
1587563375592,5.6706667,-8.034941,2.1978772
1587563375603,3.6511576,-6.7947445,3.3650506
1587563375614,2.2601264,-6.6870055,2.7114334
1587563375628,0.79607207,-7.337031,-0.06344634
1587563375637,0.79607207,-7.337031,-0.06344634
1587563375647,0.24301147,-7.991845,-0.32561144
1587563375658,-0.35075054,-7.997831,-0.50757074
1587563375670,-0.6619968,-7.9870567,-0.06943185
1587563375682,-1.0175357,-8.090008,0.36870706
1587563375692,-1.5442601,-8.197746,0.5770026
1587563375702,-2.1918917,-8.246828,0.021547815
1587563375713,-2.5582044,-8.346188,-0.7685388
1587563375725,-2.741361,-8.1402855,-0.8738836
1587563375736,-2.9388826,-7.574057,-0.051475335
1587563375748,-2.633622,-7.8876977,1.7286136
1587563375758,-2.633622,-7.8876977,1.7286136
1587563375768,-1.9883845,-8.983045,1.532289
1587563375780,0.2753332,-9.969456,-1.2150574
1587563375790,1.6184803,-10.352529,-2.1523874
1587563375802,2.3678656,-10.758346,-1.9895816
1587563375812,1.9524715,-10.924743,1.4173675
1587563375824,1.590947,-12.573151,3.489549
1587563375834,1.5514427,-12.945449,3.5302503
1587563375846,1.9081788,-13.238738,2.1092918
1587563375857,2.4540567,-13.162124,0.7194576
1587563375867,2.956839,-12.723985,-0.107739076
1587563375879,4.0940847,-12.038046,0.073023155
1587563375889,4.534618,-12.047623,0.50397944
1587563375902,4.5681367,-12.337321,0.7661445
1587563375911,3.9121256,-12.871228,1.2425907
1587563375924,2.8862102,-13.061567,1.8016368
1587563375930,2.0362685,-12.908339,2.2852654
1587563375942,1.7082629,-12.684481,1.8782512
1587563375954,1.7262194,-12.98615,0.22266077
1587563375967,1.5682021,-13.819332,-0.7206547
1587563375978,1.4544775,-14.544775,-0.5374983
1587563375988,1.3455414,-14.064738,-1.448492
1587563375998,0.60932434,-14.526819,-0.8595184
1587563376009,-0.58298814,-15.049952,-0.49559975
1587563376020,-2.480393,-14.25388,-0.2861071
1587563376032,-4.3861775,-12.908339,-0.36152446
1587563376039,-7.765593,-13.447034,-2.5725696
1587563376050,-8.9602995,-15.178041,-3.1184478
1587563376062,-9.306262,-16.486473,-2.9221232
1587563376074,-8.887277,-16.43021,-1.0761937
1587563376086,-7.004237,-14.970943,1.970428
1587563376097,-4.914099,-14.782998,3.3051953
1587563376108,-3.1543608,-14.550761,3.9193082
1587563376118,-1.2030864,-13.789405,4.0438066
1587563376129,1.3862427,-13.439851,-1.3503298
1587563376142,2.136825,-13.10586,-0.79248077
1587563376148,2.27928,-12.802994,-0.5386954
1587563376160,1.5095441,-12.118252,-1.1935096
1587563376172,1.115698,-10.907983,-1.9596541
1587563376184,0.7697359,-9.400833,-2.7341783
1587563376194,0.027533319,-7.7332716,-2.6803088
1587563376206,-0.7290344,-5.901707,-2.1894975
1587563376217,-1.3970166,-4.3502645,-0.7218518
1587563376228,-1.6304513,-3.4261026,0.2657564
1587563376238,-1.7776948,-2.7569232,-0.023942016
1587563376250,-1.5765818,-2.4037786,0.6979098
1587563376258,-1.0390835,-2.1404164,0.39145198
1587563376270,-0.6428431,-0.7721301,-0.7673417
1587563376283,-0.9576807,-0.33159694,-0.878672
1587563376293,-1.3826514,-0.2681506,-0.8439561
1587563376303,-1.6663644,-0.33638534,-0.878672
1587563376315,-1.7525556,-0.48362875,-1.1085154
1587563376325,-1.5729905,-0.62129533,-0.9828198
1587563376338,-1.3922282,-0.79367787,-0.6536171
1587563376348,-1.0031705,-1.5969325,0.7565677
1587563376358,-0.7134721,-2.3391352,2.0278888
1587563376370,-0.17597382,-3.3542767,4.3418846
1587563376381,0.21906945,-5.0421886,7.076063
1587563376391,0.5638345,-7.433996,9.988609
1587563376402,0.8655039,-11.654974,16.175226
1587563376415,2.8778305,-19.730616,26.856958
1587563376425,5.5102553,-35.012806,22.845472
1587563376434,4.249708,-39.221813,16.486473
1587563376445,1.0857705,-30.809784,13.104663
1587563376456,0.25139117,-16.943766,11.232397
1587563376467,0.9756372,-8.611943,8.337808
1587563376476,2.0614076,-4.024653,5.433641
1587563376488,2.007538,-0.7637503,2.7210102
1587563376500,-3.417723,4.3418846,4.3023806
1587563376510,-4.44723,0.51355624,1.2389994
1587563376522,-5.4085016,-6.4164605,-0.9840169
1587563376532,-7.65546,-13.819332,-6.355408
1587563376544,-9.442732,-21.466412,-6.5840545
1587563376554,-9.540894,-31.89795,1.8447324
1587563376566,-1.4987702,-32.844856,-0.5554548
1587563376576,2.1068976,-19.033903,-5.031415
1587563376588,-6.704962,-3.7972038,3.9468415
1587563376598,-8.781932,-2.0638018,2.0709844
1587563376610,-7.8865004,-1.1300632,-7.571663
1587563376620,-6.0968347,-1.0043676,-7.3657618
1587563376632,-4.5741224,-3.7612908,-4.331111
1587563376642,-3.681085,-6.882133,-0.973243
1587563376654,-2.6982653,-9.2787285,0.36032736
1587563376665,-0.9576807,-11.190498,0.80924016
1587563376674,1.5334862,-13.582306,1.0546459
1587563376686,3.2561142,-15.312117,-3.4859576
1587563376695,4.5765166,-15.8556,-5.6179943
1587563376707,6.1746464,-16.164454,-6.0357823
1587563376717,7.4962454,-15.292963,-4.5753193
1587563376730,7.1586633,-9.39365,2.208651
1587563376740,5.133168,-8.559271,3.0885203
1587563376750,3.1376014,-7.6051817,2.160767
1587563376763,1.3299791,-7.0688806,-0.37708676
1587563376773,0.12689269,-6.4020953,-2.019509
1587563376783,-0.7254431,-5.7544637,-2.8323407
1587563376795,-1.4628572,-5.6802435,-1.5095441
1587563376803,-2.2529438,-6.6079965,0.24181437
1587563376815,-2.5845408,-7.881712,1.1432313
1587563376827,-2.8766334,-8.605958,1.3383588
1587563376837,-3.2202013,-8.98903,1.3850456
1587563376850,-4.6483426,-8.772355,2.292448
1587563376860,-4.5896845,-8.487445,2.4971523
1587563376870,-3.0382419,-8.4347725,0.8403648
1587563376882,0.38067806,-8.584411,-1.5562311
1587563376892,3.7062242,-9.345766,-2.871845
1587563376904,6.1447186,-10.618284,-2.847903
1587563376912,6.987478,-10.955867,-2.4827871
1587563376924,6.129156,-10.536881,0.1448492
1587563376936,4.8698063,-10.643424,3.2333694
1587563376947,3.6415808,-11.348516,4.557363
1587563376957,2.6719291,-13.51886,1.6783354
1587563376969,3.9145198,-12.628217,-0.2645593
1587563376979,4.3957543,-12.064383,-0.1316811
1587563376991,4.5621514,-11.572374,0.50517654
1587563377002,4.507085,-11.558009,0.89184016
1587563377013,4.3023806,-12.0488205,1.1228806
1587563377022,3.8498764,-12.304999,1.42455
1587563377035,3.3997664,-12.148179,1.9596541
1587563377045,2.8742392,-11.877635,2.4372973
1587563377057,2.2385786,-11.505336,2.7856536
1587563377068,1.7034745,-11.268311,1.9249382
1587563377078,0.5434838,-13.587094,0.51954174
1587563377090,1.1133038,-15.011644,-1.7405846
1587563377100,0.9804256,-15.533581,-2.8514943
1587563377112,-1.1216835,-15.465346,-3.4943373
1587563377122,-4.355053,-14.702792,-1.2078748
1587563377134,-7.243657,-14.119804,0.41299978
1587563377144,-8.803479,-14.390349,-0.842759
1587563377156,-9.440337,-16.737864,-0.11492168
1587563377168,-9.113529,-19.466057,-0.79966336
1587563377178,-4.951209,-16.83483,0.47884035
1587563377188,-2.8431146,-15.636531,3.7217865
1587563377199,-1.2018893,-15.094245,6.8438253
1587563377211,0.20949265,-16.085443,3.7696705
1587563377221,1.5921441,-16.366762,-1.2689269
1587563377232,2.6396074,-15.97172,-2.4959552
1587563377241,2.9472623,-15.21994,-0.19033903
1587563377252,2.7353754,-14.320917,0.88944596
1587563377263,2.0231004,-13.214796,-0.18674773
1587563377273,0.8415619,-11.869255,-2.5378537
1587563377285,-0.49919105,-10.011354,-3.3662477
1587563377297,-1.7250223,-7.207744,-2.2098482
1587563377309,-3.0550013,-3.9085343,-1.7298107
1587563377318,-3.0550013,-3.9085343,-1.7298107
1587563377331,-2.956839,-1.6579847,-0.36870706
1587563377341,-2.3810337,-0.9696517,0.22864626
1587563377353,-1.3934253,-0.40940848,0.20231004
1587563377363,-0.5374983,0.32800564,-0.5279215
1587563377375,-0.094570965,1.1719618,-0.9540894
1587563377385,-0.025139118,1.5957354,-0.997185
1587563377397,-0.260968,1.543063,-1.1839328
1587563377408,-0.7577648,1.5969325,-1.3072342
1587563377419,-1.364695,0.6488287,-1.5897499
1587563377429,-1.3730747,0.04309563,-0.94570965
1587563377441,-1.3096284,-0.79128367,0.05746084
1587563377451,-1.1372458,-1.745373,1.7729063
1587563377464,-0.89064306,-2.7341783,4.590882
1587563377473,-0.2693477,-4.1838675,8.477868
1587563377486,0.60932434,-6.7743936,11.967417
1587563377496,1.0402806,-11.247959,18.456902
1587563377505,1.9021933,-17.741035,25.003845
1587563377518,3.38181,-27.876888,17.198748
1587563377528,3.288436,-38.50475,15.58745
1587563377540,-1.377863,-21.531055,12.425907
1587563377550,-1.6639702,-11.592725,9.103952
1587563377562,-1.340753,-6.009446,6.4511766
1587563377570,-2.0973208,-2.7401638,3.321955
1587563377583,-4.2904096,0.2681506,0.89423436
1587563377594,-6.10282,1.2689269,1.0881647
1587563377604,-7.382521,-0.5470751,3.0262709
1587563377616,-8.525752,-5.779603,5.0541596
1587563377627,-9.736021,-12.345701,2.9317
1587563377638,-3.5051112,-20.620062,-2.871845
1587563377648,2.1452048,-20.655975,-6.2249246
1587563377661,-1.4041992,-5.6682725,-4.2880154
1587563377671,-5.395334,-2.6264393,2.0745757
1587563377683,-5.345055,-2.0937295,2.219425
1587563377693,-2.4121583,-3.3614593,-5.7616463
1587563377705,-0.30406362,-4.7896004,-7.3777328
1587563377716,0.25617957,-6.7588315,-5.6886234
1587563377728,0.4441244,-8.701726,-2.4181437
1587563377738,0.6667852,-10.728417,1.5179238
1587563377748,3.3877954,-15.264233,2.4061728
1587563377760,4.519056,-15.792154,-1.6519991
1587563377770,4.691438,-14.862007,-3.7301662
1587563377783,4.346673,-13.576321,-3.301604
1587563377789,3.8534677,-12.113463,-1.9381063
1587563377802,3.3399115,-11.081563,-0.36272156
1587563377814,2.9520507,-9.989806,1.316811
1587563377824,2.433706,-8.640674,2.1703439
1587563377836,2.078167,-8.177396,3.371036
1587563377847,1.4221559,-7.9451585,2.1703439
1587563377857,0.58897364,-7.8446016,0.47884035
1587563377869,-0.7350199,-7.6135616,-1.6759412
1587563377880,-1.1803415,-7.7344685,-0.8595184
1587563377890,-1.6938977,-8.070854,0.11851298
1587563377902,-2.0913353,-8.409634,0.47764325
1587563377912,-2.4863784,-8.543709,0.20231004
1587563377924,-2.896984,-8.696938,-0.36152446
1587563377934,-3.1148565,-8.661025,0.1388637
1587563377946,-2.895787,-8.578424,1.436521
1587563377957,-1.8698715,-8.737639,2.598906
1587563377967,-0.724246,-8.949526,1.9177556
1587563377980,2.3942018,-9.242816,-0.90141696
1587563377992,3.594894,-9.679757,-1.8495208
1587563378001,4.2066126,-10.13705,-2.1523874
1587563378015,4.0342298,-10.2735195,-0.6751649
1587563378024,3.0609868,-10.796653,2.4432828
1587563378035,2.2577322,-11.437101,4.560954
1587563378046,2.0566192,-12.023681,4.140772
1587563378058,3.0071173,-13.113043,0.9804256
1587563378067,3.0071173,-13.113043,0.9804256
1587563378079,3.551798,-12.776657,0.1364695
1587563378091,4.3993454,-11.996147,0.94092125
1587563378101,4.486734,-12.144588,1.0163386
1587563378113,4.11683,-12.483368,1.3299791
1587563378122,3.3159695,-12.504915,1.9285295
1587563378134,2.6300306,-12.582727,2.1164744
1587563378144,2.1906946,-13.001713,0.92535895
1587563378156,1.7286136,-13.797785,-0.24660277
1587563378166,1.5466543,-14.718355,-0.21308395
1587563378178,1.0534488,-14.173674,-1.0055647
1587563378188,0.36511576,-14.994885,-0.7290344
1587563378200,-0.78050977,-15.61618,-0.2896984
1587563378210,-2.8107927,-14.718355,0.61052144
1587563378222,-4.5441947,-13.357251,0.17118542
1587563378231,-5.959168,-12.49893,-2.2182279
1587563378243,-7.3166804,-12.812571,-3.7301662
1587563378253,-8.517372,-14.45619,-2.980781
1587563378266,-8.890868,-15.982493,-2.0745757
1587563378276,-8.598776,-16.217125,-0.6452374
1587563378286,-7.4124484,-15.320497,1.5729905
1587563378299,-2.8443117,-13.520057,5.094861
1587563378309,-0.8870517,-13.962984,3.064578
1587563378319,2.3223755,-13.740324,-0.6799533
1587563378332,3.5685577,-13.321339,0.090979666
1587563378338,3.8546648,-13.069947,1.2354081
1587563378350,3.693056,-12.78384,0.3890578
1587563378362,2.8383262,-11.548432,-1.8890251
1587563378376,2.1188686,-9.514558,-2.6563668
1587563378386,1.1935096,-7.608773,-2.1823149
1587563378396,0.19153613,-5.910087,-1.459266
1587563378407,-0.5710171,-4.7081976,-0.8535329
1587563378418,-1.4856021,-3.691859,-0.9947908
1587563378428,-1.9907787,-2.9317,-0.60453594
1587563378440,-1.9081788,-1.6124948,-0.015562311
1587563378449,-1.590947,-1.0103531,-0.30047232
1587563378461,-1.2306197,-0.4357447,-0.16519992
1587563378471,-1.0127473,-0.24061728,0.03232172
1587563378483,-0.92416185,-0.51235914,0.19632454
1587563378493,-0.93134445,-0.93254155,-0.25258827
1587563378505,-1.0019734,-1.0582372,-0.7026982
1587563378515,-0.9660604,-1.1707647,-1.0187328
1587563378527,-0.8702923,-1.2366052,-1.1552023
1587563378537,-0.7721301,-1.2174516,-1.0690111
1587563378549,-0.7529764,-2.5151088,1.2916719
1587563378558,-0.7529764,-2.5151088,1.2916719
1587563378570,-0.5482722,-5.0876784,6.494272
1587563378580,-0.5315128,-7.1873937,10.158598
1587563378592,-1.0151415,-10.730812,15.282189
1587563378602,-0.7110779,-19.121292,23.29678
1587563378615,2.6276364,-35.466507,22.112846
1587563378625,1.9608512,-39.221813,15.252262
1587563378634,-1.5646108,-37.960068,13.807362
1587563378647,-2.360683,-19.922152,10.619482
1587563378657,-1.5885528,-8.343793,8.2037325
1587563378670,-0.9935937,3.0801406,2.4253263
1587563378681,-1.8674773,5.866991,1.2797008
1587563378691,-3.0885203,5.768829,4.3754034
1587563378701,-3.1112652,2.6539726,5.3498435
1587563378713,-3.7181952,-2.9472623,2.0494366
1587563378723,-5.4551888,-10.5045595,-3.6044707
1587563378735,-6.2524576,-19.54746,-4.378995
1587563378747,-5.3079453,-27.512968,-6.053739
1587563378758,3.3387144,-17.089811,-5.813122
1587563378768,-0.19033903,-9.305065,-0.7625532
1587563378779,-4.72376,-3.8869865,2.885013
1587563378791,-3.810372,-4.2999864,-6.5206084
1587563378800,-3.1531637,-4.465186,-8.767567
1587563378812,-2.7257986,-5.112818,-5.783194
1587563378823,-2.8874073,-7.219715,-1.5717934
1587563378834,-2.8431146,-9.3661175,2.743755
1587563378845,-1.9069817,-11.686098,3.7900212
1587563378858,0.039504327,-13.073539,2.8933928
1587563378868,1.7992426,-13.644555,-0.7086837
1587563378878,4.486734,-13.727156,-4.060566
1587563378890,5.3259015,-13.704411,-3.2692823
1587563378900,5.592855,-12.367249,-1.7381904
1587563378913,5.425261,-10.023325,-0.6739678
1587563378923,4.894945,-9.091981,0.7757214
1587563378933,3.8426938,-8.689755,1.4065934
1587563378945,2.552219,-7.727286,1.0402806
1587563378955,0.91219085,-6.7719994,-0.05267244
1587563378967,-0.79966336,-6.338649,-0.37588966
1587563378979,-2.3355439,-7.4687123,1.6998832
1587563378989,-2.7665,-8.605958,0.80205756
1587563379001,-3.0885203,-9.178172,-1.9476831
1587563379012,-2.8407204,-8.505402,-1.4449008
1587563379022,-2.682703,-7.751228,0.9864111
1587563379034,-2.2948422,-7.9188223,2.942474
1587563379044,-1.6472107,-8.785523,3.21661
1587563379057,-0.6631939,-9.41879,1.8327614
1587563379068,0.7721301,-9.469068,-0.6392518
1587563379078,3.5314474,-10.340557,-2.5929205
1587563379088,3.7110126,-10.658986,-0.724246
1587563379100,3.0753522,-11.360487,2.5318682
1587563379109,2.4157495,-12.078748,4.8578353
1587563379123,2.2278047,-12.283452,5.094861
1587563379133,2.4791958,-12.607866,3.7074213
1587563379143,3.1507695,-12.932281,1.922544
1587563379153,3.7804444,-12.762292,0.32561144
1587563379165,4.1299977,-12.460623,-0.47405192
1587563379175,4.225766,-11.936293,-0.046686932
1587563379187,4.223372,-11.499351,0.79367787
1587563379197,4.1156325,-11.429919,1.3467385
1587563379209,2.7449522,-12.000936,2.3989902
1587563379218,2.2373815,-12.2080345,2.4911668
1587563379230,1.7286136,-13.624205,-0.92057055
1587563379240,1.9512744,-14.982914,-1.602918
1587563379252,1.8100165,-15.218743,-2.9221232
1587563379262,1.0690111,-15.374366,-2.8742392
1587563379274,-0.91099375,-16.472107,-1.9740193
1587563379285,-3.0238767,-16.96651,-0.48123455
1587563379295,-5.145139,-15.45936,1.0534488
1587563379307,-6.567295,-14.520833,-0.79128367
1587563379317,-7.395689,-14.361619,-2.3127987
1587563379329,-8.942344,-16.874334,-2.2409728
1587563379339,-8.632295,-16.940174,-2.3319526
1587563379351,-7.6015906,-15.666459,-1.0247183
1587563379361,-5.391742,-13.862428,2.4073699
1587563379374,-3.5697548,-13.587094,3.477578
1587563379384,-1.8303672,-13.769054,2.955642
1587563379394,-0.031124622,-14.002489,0.6380547
1587563379407,1.2413936,-14.13417,-1.0175357
1587563379417,2.0410569,-14.207192,-0.15442601
1587563379428,2.0374656,-13.77504,0.676362
1587563379438,1.2138603,-12.865243,-0.15801731
1587563379450,0.19033903,-9.554062,-2.8874073
1587563379461,-0.8858546,-6.1806316,-2.847903
1587563379471,-1.4197617,-4.794389,-1.3096284
1587563379483,-1.7848774,-3.7229836,-0.25857377
1587563379493,-2.0027497,-2.9592333,-0.2813187
1587563379505,-2.0410569,-2.1775265,-0.4141969
1587563379515,-1.8064252,-1.5514427,-0.05865794
1587563379528,-1.3096284,-1.1959038,0.1604115
1587563379538,-0.80924016,-0.38307226,-0.2837129
1587563379550,-0.9720459,-0.35075054,-0.45130703
1587563379561,-1.2785037,-0.51475334,-0.700304
1587563379571,-1.5801731,-0.78410107,-0.94690675
1587563379583,-1.7441759,-0.90500826,-1.0977415
1587563379592,-1.8662802,-0.93254155,-1.0929531
1587563379603,-1.9297266,-0.985214,-0.79367787
1587563379614,-1.9716251,-1.2677298,-0.15322891
1587563379625,-1.8363527,-1.8315643,0.89543146
1587563379636,-1.4568717,-2.5127146,2.6240451
1587563379648,-0.7685388,-3.4644098,4.7022123
1587563379656,0.2765303,-4.9655743,7.575254
1587563379668,1.6196774,-11.188105,16.231491
1587563379680,2.80361,-17.30529,23.299173
1587563379690,4.1982327,-36.627693,15.569493
1587563379703,1.364695,-30.581139,14.065935
1587563379713,-0.7170634,-19.525911,11.323377
1587563379722,-0.6584055,-10.764331,8.246828
1587563379734,-0.142455,-6.2883706,5.590461
1587563379746,-0.4237737,-4.2173862,4.2461166
1587563379757,-2.6036944,-1.79206,3.0693667
1587563379769,-6.0764837,-3.6128504,1.6879122
1587563379779,-6.0381765,-7.6770077,5.4791307
1587563379789,-5.8502316,-13.208811,4.6818614
1587563379800,-5.0625396,-20.634428,1.1947067
1587563379813,0.82001406,-27.931953,-6.136339
1587563379823,3.181894,-23.682245,-8.09719
1587563379833,1.9237411,-10.546458,-8.836999
1587563379845,-1.9668367,-3.4009635,-5.0900726
1587563379855,-6.88333,-0.9528923,4.7896004
1587563379867,-10.392033,0.21308395,8.525752
1587563379875,-8.796297,0.49320555,-2.2756886
1587563379886,-5.2205567,-1.543063,-8.24563
1587563379898,-2.4971523,-9.127894,-5.603629
1587563379909,-0.6847417,-15.911864,2.1739352
1587563379920,2.054225,-17.076643,-0.21787235
1587563379932,5.080496,-16.280571,-2.315193
1587563379941,6.429629,-14.947001,-3.2932243
1587563379953,6.5984197,-13.982138,-3.3147724
1587563379965,6.3901243,-12.70124,-1.5370775
1587563379976,5.8322754,-10.267534,0.6907272
1587563379986,4.507085,-8.010999,1.614889
1587563379998,3.132813,-7.135918,2.5725696
1587563380008,1.0235212,-7.04015,2.2984335
1587563380021,0.061052144,-7.2065473,-0.22266077
1587563380031,-0.62368953,-7.383718,-1.5586253
1587563380042,-0.78888947,-7.514202,-1.4077905
1587563380052,-0.92535895,-7.949947,-0.7769185
1587563380064,-1.1911154,-8.295909,-0.06943185
1587563380074,-1.4257472,-8.49343,0.36631286
1587563380087,-1.9393034,-8.429984,0.029927522
1587563380093,-2.1643584,-8.517372,-0.724246
1587563380105,-1.8579005,-8.412027,-0.439336
1587563380117,-1.6352397,-8.206126,0.78769237
1587563380129,-1.4221559,-9.009381,3.0777464
1587563380140,0.6356605,-9.781511,-0.04189853
1587563380150,2.2780828,-10.360908,-1.8327614
1587563380162,3.2980127,-10.965444,-2.4349031
1587563380172,3.4237084,-11.039664,-1.3383588
1587563380184,2.5629928,-10.939108,0.6631939
1587563380194,1.5777789,-11.109096,3.5769374
1587563380206,1.1300632,-11.349713,5.058948
1587563380218,2.1212628,-12.053609,2.160767
1587563380228,2.9735985,-12.466608,0.61530983
1587563380238,2.9735985,-12.466608,0.61530983
1587563380250,3.5290532,-12.078748,-0.6703765
1587563380260,3.7110126,-11.366472,-0.16400282
1587563380272,4.1276035,-11.088745,0.45489833
1587563380282,4.3179426,-11.434708,0.5279215
1587563380294,3.9683893,-11.859678,0.82599956
1587563380304,3.300407,-11.87524,1.6915035
1587563380316,2.6874914,-11.783064,2.2768857
1587563380326,2.3391352,-11.976994,1.210269
1587563380339,1.0259154,-13.891158,-0.108936176
1587563380349,0.6512229,-14.250289,0.11133038
1587563380360,0.5327099,-14.718355,0.1340753
1587563380370,-0.8367735,-16.794128,0.29209262
1587563380383,-2.56419,-15.418659,0.3184288
1587563380393,-4.429273,-13.40753,0.059855044
1587563380402,-6.291962,-12.338518,-1.9668367
1587563380413,-8.040926,-13.008895,-3.110068
1587563380423,-9.497798,-14.982914,-2.5079262
1587563380435,-10.15381,-16.531963,-1.839944
1587563380445,-9.813833,-16.345215,-0.20949265
1587563380457,-7.9691005,-14.464569,2.0949266
1587563380468,-3.7708676,-14.274231,3.8283286
1587563380478,-3.7708676,-14.274231,3.8283286
1587563380490,0.34476504,-13.494918,1.2186487
1587563380500,1.99437,-13.201628,-0.50996494
1587563380512,2.8742392,-13.026852,-1.0498575
1587563380522,3.3039982,-12.964602,-0.31483752
1587563380535,3.0478187,-12.7096195,-1.3275849
1587563380545,2.0709844,-11.307815,-2.4361002
1587563380556,0.9528923,-9.258378,-1.6484078
1587563380568,-0.30286652,-7.2364745,-0.59855044
1587563380578,-1.5107412,-5.6802435,-0.7098808
1587563380588,-2.3008277,-4.4556093,-0.36990416
1587563380601,-2.2385786,-3.1364043,0.62368953
1587563380611,-1.7166426,-2.8754363,0.44891283
1587563380621,-1.1839328,-2.4253263,0.05626374
1587563380634,-0.8355764,-1.7070658,-0.29328972
1587563380641,-0.7038953,-0.8702923,-0.24779987
1587563380653,-0.8750807,-0.36511576,-0.30526072
1587563380665,-1.1815386,-0.090979666,-0.51116204
1587563380675,-1.5071499,0.051475335,-0.7110779
1587563380688,-1.5885528,-0.11731588,-0.7398083
1587563380698,-1.4293385,-0.50397944,-0.40940848
1587563380708,-1.3204023,-0.8451532,-0.029927522
1587563380720,-1.1563994,-1.436521,0.748188
1587563380731,-0.80684596,-2.2888567,2.3451207
1587563380741,-0.21428105,-3.4105403,4.9524064
1587563380754,0.51355624,-4.969166,7.762002
1587563380764,1.0354922,-7.687782,10.468647
1587563380774,1.2174516,-12.634202,16.259024
1587563380786,2.8933928,-21.560984,24.370579
1587563380798,5.309142,-35.794514,19.424158
1587563380808,3.489549,-39.221813,14.379576
1587563380818,0.027533319,-30.062794,14.514848
1587563380830,1.6244658,-4.098873,5.993884
1587563380840,0.23582886,-0.5518635,1.7657237
1587563380852,-3.4404678,0.7218518,-1.8291701
1587563380860,-7.2987237,-1.9644425,-2.4612393
1587563380873,-9.931149,-7.860164,2.7353754
1587563380883,-10.181343,-14.281413,0.5746084
1587563380895,-10.024523,-22.782026,0.51235914
1587563380905,-2.8419175,-29.024908,-4.010288
1587563380917,2.6539726,-21.924902,-4.7189717
1587563380928,2.5270798,-9.289502,-7.3047094
1587563380939,-7.098808,0.8439561,2.730587
1587563380950,-10.309433,1.9009962,7.265205
1587563380960,-8.549694,1.6017209,-3.1304188
1587563380972,-4.3754034,-0.2825158,-9.123106
1587563380982,-1.8411411,-4.5441947,-9.69532
1587563380994,-0.748188,-8.84059,-7.668628
1587563381005,-0.08020575,-12.308591,-3.0609868
1587563381015,0.7721301,-17.566257,1.0737995
1587563381027,3.2453403,-19.709068,0.40462008
1587563381037,6.2967505,-19.075802,-1.13964
1587563381051,5.7029886,-12.361263,-1.471237
1587563381061,4.4999022,-10.151415,0.8858546
1587563381072,3.0346506,-8.418014,1.9416976
1587563381082,1.8028339,-7.289147,2.3068132
1587563381094,0.7745243,-6.7887588,1.8112136
1587563381106,-0.19752164,-6.8210807,0.18315643
1587563381116,-1.151611,-7.121553,-1.9919758
1587563381126,-1.4796166,-7.2245035,-1.8088194
1587563381140,-1.3215994,-8.385692,-1.0271125
1587563381151,-1.4891934,-8.876503,-0.33518824
1587563381161,-1.6340426,-9.124303,0.11252748
1587563381172,-1.7298107,-9.120711,0.1400608
1587563381181,-1.9069817,-9.036914,-0.4249708
1587563381195,-1.9297266,-8.963891,-0.6380547
1587563381204,-1.7980455,-8.725668,0.35673606
1587563381215,-1.4808137,-8.360553,2.2385786
1587563381226,-0.91697925,-8.342596,3.5984852
1587563381238,0.093373865,-8.659827,3.0657754
1587563381248,1.4293385,-9.295488,0.8607155
1587563381259,3.8786068,-10.945093,-1.9153614
1587563381271,4.0258503,-11.859678,-0.47405192
1587563381281,2.705448,-11.605893,5.4563856
1587563381293,2.4313118,-11.4359045,4.43885
1587563381301,2.8203697,-11.773487,2.3786395
1587563381313,3.2213984,-12.069171,0.7374141
1587563381325,3.2106245,-12.044032,0.21906945
1587563381336,3.1507695,-11.920731,0.17956513
1587563381346,3.4261026,-11.723208,0.49440265
1587563381358,3.8857894,-11.610682,1.0103531
1587563381369,3.4883518,-11.780669,1.2641385
1587563381381,2.919729,-12.067974,1.9057846
1587563381391,2.2816741,-12.374432,2.4971523
1587563381401,1.6316484,-12.811374,1.6077064
1587563381413,0.9864111,-13.548787,0.24181437
1587563381423,0.39863458,-14.408306,0.41299978
1587563381435,0.10414778,-14.859612,0.4249708
1587563381446,-0.41180268,-15.033193,-0.6332663
1587563381457,-1.2210429,-15.42225,-0.11611878
1587563381467,-2.3463178,-15.388731,0.49799395
1587563381479,-4.775235,-13.117831,-0.9959879
1587563381489,-7.0832458,-13.523648,-4.5262384
1587563381503,-7.0832458,-13.523648,-4.5262384
1587563381513,-8.722076,-15.84363,-1.103727
1587563381524,-8.109161,-15.525201,1.1755531
1587563381535,-6.6774287,-15.08347,2.4875755
1587563381547,-4.6483426,-14.603434,3.6619315
1587563381556,-2.5558102,-14.192827,3.8666358
1587563381568,-0.60214174,-13.794193,2.421735
1587563381588,2.1535845,-13.286622,-0.91099375
1587563381595,2.1535845,-13.286622,-0.91099375
1587563381605,2.5498247,-12.880805,-0.92296475
1587563381614,1.9907787,-12.142194,-1.7322049
1587563381623,1.4389153,-11.033679,-1.7465701
1587563381637,0.4249708,-8.998607,-1.8770541
1587563381649,-1.1145009,-5.651513,-1.198298
1587563381658,-1.1145009,-5.651513,-1.198298
1587563381668,-1.553837,-4.5178585,-1.0067618
1587563381680,-1.8088194,-2.9855695,-0.44771573
1587563381690,-1.7369933,-2.2780828,-0.12689269
1587563381703,-1.5358804,-1.6184803,-0.3184288
1587563381713,-1.283292,-0.842759,-0.35673606
1587563381723,-1.3431472,-0.01316811,-0.61291564
1587563381735,-2.0638018,-0.051475335,-0.6344634
1587563381744,-2.3104045,-0.4141969,-0.7637503
1587563381756,-2.4193408,-0.50517654,-0.8882488
1587563381766,-2.348712,-0.58777654,-0.6979098
1587563381779,-1.887828,-0.8690952,0.25258827
1587563381788,-1.4915876,-1.3467385,1.1324574
1587563381800,-1.0199299,-2.1751323,2.4468741
1587563381811,-0.41060558,-3.3267434,4.593276
1587563381821,0.38307226,-5.092467,7.65546
1587563381833,1.2354081,-7.702147,10.042479
1587563381843,1.13964,-12.157756,15.373169
1587563381855,2.8874073,-20.541054,24.624365
1587563381865,6.1207767,-36.400246,19.85751
1587563381877,3.0346506,-39.221813,15.222335
1587563381887,-1.9656396,-31.99611,14.597447
1587563381899,-3.0095115,-7.548918,9.7958765
1587563381910,-2.5713725,-2.801216,5.5377884
1587563381920,-3.8833952,-0.46447513,1.0510546
1587563381932,-6.157887,0.9600749,-1.0510546
1587563381943,-7.0545154,0.61411273,-0.05626374
1587563381954,-6.069301,-2.5103204,3.1794999
1587563381963,-3.1627405,-13.03164,0.9756372
1587563381974,1.2174516,-19.834764,-5.1882353
1587563381986,5.1678843,-25.520992,-9.375694
1587563381998,1.8387469,-11.566388,-8.033744
1587563382007,1.8387469,-11.566388,-8.033744
1587563382018,-8.09719,-3.681085,12.13142
1587563382029,-10.232818,-1.1899183,10.232818
1587563382040,-8.687361,0.23822308,-2.291251
1587563382053,-5.485116,-0.031124622,-8.10557
1587563382063,-3.2692823,-2.9831753,-6.489484
1587563382075,-2.5306711,-6.813898,-4.1132383
1587563382088,-2.054225,-10.280702,-1.7322049
1587563382098,-2.054225,-10.280702,-1.7322049
1587563382116,-2.054225,-10.280702,-1.7322049
1587563382126,7.9451585,-16.716316,-4.7046065
1587563382133,8.780735,-16.091429,-2.8048072
1587563382145,7.9726915,-13.311762,-0.62728083
1587563382154,5.8562174,-10.411186,2.1667526
1587563382163,3.3554738,-9.062054,3.9971197
1587563382172,1.4652514,-8.291121,2.834735
1587563382186,0.1340753,-8.034941,0.9516952
1587563382195,-1.6998832,-6.9838862,-1.6328455
1587563382206,-2.1320367,-6.567295,-1.8219875
1587563382217,-2.1068976,-6.513426,-0.82480246
1587563382228,-2.44448,-7.631518,1.1947067
1587563382239,-3.0346506,-8.297106,0.1340753
1587563382250,-3.3423057,-8.817844,-1.3371617
1587563382261,-3.2249897,-8.610746,-1.8818425
1587563382273,-2.5881321,-8.056489,0.12689269
1587563382283,-1.780089,-8.291121,2.1871033
1587563382296,-1.0079589,-9.091981,2.1799207
1587563382307,0.110133275,-9.417592,0.9564836
1587563382318,1.5167267,-9.320627,-1.3060371
1587563382329,3.8402996,-11.071986,-1.460463
1587563382338,3.3255463,-11.535264,-0.11133038
1587563382351,2.3989902,-11.796232,2.4636335
1587563382361,1.8447324,-12.166136,3.7349546
1587563382371,1.555034,-12.404359,3.4620156
1587563382383,1.4664485,-12.649765,2.3535004
1587563382394,1.8231846,-12.982558,1.0773908
1587563382404,2.4720132,-12.982558,0.30047232
1587563382416,3.168726,-12.5982895,-0.011971008
1587563382427,4.5872903,-11.476605,0.45729253
1587563382437,4.795586,-11.725603,0.6895301
1587563382449,3.7181952,-12.53604,1.2006922
1587563382460,2.754529,-12.320562,1.9788077
1587563382470,1.9680338,-12.10269,2.492364
1587563382482,1.3922282,-12.23078,1.4856021
1587563382493,0.8463503,-12.949039,0.61890113
1587563382503,0.56982,-14.07192,1.0690111
1587563382515,0.9923966,-14.304158,1.0941502
1587563382525,1.4748282,-14.221559,-0.2717419
1587563382537,1.0893618,-14.651318,-0.23223756
1587563382548,-0.011971008,-14.65012,-0.36750996
1587563382558,-1.7717092,-13.781025,-0.7637503
1587563382570,-5.6323595,-12.284649,-3.539827
1587563382580,-7.297527,-13.107058,-4.334702
1587563382592,-8.823831,-14.836868,-3.1004913
1587563382602,-9.604341,-16.43021,-1.5801731
1587563382614,-9.600749,-16.564285,0.31004912
1587563382622,-8.2276745,-15.508442,2.0171149
1587563382634,-6.1411276,-14.9386215,4.0162735
1587563382646,-3.9504328,-14.462175,4.6483426
1587563382656,-0.439336,-13.891158,0.08619126
1587563382669,2.0362685,-13.261483,-1.365892
1587563382679,2.373851,-12.789825,-0.985214
1587563382689,2.0039468,-12.217611,-1.033098
1587563382701,1.4688427,-11.2312,-1.8267759
1587563382711,0.88944596,-9.738416,-1.7250223
1587563382723,-0.16879122,-7.6734166,-1.8171991
1587563382731,-0.81522566,-5.805939,-0.09935937
1587563382745,-1.5801731,-4.9308586,-0.18435353
1587563382754,-1.9572599,-3.965995,-0.93254155
1587563382765,-1.9117701,-3.1771057,-0.22266077
1587563382776,-1.7357962,-2.528277,0.16519992
1587563382787,-1.033098,-0.9504981,-0.08499416
1587563382798,-0.91219085,0.049081136,-0.60693014
1587563382809,-1.0642227,0.62129533,-0.8355764
1587563382820,-1.2856863,0.51834464,-0.9876082
1587563382833,-1.5310919,0.29927522,-1.2150574
1587563382839,-1.70946,0.16160862,-1.1947067
1587563382852,-1.7992426,-0.008379706,-0.94930094
1587563382864,-1.7561469,-0.33877954,-0.4309563
1587563382874,-1.2653356,-1.5634137,1.3132197
1587563382886,-0.88944596,-2.4372973,2.3415294
1587563382897,-0.24420857,-3.7253778,4.4316673
1587563382908,0.21428105,-6.042965,7.086837
1587563382918,0.5722142,-9.058462,10.143036
1587563382930,2.9293058,-22.94603,26.13391
1587563382940,4.1706996,-36.193146,20.543447
1587563382952,2.6132712,-36.213497,16.918627
1587563382962,-0.050278235,-24.443602,12.847286
1587563382974,-0.7062895,-14.304158,9.880871
1587563382984,-0.059855044,-8.327033,6.9958572
1587563382996,0.2705448,-5.3079453,4.146757
1587563383006,-0.5781997,-1.8219875,1.3623008
1587563383018,-4.747702,1.0175357,2.1631613
1587563383029,-5.005079,-2.3822308,4.97156
1587563383038,-4.8159366,-7.7799582,6.730101
1587563383050,-5.106832,-14.742297,0.6715736
1587563383059,-4.7896004,-24.261642,-3.5194764
1587563383070,-4.7896004,-24.261642,-3.5194764
1587563383084,-0.25857377,-26.67021,-6.26802
1587563383094,-0.33279404,-11.477803,-8.772355
1587563383103,-10.833763,0.049081136,9.498995
1587563383116,-13.789405,3.0226796,7.073669
1587563383125,-10.156203,3.6715083,-6.740875
1587563383136,-5.0062757,1.0857705,-9.799467
1587563383148,-1.6184803,-9.277532,-6.493075
1587563383158,-0.59376204,-12.4151325,-2.8491
1587563383169,1.3575124,-16.291346,0.7206547
1587563383179,3.9145198,-18.72146,0.12928689
1587563383191,6.1159883,-18.326416,-1.5310919
1587563383203,7.3789296,-17.004818,-2.9891608
1587563383213,7.819463,-15.525201,-3.1423898
1587563383225,7.2484455,-13.04002,-1.6711528
1587563383235,6.1411276,-10.166978,0.6488287
1587563383247,4.787206,-8.443152,4.0785227
1587563383258,2.123657,-6.573281,3.5613751
