@ HyperIMU -ianovir - 2018
@ Date:Wed Apr 22 15:45:01 GMT+02:00 2020, Sampling Rate:10ms

timestamp,K6DS3TR_Accelerometer.x,K6DS3TR_Accelerometer.y,K6DS3TR_Accelerometer.z
1587563101913,0.0,0.0,0.0
1587563101928,0.15562311,1.9967642,9.800665
1587563101935,0.021547815,1.9369092,9.980229
1587563101946,0.045489833,1.9237411,9.88925
1587563101958,0.1436521,1.9285295,9.841366
1587563101967,0.2777274,1.9680338,9.782708
1587563101978,0.4141969,2.0027497,9.639056
1587563101988,0.46208093,1.9991584,9.53012
1587563101999,0.415394,1.8914193,9.595961
1587563102010,0.21667525,1.8614918,9.56723
1587563102021,0.15682021,1.8028339,9.604341
1587563102030,0.15682021,1.8028339,9.604341
1587563102041,0.12090719,1.7238252,9.569624
1587563102052,0.130484,1.7501614,9.562442
1587563102062,0.19871874,1.7369933,9.557653
1587563102073,0.2873042,1.6831238,9.454702
1587563102084,0.38067806,1.6723499,9.442732
1587563102095,0.45609543,1.7070658,9.464279
1587563102107,0.4441244,1.7489643,9.440337
1587563102118,0.35673606,1.7058687,9.588778
1587563102129,0.22984336,1.685518,9.568427
1587563102140,0.12808979,1.6771383,9.615114
1587563102150,0.09935937,1.661576,9.706094
1587563102161,0.19752164,1.7010803,9.776723
1587563102172,0.24301147,1.6531962,9.758766
1587563102183,0.25258827,1.6065093,9.668983
1587563102195,0.24420857,1.5873557,9.618706
1587563102204,0.2657564,1.5717934,9.528923
1587563102215,0.2777274,1.5634137,9.5492735
1587563102227,0.30166942,1.6436194,9.554062
1587563102238,0.25737667,1.6723499,9.618706
1587563102247,0.16639702,1.673547,9.619903
1587563102259,0.076614454,1.638831,9.651027
1587563102270,-0.005985504,1.6136919,9.668983
1587563102281,-0.11133038,1.5753847,9.662998
1587563102292,-0.15682021,1.5717934,9.700109
1587563102303,-0.17477672,1.5885528,9.613917
1587563102314,-0.17477672,1.5765818,9.510966
1587563102325,-0.16519992,1.553837,9.451111
1587563102336,-0.12090719,1.541866,9.445126
1587563102347,-0.11133038,1.5442601,9.464279
1587563102357,-0.1364695,1.5310919,9.425972
1587563102368,-0.18555063,1.4867992,9.448717
1587563102385,-0.23463176,1.3826514,9.494206
1587563102392,-0.12330139,1.3706805,9.595961
1587563102402,0.010773907,1.4077905,9.68694
1587563102411,0.1436521,1.411382,9.738416
1587563102423,0.19871874,1.3838485,9.7803135
1587563102434,0.22744916,1.3491327,9.813833
1587563102445,0.21547815,1.2952632,9.884461
1587563102456,0.15083471,1.2066777,9.877279
1587563102465,0.1400608,1.1671734,9.901221
1587563102476,0.14724341,1.1659763,9.94312
1587563102487,0.20590134,1.210269,9.932345
1587563102498,0.23822308,1.2282255,9.944317
1587563102509,0.22864626,1.2186487,9.967062
1587563102522,0.15562311,1.282095,9.836577
1587563102533,0.12330139,1.3215994,9.787497
1587563102542,0.10534488,1.3587095,9.715671
1587563102554,0.08738836,1.4077905,9.731233
1587563102565,0.08379706,1.4544775,9.694122
1587563102575,0.055066638,1.4939818,9.652225
1587563102586,0.06584055,1.4772224,9.54209
1587563102597,0.08738836,1.4652514,9.494206
1587563102608,0.11372458,1.4736311,9.451111
1587563102619,0.1352724,1.4856021,9.392453
1587563102631,0.24301147,1.4784195,9.414001
1587563102640,0.22864626,1.496376,9.38168
1587563102651,0.21308395,1.4820108,9.385271
1587563102662,0.17717093,1.4257472,9.409213
1587563102673,0.1412579,1.3515269,9.394848
1587563102682,0.15322891,1.2856863,9.485827
1587563102694,0.142455,1.2880806,9.55885
1587563102706,0.1376666,1.283292,9.646238
1587563102715,0.1316811,1.3144168,9.709685
1587563102727,0.055066638,1.365892,9.715671
1587563102738,-0.02633622,1.3994108,9.722853
1587563102750,-0.08738836,1.376666,9.755175
1587563102760,-0.11252748,1.3802572,9.805453
1587563102773,-0.25378537,1.4089876,9.78989
1587563102783,-0.2825158,1.4209588,9.7958765
1587563102795,-0.30166942,1.471237,9.719262
1587563102807,-0.3172317,1.471237,9.653421
1587563102816,-0.33399114,1.4496891,9.619903
1587563102828,-0.35673606,1.4281414,9.522937
1587563102841,-0.32561144,1.4568717,9.607931
1587563102851,-0.33039984,1.5011644,9.647436
1587563102860,-0.24061728,1.5167267,9.692925
1587563102871,-0.14844051,1.541866,9.703699
1587563102882,-0.093373865,1.555034,9.710882
1587563102893,-0.17238252,1.6591818,9.545682
1587563102902,0.22744916,1.3623008,10.089166
1587563102913,0.48602295,0.9540894,9.838972
1587563102926,0.6500258,0.9780314,9.822212
1587563102936,0.581791,1.1384429,9.718064
1587563102948,0.2753332,1.1923125,9.622296
1587563102959,0.2693477,0.8762778,9.714474
1587563102972,0.23582886,0.50996494,10.102334
1587563102982,0.2681506,0.7733272,10.022128
1587563102993,0.37588966,0.9576807,9.976639
1587563103004,0.50876784,1.0043676,10.296265
1587563103013,0.5746084,0.9516952,10.418368
1587563103025,0.62368953,0.82480246,10.453085
1587563103038,0.60214174,0.6584055,10.601525
1587563103048,0.5614403,0.48243165,10.497377
1587563103059,0.5434838,0.3878607,10.454282
1587563103070,0.04309563,0.50996494,10.506954
1587563103079,-0.045489833,0.36032736,10.723629
1587563103091,-0.08619126,1.1384429,8.736442
1587563103104,-0.23223756,1.1791444,9.100361
1587563103113,-0.23223756,0.8822633,10.06283
1587563103125,-0.25498247,0.50397944,10.2974615
1587563103137,-0.48123455,0.05267244,9.181764
1587563103146,-0.6655881,-0.02633622,9.78989
1587563103157,-0.6859388,0.8822633,9.223662
1587563103168,-0.4285621,1.2808979,9.48463
1587563103179,-0.23942018,0.9876082,9.689334
1587563103189,-0.05865794,0.7565677,9.762358
1587563103200,0.049081136,0.5542577,9.80665
1587563103212,-0.10654198,1.1312603,8.991425
1587563103224,-0.19512744,0.7469909,10.19451
1587563103232,-0.36631286,0.49679685,9.509769
1587563103246,-0.62249243,0.9911995,8.688558
1587563103256,-0.50038815,0.79726917,9.738416
1587563103266,-0.62249243,0.9720459,8.983045
1587563103278,-0.7529764,1.1180922,9.045294
1587563103288,-0.724246,1.4820108,9.232041
1587563103300,-0.60333884,1.0259154,10.047267
1587563103311,-0.4381389,1.021127,9.334992
1587563103321,-0.34117374,1.1324574,9.697714
1587563103332,-0.31004912,1.210269,9.728839
1587563103348,-0.2837129,1.2090719,9.673772
1587563103358,-0.25019407,1.2090719,9.688137
1587563103370,-0.19153613,0.94570965,9.7863
1587563103378,-0.01316811,1.5622166,9.296685
1587563103387,0.17477672,1.5634137,9.982624
1587563103396,0.110133275,1.0307038,9.856929
1587563103408,-0.089782566,1.0510546,9.526528
1587563103420,-0.21906945,0.63087213,10.3214035
1587563103430,-0.17717093,0.8822633,10.128671
1587563103442,-0.10534488,1.0654198,10.005369
1587563103451,-0.11492168,0.8726865,10.220847
1587563103463,-0.025139118,0.8583213,9.232041
1587563103473,-0.06943185,0.7541735,10.477027
1587563103484,0.02873042,0.89662856,10.357317
1587563103496,0.06464344,1.1827357,9.865308
1587563103505,0.30286652,1.0450691,10.048465
1587563103516,0.04189853,0.12689269,10.075998
1587563103527,0.46686932,0.50996494,9.494206
1587563103538,0.4321534,0.48362875,10.006566
1587563103549,0.6979098,0.34117374,9.883265
1587563103558,0.5650316,0.15562311,9.949105
1587563103573,0.48722005,0.15801731,9.782708
1587563103584,0.16639702,0.027533319,9.749189
1587563103594,0.06703765,0.19033903,8.947132
1587563103604,-0.16400282,0.5482722,8.7951
1587563103614,-0.4369418,0.7410054,8.724471
1587563103626,-0.49559975,0.6859388,8.839393
1587563103635,-0.48961425,0.63206923,9.068039
1587563103646,-0.44891283,0.700304,9.076419
1587563103658,-0.33638534,0.6859388,9.087193
1587563103665,-0.17357962,0.7158663,9.052477
1587563103676,-0.08379706,0.7541735,9.021352
1587563103687,-0.08619126,0.79607207,8.957906
1587563103698,0.020350715,0.6991069,9.105149
1587563103708,0.21667525,0.61171854,9.368511
1587563103720,0.29328972,0.5626374,9.379285
1587563103731,0.45848963,0.7278373,9.832987
1587563103743,0.61052144,0.60812724,9.613917
1587563103755,0.2765303,-0.5686229,10.449493
1587563103767,0.34476504,0.12090719,9.089587
1587563103774,0.1592144,0.700304,9.372103
1587563103786,-0.20590134,0.32680854,9.965864
1587563103797,-0.4309563,0.2717419,9.607931
1587563103808,-0.5422867,0.3866636,9.470264
1587563103820,-0.47764325,0.47046062,9.7324295
1587563103831,-0.58657944,0.6667852,10.180145
1587563103842,-0.8750807,0.61052144,10.177752
1587563103854,-1.0833763,0.7314286,10.000581
1587563103865,-0.81881696,0.4357447,9.640253
1587563103875,-0.62967503,0.30885202,9.43914
1587563103888,-0.5243302,0.3184288,9.503783
1587563103899,-0.40701428,0.7086837,9.633071
1587563103909,-0.1376666,0.6452374,9.363723
1587563103920,-0.15322891,0.50996494,9.515755
1587563103930,0.04189853,0.6332663,9.646238
1587563103943,0.29927522,0.7386112,9.92636
1587563103953,0.21547815,0.45370123,10.374076
1587563103963,0.009576807,0.23822308,10.411186
1587563103975,-0.077811554,0.12689269,10.044873
1587563103985,-0.053869538,0.037110128,9.765948
1587563103997,-0.09935937,-0.0047884034,9.757569
1587563104007,-0.1364695,0.11731588,9.794679
1587563104020,-0.11492168,0.24660277,9.797073
1587563104031,-0.06823475,0.34596214,9.945514
1587563104041,-0.01436521,0.47644615,10.133459
1587563104051,-0.20470424,0.7457938,10.111911
1587563104063,-0.6332663,0.6404489,10.087969
1587563104073,-0.46926352,0.48123455,9.976639
1587563104085,-0.52073884,0.36032736,9.970653
1587563104094,-0.60693014,0.4249708,10.218452
1587563104107,-0.9636662,0.6847417,10.454282
1587563104117,-0.9720459,0.5470751,10.589554
1587563104128,-0.82480246,0.39264908,10.156203
1587563104139,-0.7541735,0.59974754,9.713276
1587563104151,-1.1683705,1.3335704,9.099164
1587563104160,-1.1324574,1.3634979,8.977059
1587563104172,-1.0271125,1.4149733,8.980651
1587563104184,-0.8690952,1.4856021,8.9040365
1587563104194,-1.1336545,1.0749966,9.467871
1587563104206,-1.1300632,0.93014735,9.634268
1587563104215,-0.91458505,0.93014735,9.470264
1587563104227,-0.90740246,0.92176765,9.337387
1587563104237,-0.94690675,0.985214,9.354146
1587563104249,-0.8750807,1.079785,9.496601
1587563104260,-0.85473,1.1707647,9.289502
1587563104271,-1.0426749,1.1767502,9.391256
1587563104281,-1.2497733,1.1683705,9.169792
1587563104293,-0.5650316,1.3096284,9.167398
1587563104303,-0.39743748,1.3958195,9.385271
1587563104316,-2.1080947,1.079785,10.590752
1587563104322,-0.9504981,2.030283,10.261548
1587563104335,-0.5805939,1.7238252,10.012551
1587563104347,-0.21188685,1.1815386,9.976639
1587563104357,0.37469256,0.9528923,9.827001
1587563104368,0.91578215,0.50517654,9.448717
1587563104383,0.7433996,1.3623008,9.114726
1587563104392,0.8631097,1.6232687,8.954314
1587563104403,0.9504981,1.8531121,9.2308445
1587563104412,0.8834604,2.0829554,9.49301
1587563104424,0.78769237,2.3439236,9.351752
1587563104431,0.61890113,2.397793,9.097966
1587563104442,0.5614403,2.2170308,8.892065
1587563104454,0.557849,2.2134395,9.011775
1587563104465,0.45968673,2.1428106,9.24521
1587563104476,0.24540567,2.1883004,9.436746
1587563104486,-0.08738836,2.2026656,9.69532
1587563104497,-0.25617957,2.0362685,9.65821
1587563104508,-0.39264908,1.839944,9.657013
1587563104519,-0.61171854,1.6460136,9.739613
1587563104530,-0.7410054,1.5275006,9.646238
1587563104539,-0.58418524,1.4999673,9.616311
1587563104550,-0.50517654,1.541866,9.436746
1587563104561,-0.4381389,1.5119383,8.884883
1587563104572,-0.4261679,1.4951789,8.611943
1587563104584,-0.38067806,1.4999673,8.462306
1587563104595,-0.32680854,1.472434,8.300697
1587563104606,-0.37469256,1.7345991,8.100781
1587563104617,-0.4357447,1.4449008,7.979874
1587563104630,-0.16879122,1.3623008,8.275558
1587563104640,0.029927522,1.5586253,8.641871
1587563104652,0.0035913025,1.899799,8.184579
1587563104661,-0.36391866,2.0482395,8.018182
1587563104672,-0.6607997,2.1416135,7.8972745
1587563104683,-0.60693014,2.1176715,7.7548194
1587563104694,-0.48482585,2.1092918,8.139089
1587563104705,-0.4369418,2.1284454,8.531737
1587563104716,-0.32920274,2.3798366,8.598776
1587563104727,-0.36272156,2.2158337,8.661025
1587563104738,-0.21906945,2.1332338,9.458294
1587563104749,-0.31244332,1.9165585,10.09994
1587563104758,-0.39145198,1.9740193,10.0748005
1587563104769,-0.40581718,1.982399,10.09994
1587563104780,-0.2885013,1.9883845,10.024523
1587563104791,-0.12569559,2.123657,10.170568
1587563104802,-0.038307227,2.1535845,10.181343
1587563104813,-0.04189853,2.1140802,10.187328
1587563104824,-0.08020575,2.0087352,10.368091
1587563104836,0.020350715,1.9009962,10.462662
1587563104848,0.11252748,1.9117701,10.486604
1587563104858,0.11971009,1.8495208,10.529699
1587563104870,0.24420857,1.7836803,10.499771
1587563104881,0.5386954,1.7753005,10.618284
1587563104891,0.78769237,1.8327614,10.805033
1587563104903,1.151611,1.7130513,11.404779
1587563104914,1.2389994,1.5394717,11.962628
1587563104924,0.9876082,1.22224,12.448651
1587563104936,0.6572084,0.89064306,12.831724
1587563104946,0.439336,0.70509243,13.285425
1587563104958,0.23343466,0.58777654,13.56435
1587563104968,0.025139118,0.415394,13.631388
1587563104983,-0.28491,0.023942016,13.26268
1587563104990,-0.28491,0.023942016,13.26268
1587563105002,-0.10295067,-0.34955344,13.40753
1587563105012,0.017956512,-0.6835446,13.542802
1587563105023,-0.1388637,-0.9744401,13.674483
1587563105034,-0.36750996,-1.3072342,13.893553
1587563105045,-0.49440265,-1.5634137,14.136564
1587563105056,-0.7098808,-1.7956513,14.17128
1587563105067,-1.0881647,-1.946486,13.789405
1587563105078,-1.5777789,-1.9560628,13.008895
1587563105087,-2.0745757,-1.8495208,11.907562
1587563105098,-2.7569232,-1.5777789,11.158177
1587563105109,-3.3482912,-1.2006922,10.728417
1587563105119,-3.4979286,-0.80325466,10.408792
1587563105131,-2.9819782,-0.5710171,9.713276
1587563105142,-2.7377696,-0.50158525,9.1829605
1587563105154,-2.480393,-0.11851298,8.403648
1587563105166,-2.5270798,-0.6655881,8.561666
1587563105176,-2.2589293,-0.997185,8.4347725
1587563105189,-2.019509,-0.8607155,8.183381
1587563105194,-1.7118542,-0.6847417,7.9511437
1587563105207,-1.1659763,-0.8403648,7.4016747
1587563105218,-1.079785,-0.90979666,7.4136457
1587563105231,-1.0761937,-0.89543146,7.678205
1587563105240,-1.210269,-0.8415619,7.7919292
1587563105251,-1.5945383,-0.82719666,7.7488337
1587563105262,-1.9129672,-0.8535329,7.633912
1587563105273,-2.0578163,-0.79248077,7.5884223
1587563105284,-2.0362685,-0.59136784,7.5165963
1587563105295,-1.9608512,-0.39624038,7.410054
1587563105304,-1.827973,-0.20590134,7.2783732
1587563105315,-1.6567876,-0.11851298,7.1287355
1587563105326,-1.4281414,-0.10055647,7.0928226
1587563105337,-1.0749966,-0.06464344,7.3777328
1587563105348,-0.7721301,0.108936176,7.73806
1587563105360,-0.7386112,0.39624038,7.878121
1587563105372,-0.8798691,0.51714754,7.892486
1587563105382,-0.92057055,0.49799395,7.717709
1587563105394,-1.0139444,0.5303157,7.467515
1587563105404,-0.9564836,0.60573304,7.2747817
1587563105416,-0.82480246,0.7374141,7.0904284
1587563105426,-0.4369418,0.94930094,7.0461354
1587563105438,-0.22984336,1.0307038,7.0940194
1587563105449,0.027533319,1.1300632,7.265205
1587563105460,0.2753332,1.1875241,7.541735
1587563105470,0.22984336,1.0546459,7.9343843
1587563105482,1.0007763,1.30484,8.546103
1587563105492,0.9660604,1.0965444,9.035717
1587563105504,0.90979666,1.0989386,9.496601
1587563105514,0.9708488,1.1180922,9.779117
1587563105526,1.0127473,1.0773908,9.970653
1587563105536,0.94810385,1.043872,10.382456
1587563105548,0.91219085,1.0630256,10.771513
1587563105558,0.88944596,1.0809821,11.104307
1587563105570,0.78290397,1.1192893,11.467029
1587563105580,0.6392518,1.021127,11.895591
1587563105592,0.545878,0.8343793,12.209231
1587563105603,0.37708676,0.6500258,12.559982
1587563105613,0.21188685,0.81642276,12.427104
1587563105625,-0.055066638,0.80564886,12.179304
1587563105632,-0.2621651,0.80325466,11.972205
1587563105643,-0.35553896,0.9684546,11.811794
1587563105654,-0.21547815,1.0941502,11.781867
1587563105666,0.08020575,1.0474633,11.756727
1587563105677,0.33877954,0.7350199,12.041637
1587563105688,0.62608373,0.415394,12.378023
1587563105698,0.8643068,0.34596214,12.528857
1587563105709,0.78050977,0.077811554,12.181698
1587563105720,1.0115502,-0.39863458,12.575544
1587563105731,0.9816227,-0.48602295,12.40795
1587563105740,0.9816227,-0.48602295,12.40795
1587563105751,0.8607155,-0.59495914,11.924321
1587563105762,0.81163436,-0.46088383,11.705252
1587563105774,0.80804306,-0.38187516,11.465832
1587563105786,0.79248077,-0.3878607,11.344925
1587563105796,0.7230489,-0.4321534,11.293449
1587563105808,0.7266402,-0.51235914,11.259931
1587563105818,0.7302315,-0.6560113,11.206061
1587563105830,0.7218518,-0.8283938,11.027693
1587563105840,0.6715736,-0.92895025,10.828975
1587563105853,0.5805939,-1.0307038,9.977836
1587563105863,0.5542577,-0.9768343,9.48463
1587563105873,0.50158525,-0.8798691,8.908825
1587563105885,0.50397944,-0.78050977,8.250419
1587563105895,0.63087213,-0.46327803,7.5106106
1587563105907,0.6619968,-0.24061728,7.314286
1587563105919,0.6476316,-0.053869538,7.217321
1587563105929,0.6560113,0.10414778,7.035362
1587563105938,0.65242,0.20949265,6.8569937
1587563105950,0.6500258,0.32561144,6.669049
1587563105959,0.5746084,0.50996494,6.4870896
1587563105970,0.50517654,0.6428431,6.277597
1587563105982,0.4177882,0.88944596,6.0465565
1587563105991,0.4405331,1.0941502,6.117185
1587563106002,0.4381389,1.2761095,6.1507044
1587563106013,0.44771573,1.377863,6.3889275
1587563106024,0.5303157,1.4891934,6.6247563
1587563106036,0.58777654,1.6819267,6.841431
1587563106048,0.5482722,1.7741034,7.041347
1587563106061,0.3854665,1.9213469,7.511808
1587563106067,0.3854665,1.9213469,7.511808
1587563106079,0.34356794,1.9117701,7.6410947
1587563106091,0.24660277,1.6711528,7.8469963
1587563106103,0.094570965,1.5622166,8.699332
1587563106113,0.33758244,1.4820108,9.107543
1587563106125,0.5231331,1.6160861,10.390836
1587563106135,0.33039984,1.4748282,10.922348
1587563106147,0.39384618,1.353921,11.370064
1587563106159,0.6392518,1.3311762,11.7268
1587563106170,0.878672,1.3144168,11.888409
1587563106180,1.0067618,1.1312603,12.249933
1587563106192,1.127669,0.93134445,12.981361
1587563106203,1.2078748,1.2078748,13.083116
1587563106212,1.0869676,1.3491327,13.236344
1587563106223,0.78888947,1.4460979,13.199234
1587563106235,0.48602295,1.5873557,12.927492
1587563106246,0.2657564,1.6891093,12.749125
1587563106257,0.093373865,1.6843209,12.832921
1587563106268,-0.05865794,1.6232687,12.884397
1587563106280,-0.08379706,1.353921,12.910732
1587563106288,0.073023155,0.94930094,12.939463
1587563106299,0.21547815,0.6464345,12.901155
1587563106311,0.1412579,0.2741361,12.694057
1587563106322,0.016759412,0.092176765,12.373235
1587563106334,-0.11731588,-0.029927522,12.030864
1587563106344,-0.2837129,-0.029927522,11.602302
1587563106356,-0.8750807,0.01436521,10.402806
1587563106366,-1.3383588,0.09935937,9.892841
1587563106378,-1.8555063,0.18674773,9.368511
1587563106388,-2.3953989,0.1388637,8.783129
1587563106400,-2.790442,0.108936176,8.318654
1587563106410,-2.943671,0.1388637,8.072051
1587563106422,-2.5222914,0.19033903,7.6746135
1587563106432,-2.2278047,0.18794483,7.4268136
1587563106444,-1.863886,0.24779987,7.157466
1587563106454,-1.4676456,0.30885202,6.8545995
1587563106466,-1.0941502,0.36272156,6.5337763
1587563106477,-0.7398083,0.47046062,6.315904
1587563106486,-0.3878607,0.6332663,6.101623
1587563106498,-0.17238252,0.79607207,5.947197
1587563106507,-0.035913024,0.8463503,5.8586116
1587563106518,0.06943185,0.9528923,5.852626
1587563106531,0.20829555,1.1552023,6.339846
1587563106544,0.18076223,1.2042835,6.39611
1587563106553,0.08020575,1.2366052,6.4511766
1587563106563,-0.04189853,1.2773066,6.657078
1587563106572,-0.11851298,1.3862427,6.7001734
1587563106583,-0.35075054,1.4772224,7.217321
1587563106594,-0.45250413,1.4449008,7.429208
1587563106606,-0.4297592,1.4796166,7.752425
1587563106613,-0.46686932,1.5179238,8.178593
1587563106628,-0.5746084,1.4257472,8.522161
1587563106638,-0.641646,1.3156139,8.919599
1587563106648,-0.7218518,1.2413936,9.312247
1587563106662,-0.7793127,1.210269,9.882068
1587563106674,-0.8451532,1.2354081,9.970653
1587563106684,-0.80445176,1.258153,9.987412
1587563106694,-0.7517793,1.3982137,9.903615
1587563106704,-0.5805939,1.6196774,9.871294
1587563106716,-0.32202014,1.8650831,9.946711
1587563106724,-0.079008654,2.0973208,10.09156
1587563106735,0.20350714,2.31639,10.338163
1587563106747,0.2885013,2.409764,10.643424
1587563106758,0.2717419,2.3092074,11.034876
1587563106769,0.08259996,2.146402,11.425131
1587563106780,-0.50038815,2.0614076,12.100295
1587563106792,-0.58418524,2.1583729,12.191275
1587563106801,-0.6871359,1.9716251,12.176909
1587563106812,-0.4417302,2.3702598,11.784261
1587563106823,-0.1448492,2.3235726,11.906365
1587563106832,0.11731588,2.1894975,11.899182
1587563106844,0.130484,1.9835961,12.158954
1587563106855,0.05746084,1.5502456,12.556391
1587563106865,0.027533319,1.0905589,12.8772135
1587563106877,0.10414778,0.81761986,13.190854
1587563106887,0.08020575,0.62967503,13.195642
1587563106898,-0.039504327,0.50158525,12.982558
1587563106909,-0.16519992,0.51714754,12.617443
1587563106920,-0.2801216,0.5506664,12.155362
1587563106931,-0.062249243,0.8619126,11.374852
1587563106939,-0.062249243,0.8619126,11.374852
1587563106950,0.17357962,0.9528923,10.772711
1587563106963,0.2765303,0.8559271,10.494983
1587563106976,0.34117374,0.6787562,10.280702
1587563106986,0.46327803,0.49799395,10.032902
1587563106996,0.60932434,0.38067806,9.759963
1587563107008,0.65242,0.3196259,9.508572
1587563107018,0.58298814,0.31124622,9.099164
1587563107030,0.50876784,0.31124622,8.63828
1587563107041,0.48243165,0.59017074,7.315483
1587563107051,0.5650316,0.6859388,6.932411
1587563107063,0.62847793,0.7386112,6.6606693
1587563107074,0.688333,0.81761986,6.4499793
1587563107084,0.7290344,0.8702923,6.327875
1587563107096,0.7457938,0.91817635,6.341043
1587563107106,0.6703765,0.9708488,6.353014
1587563107118,0.5686229,1.0307038,6.3542113
1587563107128,0.48243165,1.0989386,6.3566055
1587563107141,0.30166942,1.4149733,6.409278
1587563107152,0.23463176,1.5634137,6.423643
1587563107161,0.12928689,1.6950948,6.3793507
1587563107174,0.08020575,1.8243817,6.4164605
1587563107183,0.094570965,2.019509,6.528988
1587563107194,0.12449849,2.184709,6.658275
1587563107206,0.12808979,2.315193,6.862979
1587563107217,0.17357962,2.4301147,7.195773
1587563107228,0.19632454,2.5115175,7.562086
1587563107239,0.20590134,2.492364,7.9906483
1587563107251,-0.016759412,2.3750482,9.165004
1587563107260,-0.016759412,2.3750482,9.165004
1587563107273,-0.5243302,1.839944,10.579977
1587563107282,-0.60453594,1.7202339,10.868479
1587563107294,-0.6512229,1.685518,11.080365
1587563107307,-0.6380547,1.6962919,11.241974
1587563107317,-0.49200845,1.7441759,11.383232
1587563107327,-0.39384618,1.7549498,11.464635
1587563107339,-0.31244332,1.7729063,11.552023
1587563107350,-0.24899697,1.7980455,11.701661
1587563107361,0.1592144,2.2852654,11.736377
1587563107372,0.36032736,2.5139117,12.050017
1587563107381,0.61171854,2.5929205,12.162544
1587563107393,0.82121116,2.8179753,12.23078
1587563107405,0.82480246,2.7030537,12.410344
1587563107415,0.81761986,2.3750482,12.577939
1587563107427,0.6572084,1.8938135,12.968193
1587563107437,0.4405331,1.2246342,13.558364
1587563107449,0.20231004,0.60812724,13.907918
1587563107461,-0.24540567,0.047884032,14.069527
1587563107472,-0.439336,-0.16160862,13.779828
1587563107481,-0.5686229,-0.25737667,13.115437
1587563107495,-0.6368576,-0.08259996,12.11466
1587563107505,-0.7565677,0.5231331,10.371682
1587563107515,-1.1851299,0.59017074,9.609129
1587563107526,-1.6819267,0.4297592,9.218874
1587563107538,-2.0733786,0.35793316,9.222465
1587563107547,-2.3295584,0.31244332,9.434352
1587563107558,-2.408567,0.22744916,9.773131
1587563107570,-2.4768016,0.1400608,9.909601
1587563107582,-2.5079262,-0.12569559,9.593566
1587563107592,-2.3989902,-0.08140286,9.209297
1587563107604,-2.2266076,0.033518825,8.714894
1587563107614,-2.0745757,0.21787235,8.028955
1587563107626,-1.8243817,0.39624038,7.358579
1587563107636,-1.3994108,0.5566519,6.83784
1587563107648,-0.8870517,0.82121116,6.4152637
1587563107658,-0.51714754,1.0307038,6.0920463
1587563107670,-0.25139117,1.1240777,6.1159883
1587563107680,0.007182605,1.292869,6.117185
1587563107692,0.24181437,1.5885528,6.2380924
1587563107702,0.35673606,1.6591818,6.3805475
1587563107714,0.44771573,1.7501614,6.503849
1587563107724,0.4201824,1.7788919,6.646304
1587563107738,0.30047232,1.8136078,7.183802
1587563107748,0.2765303,1.7992426,7.4687123
1587563107758,0.17357962,1.7956513,7.809886
1587563107767,0.10654198,1.8207904,8.172607
1587563107780,0.08379706,1.7753005,8.536526
1587563107790,0.1352724,1.745373,8.920795
1587563107802,0.092176765,1.7681179,9.496601
1587563107816,0.14724341,1.7609353,9.737218
1587563107819,0.14724341,1.7609353,9.737218
1587563107835,0.5494693,1.7932571,10.326192
1587563107844,0.60573304,1.8363527,10.538078
1587563107855,0.62249243,1.8830396,10.694899
1587563107866,0.6727707,1.970428,10.927136
1587563107878,0.6667852,2.098518,11.268311
1587563107889,0.5602432,2.1906946,11.566388
1587563107902,0.045489833,2.4037786,12.0093155
1587563107912,0.045489833,2.4037786,12.0093155
1587563107923,-0.49919105,2.5809495,12.40795
1587563107933,-0.676362,2.7102363,12.175713
1587563107947,-0.676362,2.7102363,12.175713
1587563107957,-0.676362,2.7102363,12.175713
1587563107966,-0.676362,2.7102363,12.175713
1587563107978,0.31244332,1.3299791,13.3704195
1587563107990,0.5710171,0.7374141,13.977349
1587563108000,0.5710171,0.7374141,13.977349
1587563108014,0.32561144,0.29807812,13.721169
1587563108025,0.17597382,0.17717093,13.254301
1587563108034,0.23223756,0.17357962,12.831724
1587563108049,0.40102878,0.2825158,12.35887
1587563108056,0.49559975,0.36511576,11.814188
1587563108068,0.5482722,0.4321534,11.228806
1587563108085,0.7074866,0.45729253,10.195708
1587563108092,0.7637503,0.46806642,9.79827
1587563108101,0.7721301,0.46806642,9.313444
1587563108112,0.7410054,0.4249708,8.844181
1587563108123,0.6835446,0.4177882,8.469488
1587563108134,0.60812724,0.50158525,8.109161
1587563108144,0.48961425,0.5734113,7.7667904
1587563108155,0.33997664,0.62368953,7.4854717
1587563108166,0.22625206,0.7170634,7.1969705
1587563108177,0.11851298,0.830788,6.9731126
1587563108188,0.04309563,0.93732995,6.742072
1587563108198,-0.01316811,1.22224,6.245275
1587563108210,-0.0035913025,1.3682863,5.949591
1587563108221,-0.047884032,1.6567876,5.5641246
1587563108232,-0.10654198,1.8064252,5.4300494
1587563108243,-0.17956513,1.9369092,5.400122
1587563108254,-0.30166942,2.0757728,5.4563856
1587563108263,-0.4417302,2.267309,5.547365
1587563108274,-0.5291186,2.457648,5.695806
1587563108285,-0.62129533,2.6779146,5.8322754
1587563108296,-0.6464345,2.8550856,5.985504
1587563108307,-0.79128367,2.9783869,6.157887
1587563108317,-0.89423436,3.1495724,6.4044895
1587563108328,-0.90740246,3.21661,6.623559
1587563108339,-0.8619126,3.2237926,6.951565
1587563108350,-0.47046062,2.979584,8.2995
1587563108362,-0.25857377,2.657564,9.066842
1587563108369,-0.25857377,2.657564,9.066842
1587563108380,0.039504327,1.9500773,10.380061
1587563108391,0.15203181,1.7262194,10.885238
1587563108402,0.14604631,1.5370775,11.264719
1587563108413,0.0023942017,1.377863,11.585542
1587563108424,-0.18794483,1.1444284,12.032061
1587563108437,-0.29568392,0.9911995,12.212823
1587563108450,-0.3890578,0.80804306,12.378023
1587563108460,-0.33159694,0.59495914,12.409147
1587563108471,0.25857377,0.8607155,12.459426
1587563108480,0.712275,1.2964603,12.483368
1587563108492,0.9564836,1.3850456,12.752715
1587563108504,1.1504139,1.7082629,12.585121
1587563108513,1.1851299,2.0937295,12.714408
1587563108524,1.0714053,2.2134395,12.8448925
1587563108535,0.7769185,2.3080103,12.791022
1587563108546,0.29568392,2.27928,12.776657
1587563108557,-0.033518825,2.1452048,12.7814455
1587563108571,-0.3196259,1.6950948,12.855666
1587563108580,-0.3196259,1.6950948,12.855666
1587563108593,-0.39025488,1.2605472,12.787432
1587563108602,-0.48123455,1.1348516,12.594698
1587563108613,-0.5518635,1.0893618,12.322956
1587563108625,-0.7230489,1.0737995,11.954249
1587563108637,-0.9828198,1.0319009,11.45865
1587563108648,-1.4377182,0.9864111,10.473435
1587563108657,-1.5729905,0.9672575,10.089166
1587563108669,-1.5729905,0.93014735,9.753978
1587563108681,-1.4903905,0.9540894,9.109938
1587563108690,-1.4903905,0.9540894,9.109938
1587563108703,-1.4065934,1.0881647,8.221688
1587563108712,-1.2808979,1.2006922,7.716512
1587563108724,-1.0821792,1.3371617,7.1646485
1587563108735,-0.8882488,1.541866,6.673837
1587563108746,-0.7038953,1.6304513,6.206968
1587563108757,-0.60573304,1.6759412,5.9041014
1587563108768,-0.5279215,1.757344,5.6419363
1587563108779,-0.33997664,1.9117701,5.5270147
1587563108790,-0.16280572,2.0638018,5.449203
1587563108802,0.095768064,2.184709,5.392939
1587563108809,0.095768064,2.184709,5.392939
1587563108820,0.25019407,2.1871033,5.3881507
1587563108831,0.29688102,2.207454,5.6886234
1587563108842,0.2765303,2.146402,5.8945246
1587563108853,0.2908955,2.1930888,6.2021794
1587563108864,0.33399114,2.2589293,6.5349736
1587563108875,0.33877954,2.267309,6.799533
1587563108887,0.2896984,2.079364,7.559692
1587563108898,0.2669535,2.0147207,7.937976
1587563108909,0.3172317,1.9285295,8.293514
1587563108919,0.32321724,1.8698715,8.698134
1587563108930,0.32441434,1.8136078,8.990228
1587563108941,0.415394,1.9069817,9.600749
1587563108952,0.5602432,1.9979613,9.902418
1587563108963,0.736217,2.0626047,10.178948
1587563108974,0.9600749,2.232593,10.485406
1587563108985,1.1085154,2.3582888,10.697293
1587563108996,1.0666169,2.3930047,10.955867
1587563109007,0.89543146,2.4420857,11.203667
1587563109019,0.6344634,2.4432828,11.423933
1587563109025,0.36990416,2.420538,11.574768
1587563109038,0.09935937,2.4145525,11.59871
1587563109049,-0.044292733,2.5725696,11.21085
1587563109060,-0.031124622,3.122039,10.812215
1587563109071,0.25857377,3.2704794,10.83496
1587563109082,0.6584055,3.5003228,10.995371
1587563109094,0.9935937,3.4476504,11.317391
1587563109106,1.1623849,3.4165258,11.645397
1587563109116,0.94092125,3.3758245,12.158954
1587563109128,0.61411273,3.2632968,12.182896
1587563109137,0.3196259,3.1483753,12.152967
1587563109149,0.12449849,3.0119057,12.191275
1587563109161,0.0011971008,2.8526914,12.142194
1587563109171,-0.0011971008,2.3894134,11.968615
1587563109181,0.19273324,2.1811178,11.941081
1587563109192,0.38307226,2.0231004,11.841722
1587563109204,0.49200845,1.8171991,11.63582
1587563109214,0.5231331,1.6196774,11.423933
1587563109226,0.45968673,1.4664485,11.201273
1587563109236,0.35434186,1.3431472,10.790668
1587563109248,0.23104046,1.2366052,10.308235
1587563109258,0.11731588,1.2126632,9.76116
1587563109270,0.0023942017,1.2270284,9.220071
1587563109280,-0.049081136,1.2258313,8.644265
1587563109293,0.015562311,1.3024458,7.7368627
1587563109302,0.1604115,1.3323733,7.3322425
1587563109314,0.32561144,1.3802572,7.0724716
1587563109323,0.50158525,1.4496891,6.8462195
1587563109334,0.7015011,1.508347,6.6726403
1587563109345,1.0606314,1.6567876,6.564901
1587563109354,1.0582372,1.6819267,6.540959
1587563109367,0.9756372,1.7705121,6.5349736
1587563109376,0.8798691,1.9297266,6.5481415
1587563109387,0.7433996,2.0853498,6.543353
1587563109398,0.59495914,2.2146366,6.528988
1587563109409,0.5506664,2.349909,6.517017
1587563109420,0.5446809,2.4492683,6.649895
1587563109430,0.5770026,2.5007436,6.8127007
1587563109441,0.7302315,2.5761611,7.0593038
1587563109453,0.8714894,2.5893292,7.430405
1587563109460,0.8714894,2.5893292,7.430405
1587563109471,0.93254155,2.517503,8.279149
1587563109484,0.9576807,2.4468741,8.793902
1587563109495,0.79966336,2.3558946,9.192537
1587563109508,0.59855044,2.2768857,9.53012
1587563109518,0.39983168,2.2649148,9.812635
1587563109528,0.272939,2.2984335,10.07121
1587563109540,0.24061728,2.3403323,10.323798
1587563109550,0.17597382,2.3702598,10.535685
1587563109562,0.21308395,2.2613235,10.875661
1587563109570,0.21308395,2.2613235,10.875661
1587563109583,0.59256494,2.0003555,11.680113
1587563109592,0.59495914,1.887828,11.842918
1587563109606,0.6572084,2.1978772,11.787852
1587563109615,0.6464345,2.4037786,12.087128
1587563109626,0.48722005,2.3511062,11.968615
1587563109637,0.33159694,2.5677812,11.63582
1587563109650,0.24660277,2.9257145,11.670536
1587563109659,0.16280572,2.955642,11.749545
1587563109671,-0.12330139,2.5570073,11.939884
1587563109679,-0.40940848,1.9069817,12.253524
1587563109692,-0.7110779,0.6895301,13.202826
1587563109702,-0.7350199,0.16160862,13.711593
1587563109713,-0.736217,-0.2789245,14.12579
1587563109725,-1.0271125,-0.59735334,14.018051
1587563109735,-1.4508862,-0.81761986,13.524845
1587563109748,-1.6843209,-0.6979098,12.843695
1587563109758,-1.7190368,-0.30406362,12.100295
1587563109772,-2.244564,-0.050278235,10.09156
1587563109781,-2.3750482,-0.12569559,9.651027
1587563109794,-2.3319526,-0.16160862,9.346964
1587563109804,-1.79206,-0.521936,9.871294
1587563109815,-1.6795325,-0.7457938,9.952697
1587563109827,-1.3910311,-0.81761986,9.909601
1587563109837,-1.033098,-0.7074866,9.631873
1587563109850,-0.78050977,-0.4357447,9.148245
1587563109860,-0.6955156,-0.08499416,8.42759
1587563109874,-0.50996494,0.6452374,6.951565
1587563109885,-0.5554548,0.8487445,6.4416
1587563109900,-0.47644615,1.0893618,6.1399302
1587563109911,0.009576807,1.4305356,6.0956373
1587563109917,0.009576807,1.4305356,6.0956373
1587563109928,0.17238252,1.5682021,6.160281
1587563109940,0.2777274,1.6292542,6.203377
1587563109949,0.3184288,1.6352397,6.2524576
1587563109961,0.4213795,1.7489643,6.25964
1587563109972,0.50876784,1.7585411,6.405687
1587563109984,0.44651863,1.7393875,6.621165
1587563109992,0.36152446,1.7477672,6.8366427
1587563110003,0.2621651,1.7166426,7.1383123
1587563110013,0.16879122,1.6795325,7.393295
1587563110023,0.12449849,1.5957354,7.691373
1587563110034,0.20350714,1.3730747,8.258799
1587563110045,0.22984336,1.3024458,8.49343
1587563110056,0.25378537,1.3144168,8.583213
1587563110066,0.23343466,1.4269443,8.708909
1587563110077,0.2753332,1.541866,8.791509
1587563110088,0.34237084,1.7250223,8.938752
1587563110099,0.39264908,1.8950106,9.056067
1587563110110,0.51475334,2.0015526,9.301474
1587563110119,0.59136784,2.1308396,9.637859
1587563110132,0.48003745,2.1404164,10.374076
1587563110142,0.24420857,2.019509,10.957064
1587563110154,0.034715924,1.8411411,11.669339
1587563110164,-0.29927522,1.6053122,12.16853
1587563110176,-0.5650316,1.6927006,12.424709
1587563110188,-0.7661445,1.7298107,12.726379
1587563110198,-0.79607207,1.721431,12.653356
1587563110208,-0.59136784,1.9297266,12.58153
1587563110220,-0.11372458,2.1296425,12.679692
1587563110229,0.2861071,1.9859903,12.64737
1587563110240,0.6991069,1.8052281,12.98615
1587563110251,0.5662287,1.2066777,13.536817
1587563110263,0.12090719,0.94930094,13.631388
1587563110272,-0.16759412,0.90859956,13.453019
1587563110283,-0.49081135,0.7505822,13.080721
1587563110295,-0.6967127,0.6607997,12.654553
1587563110307,-0.6368576,0.62249243,12.210428
1587563110316,-0.3842694,0.59974754,11.84651
1587563110327,-0.044292733,0.59495914,11.4359045
1587563110336,0.23343466,0.6847417,11.015722
1587563110347,0.41060558,0.7278373,10.575189
1587563110358,0.5315128,0.79008657,10.095152
1587563110370,0.5662287,0.82719666,9.630676
1587563110381,0.41299978,0.94092125,8.932767
1587563110392,0.23343466,0.93493575,8.49343
1587563110403,0.12808979,0.9552865,8.087613
1587563110415,0.10055647,1.021127,7.735666
1587563110425,0.093373865,1.0630256,7.3992805
1587563110437,0.095768064,1.0977415,7.1059904
1587563110444,0.19871874,1.1707647,6.908469
1587563110455,0.30047232,1.2808979,6.7372837
1587563110467,0.35194764,1.3132197,6.585252
1587563110479,0.39264908,1.3503298,6.4643445
1587563110491,0.48961425,1.4915876,6.602011
1587563110501,0.5351041,1.5478514,6.591237
1587563110515,0.533907,1.6519991,6.5481415
1587563110525,0.5482722,1.7872716,6.445191
1587563110536,0.58418524,1.9117701,6.4140663
1587563110545,0.5781997,2.0506337,6.5146227
1587563110558,0.62368953,2.1775265,6.619968
1587563110566,0.6572084,2.2697031,6.7959414
1587563110577,0.7062895,2.36188,6.9491706
1587563110588,0.7422025,2.4636335,7.1993647
1587563110599,0.8475474,2.5941176,7.4950485
1587563110610,0.92296475,2.6898856,7.740454
1587563110621,1.0618285,2.6623523,8.333019
1587563110631,1.1552023,2.6156654,8.815451
1587563110642,1.1935096,2.4971523,9.218874
1587563110653,1.2114661,2.3774424,9.775525
1587563110662,1.22224,2.3451207,10.152613
1587563110672,1.2246342,2.2266076,10.529699
1587563110683,1.1971009,2.1859062,10.933122
1587563110696,1.1192893,2.1452048,11.207258
1587563110708,1.1085154,2.0111294,11.567586
1587563110718,1.1073183,1.8734628,11.900379
1587563110730,1.0402806,1.6184803,12.021287
1587563110740,1.2641385,1.9357121,12.109872
1587563110753,1.2162545,2.1260512,12.1840925
1587563110763,1.0426749,2.2110453,12.245145
1587563110775,0.8487445,2.2984335,12.483368
1587563110787,0.51714754,2.2254105,12.616246
1587563110797,0.059855044,1.8782512,12.812571
1587563110807,-0.31244332,1.271321,13.036428
1587563110818,-0.5506664,0.59615624,13.302185
1587563110835,-0.60333884,-0.31483752,13.687651
1587563110844,-0.46447513,-0.63206923,13.770251
1587563110854,-0.40462008,-0.79966336,13.620613
1587563110863,-0.4321534,-0.8690952,13.238738
1587563110872,-0.5303157,-0.7649474,12.611458
1587563110885,-0.7338228,-0.51235914,11.926716
1587563110895,-1.0977415,-0.260968,11.153389
1587563110907,-1.5346833,-0.1316811,10.392033
1587563110917,-1.8195933,-0.011971008,9.817424
1587563110930,-1.9907787,0.073023155,9.452309
1587563110941,-2.0171149,0.059855044,9.204509
1587563110951,-1.6292542,0.06703765,8.868123
1587563110961,-1.4041992,0.17836803,8.639477
1587563110973,-1.1348516,0.2717419,8.391677
1587563110983,-0.81043726,0.46327803,8.128315
1587563110996,-0.5327099,0.62847793,7.7368627
1587563111005,-0.31483752,0.7062895,7.2388687
1587563111018,-0.005985504,0.8822633,6.8809357
1587563111028,0.23582886,1.0666169,6.5936313
1587563111038,0.39863458,1.1707647,6.349423
1587563111050,0.5614403,1.2976574,6.1890116
1587563111061,0.82599956,1.4580688,6.184223
1587563111071,0.82599956,1.4580688,6.184223
1587563111083,0.9684546,1.5215151,6.2345014
1587563111093,1.1216835,1.5358804,6.361394
1587563111105,1.1947067,1.5921441,6.5625067
1587563111115,1.2246342,1.6196774,6.743269
1587563111126,1.2473791,1.5753847,6.9731126
1587563111138,1.2605472,1.553837,7.290344
1587563111147,1.1192893,1.5406688,7.513005
1587563111158,0.9528923,1.4939818,7.645883
1587563111169,0.7793127,1.4856021,7.868544
1587563111180,0.46088383,1.5801731,8.526949
1587563111192,0.49679685,1.6603789,8.771158
1587563111203,0.61530983,1.8028339,8.954314
1587563111213,0.7254431,1.9548657,9.172187
1587563111225,0.8487445,2.067393,9.397242
1587563111235,1.033098,2.1308396,9.738416
1587563111248,1.22224,2.1679497,10.152613
1587563111260,1.2677298,2.1691468,10.564415
1587563111270,1.316811,2.098518,11.089942
1587563111281,1.3096284,2.0530279,11.587936
1587563111291,1.2126632,2.0446482,11.9614315
1587563111301,0.9684546,2.0087352,12.301409
1587563111313,0.664391,2.4301147,12.5743475
1587563111320,0.5470751,2.5629928,12.552799
1587563111332,0.5386954,2.8383262,12.380417
1587563111344,0.6991069,3.0921116,12.553997
1587563111355,0.9720459,3.0059202,12.604275
1587563111367,1.0965444,2.7281928,12.679692
1587563111376,1.2234371,2.2780828,12.864046
1587563111387,1.436521,1.8710686,13.210008
1587563111398,1.4820108,1.4808137,13.4195
1587563111410,1.6819267,0.93254155,13.486538
1587563111421,1.721431,0.7553706,12.5982895
1587563111430,1.827973,0.866701,11.915942
1587563111442,1.9009962,1.0869676,11.256339
1587563111453,1.8794483,1.2808979,10.538078
1587563111464,1.8327614,1.4137762,10.043676
1587563111475,1.7753005,1.5011644,9.764751
1587563111486,1.6316484,1.400608,9.598354
1587563111497,1.4329298,1.210269,9.507375
1587563111508,1.1923125,0.9923966,9.53012
1587563111520,1.0271125,0.7517793,9.519346
1587563111530,0.90859956,0.557849,9.32781
1587563111543,0.7661445,0.31244332,8.604761
1587563111552,0.7422025,0.2908955,8.152257
1587563111564,0.7410054,0.32800564,7.6949644
1587563111575,0.7553706,0.40701428,7.2592196
1587563111585,0.79128367,0.52073884,6.7731967
1587563111597,0.8631097,0.6751649,6.489484
1587563111607,0.8882488,0.81043726,6.197391
1587563111619,0.94930094,1.0151415,6.0202203
1587563111629,1.0354922,1.2401965,5.875371
1587563111641,1.1899183,1.7178397,5.7041855
1587563111649,1.1899183,1.7178397,5.7041855
1587563111662,1.115698,1.9991584,5.559336
1587563111672,1.0319009,2.1296425,5.675455
1587563111684,0.9564836,2.2505496,5.9148755
1587563111694,1.0019734,2.3786395,6.2512608
1587563111706,0.9983821,2.4468741,6.6726403
1587563111716,1.009156,2.4492683,7.1622543
1587563111728,1.0031705,2.3918076,7.559692
1587563111738,0.9768343,2.2697031,7.9367785
1587563111750,1.0127473,2.1906946,8.479065
1587563111758,0.9911995,2.087744,9.006987
1587563111770,1.0127473,2.019509,9.603143
1587563111782,0.9935937,1.6938977,10.770316
1587563111792,0.93014735,1.6077064,11.295844
1587563111803,0.8391677,1.532289,11.617864
1587563111814,0.6799533,1.460463,11.902774
1587563111825,0.51475334,1.4903905,12.112267
1587563111836,0.29688102,1.4317327,12.307394
1587563111847,0.19871874,1.3227965,12.421119
1587563111859,0.1400608,1.2904748,12.469003
1587563111866,0.22744916,1.3431472,12.405556
1587563111877,0.8415619,2.0626047,12.457031
1587563111887,0.7338228,2.1164744,12.306197
1587563111898,0.61770403,2.432509,12.228385
1587563111909,0.48602295,2.6922798,12.2319765
1587563111920,0.24420857,2.6515784,12.079945
1587563111931,-0.23463176,2.4540567,11.962628
1587563111943,-0.80445176,1.4772224,11.665748
1587563111955,-0.712275,0.94451255,11.59033
1587563111967,-0.521936,0.49320555,11.5616
1587563111975,-0.31603462,0.10414778,11.581951
1587563111987,0.005985504,-0.22146365,11.692084
1587563111999,0.35913026,-0.36511576,11.6669445
1587563112010,0.58538234,-0.45729253,11.456255
1587563112020,0.5662287,-0.47764325,11.124659
1587563112035,0.08738836,-0.29209262,10.327389
1587563112045,-0.24301147,-0.2777274,10.038888
1587563112057,-0.45609543,-0.31603462,9.928755
1587563112066,-0.5734113,-0.19273324,9.710882
1587563112076,-0.59376204,-0.05865794,9.55885
1587563112087,-0.5351041,0.10055647,9.337387
1587563112099,-0.47884035,0.3172317,9.009381
1587563112108,-0.36750996,0.92416185,8.22528
1587563112119,-0.24899697,1.270124,7.785944
1587563112130,-0.12330139,1.5370775,7.410054
1587563112141,-0.073023155,1.9596541,6.7600284
1587563112152,-0.020350715,2.1559787,6.576872
1587563112163,0.090979666,2.3439236,6.4380083
1587563112175,0.25737667,2.4265234,6.31351
1587563112187,0.4165911,2.4600422,6.278794
1587563112195,0.60932434,2.4540567,6.3206925
1587563112207,0.7517793,2.3630772,6.5241995
1587563112219,0.8702923,2.256535,6.655881
1587563112230,0.9708488,2.2146366,6.8246717
1587563112240,1.0163386,2.183512,6.993463
1587563112252,0.9588778,2.0817583,7.3071036
1587563112263,0.82360536,1.9919758,7.478289
1587563112273,0.7517793,1.8710686,7.6973586
1587563112285,0.6847417,1.8602947,7.916428
1587563112295,0.6584055,1.839944,8.048109
1587563112308,0.7350199,1.816002,8.135497
1587563112319,0.8415619,1.8195933,8.303091
1587563112332,1.0271125,1.8064252,8.747216
1587563112347,1.4161704,1.602918,9.551667
1587563112356,1.4544775,1.5466543,10.075998
1587563112365,1.4197617,1.4628572,10.672154
1587563112374,1.283292,1.3120226,11.230003
1587563112384,0.9959879,1.1384429,11.84651
1587563112393,0.6919243,1.0582372,12.301409
1587563112404,0.46686932,1.1013328,12.539632
1587563112413,0.33758244,1.3994108,12.689269
1587563112424,0.21547815,1.5813702,12.4869585
1587563112435,0.37828386,1.8974048,12.138602
1587563112447,0.9648633,2.3654714,12.076353
1587563112458,1.5454572,2.493561,12.179304
1587563112469,1.8471266,2.4061728,12.357672
1587563112481,2.123657,2.1272483,12.721591
1587563112491,2.1440077,1.2856863,13.581109
1587563112503,1.8028339,1.0570401,13.716381
1587563112513,1.6771383,0.92895025,13.933057
1587563112525,1.483208,0.8726865,13.785813
1587563112535,1.3180081,0.78769237,13.502101
1587563112547,1.2856863,0.7541735,13.081918
1587563112557,1.472434,0.82480246,12.586318
1587563112568,1.9728222,0.92655605,11.568783
1587563112581,2.2242134,0.93014735,10.569203
1587563112591,2.2457612,0.8690952,10.047267
1587563112601,2.1511903,0.7469909,9.613917
1587563112614,2.0159178,0.61411273,9.214086
1587563112624,1.8076223,0.5303157,8.910022
1587563112636,1.6412252,0.50397944,8.6095495
1587563112649,1.4616601,0.5770026,8.286332
1587563112659,1.3227965,0.6428431,7.8589673
1587563112671,1.2114661,0.724246,7.0186024
1587563112681,1.2114661,0.724246,7.0186024
1587563112690,1.2401965,0.81283146,6.691794
1587563112701,1.3239936,0.93254155,6.1530986
1587563112712,1.3204023,0.9983821,6.0250087
1587563112724,1.3383588,1.0905589,5.920861
1587563112733,1.3072342,1.1971009,5.8262897
1587563112746,1.2366052,1.283292,5.7640405
1587563112755,1.2354081,1.411382,5.7484784
1587563112766,1.2449849,1.5239093,5.7424927
1587563112777,1.2078748,1.5885528,5.723339
1587563112789,1.2210429,1.673547,5.770026
1587563112800,1.2725182,1.8507179,5.959168
1587563112813,1.2078748,1.934515,6.455965
1587563112823,1.2330139,1.9165585,6.777985
1587563112834,1.3120226,1.8231846,7.189788
1587563112845,1.3515269,1.6280571,7.6147585
1587563112854,1.3347675,1.3814543,8.0445175
1587563112865,1.3263878,1.1504139,8.550891
1587563112877,1.2198458,1.0031705,9.211691
1587563112889,1.1504139,0.89782566,9.7479925
1587563112898,1.1192893,0.8415619,10.155006
1587563112909,1.0079589,0.82480246,10.55843
1587563112921,0.8643068,0.92535895,11.026496
1587563112932,0.82360536,0.93254155,11.179725
1587563112945,0.7266402,0.9528923,11.228806
1587563112956,0.5626374,1.0510546,11.341333
1587563112965,0.49440265,1.0354922,11.403583
1587563112977,0.49919105,1.0247183,11.505336
1587563112988,0.6356605,1.1911154,11.479
1587563113000,0.82121116,1.2641385,11.753136
1587563113009,0.91458505,1.1623849,12.087128
1587563113021,0.47405192,0.91338795,12.728773
1587563113032,0.23822308,0.7026982,12.926295
1587563113043,0.033518825,0.35314476,12.965799
1587563113053,-0.023942016,-0.051475335,13.016078
1587563113064,0.19393034,-0.46806642,12.97777
1587563113073,0.581791,-0.760159,12.996924
1587563113084,1.0342951,-0.92057055,12.8772135
1587563113095,1.508347,-1.1085154,12.925097
1587563113105,1.8662802,-1.1312603,13.008895
1587563113116,2.0853498,-1.0019734,13.083116
1587563113128,1.9668367,-0.9672575,12.995727
1587563113141,1.6424223,-0.9516952,12.741941
1587563113151,0.39145198,-0.7230489,12.087128
1587563113163,-0.33997664,-0.5662287,11.660959
1587563113173,-1.0809821,-0.4249708,11.062409
1587563113185,-1.532289,-0.25617957,10.609905
1587563113195,-1.8052281,-0.088585466,10.158598
1587563113207,-1.9393034,0.045489833,9.773131
1587563113217,-2.0386627,-0.10055647,9.232041
1587563113229,-2.0721815,-0.15682021,8.781932
1587563113239,-1.9285295,-0.1352724,8.392874
1587563113252,-1.2354081,-0.045489833,7.517793
1587563113261,-0.8439561,-0.059855044,7.2987237
1587563113272,-0.62488663,0.05865794,7.1155677
1587563113284,-0.51475334,0.16879122,6.943185
1587563113291,-0.439336,0.37229836,6.706159
1587563113302,-0.29568392,0.59376204,6.4727244
1587563113313,-0.10414778,0.8463503,6.351817
1587563113324,0.061052144,1.0749966,6.2524576
1587563113336,0.20709845,1.3251907,6.1243677
1587563113348,0.272939,1.5945383,6.0238113
1587563113360,0.272939,1.7705121,6.0489507
1587563113371,0.15083471,2.0278888,6.2847795
1587563113380,0.15083471,2.0278888,6.2847795
1587563113393,0.08259996,2.1763294,6.745663
1587563113399,0.08259996,2.1763294,6.745663
1587563113412,0.05626374,2.2577322,7.299921
1587563113424,0.02633622,2.3092074,7.5321584
1587563113435,0.061052144,2.3427265,7.878121
1587563113445,0.095768064,2.4229321,8.121132
1587563113457,0.1400608,2.4624364,8.303091
1587563113467,0.16519992,2.420538,8.586804
1587563113478,0.3184288,2.3882163,8.9519205
1587563113491,0.94092125,2.2852654,10.085575
1587563113502,1.0941502,2.1296425,10.57878
1587563113512,1.127669,1.8387469,11.042058
1587563113524,1.0127473,1.6232687,11.613075
1587563113535,0.8834604,1.3503298,12.223597
1587563113545,0.712275,1.0845734,12.690466
1587563113558,0.6464345,1.3263878,12.932281
1587563113571,0.35793316,1.5346833,12.945449
1587563113580,0.35793316,1.5346833,12.945449
1587563113592,0.51595044,2.098518,12.671312
1587563113607,0.80564886,2.123657,12.7096195
1587563113616,0.9708488,1.9847932,12.876017
1587563113629,1.0845734,1.6065093,13.207614
1587563113639,1.2054806,1.1611878,13.584701
1587563113651,1.2294226,0.7038953,13.596671
1587563113660,1.2294226,0.7038953,13.596671
1587563113671,1.2916719,0.5374983,13.196839
1587563113682,1.283292,0.47524905,12.8053875
1587563113693,1.3239936,0.40821138,12.496535
1587563113704,1.4065934,0.4333505,12.186486
1587563113715,1.5047557,0.44891283,11.389217
1587563113726,1.4891934,0.48602295,11.002554
1587563113735,1.4185646,0.47046062,10.588357
1587563113747,1.3682863,0.3878607,10.236409
1587563113760,1.2485762,0.35075054,9.902418
1587563113770,1.163582,0.33518824,9.782708
1587563113780,1.0606314,0.272939,9.487024
1587563113792,0.78888947,0.31004912,8.607155
1587563113802,0.6847417,0.39145198,8.145074
1587563113814,0.6332663,0.5494693,7.691373
1587563113824,0.59136784,0.7026982,7.1981673
1587563113837,0.5626374,0.7769185,6.757634
1587563113846,0.58538234,0.8583213,6.405687
1587563113857,0.6332663,0.94570965,6.197391
1587563113867,0.60932434,1.043872,6.051345
1587563113879,0.59615624,1.1480197,5.9483943
1587563113889,0.5374983,1.2545617,5.9268465
1587563113901,0.3878607,1.4185646,5.901707
1587563113910,0.29807812,1.4520833,5.981913
1587563113922,0.3196259,1.4209588,6.301539
1587563113933,0.4297592,1.3347675,6.967127
1587563113944,0.4237737,1.2808979,7.2101383
1587563113953,0.39145198,1.22224,7.443573
1587563113965,0.4249708,1.2617443,7.5812397
1587563113976,0.45848963,1.2916719,7.7464395
1587563113987,0.5327099,1.3132197,7.9116397
1587563113998,0.61890113,1.3012487,8.12233
1587563114009,0.7098808,1.258153,8.422802
1587563114021,0.9504981,1.1540052,8.805874
1587563114031,1.0881647,1.1659763,9.030929
1587563114043,1.2282255,1.1731589,9.2308445
1587563114053,1.3275849,1.1528081,9.5013895
1587563114065,1.4221559,1.1133038,9.704897
1587563114075,1.4341269,1.1456255,9.855731
1587563114087,1.4437037,1.2258313,9.911995
1587563114097,1.4377182,1.3838485,9.951499
1587563114109,1.4903905,1.5969325,9.968259
1587563114119,1.5071499,1.6627731,10.041282
1587563114132,1.7729063,1.9548657,10.141838
1587563114142,1.7729063,1.9548657,10.141838
1587563114152,1.9716251,2.1535845,10.465055
1587563114164,1.9728222,2.315193,11.134235
1587563114172,1.8028339,2.1380222,11.559206
1587563114184,1.4856021,1.804031,11.943475
1587563114195,1.1097125,1.2306197,12.421119
1587563114207,0.985214,0.5434838,12.952631
1587563114216,0.9528923,-0.044292733,13.435062
1587563114227,1.0809821,-0.5602432,13.711593
1587563114238,1.3563153,-1.0247183,13.958196
1587563114250,1.520318,-1.6986861,13.978547
1587563114261,1.4736311,-1.7872716,13.725958
1587563114272,1.3718776,-1.7417817,13.38239
1587563114281,1.1097125,-1.6651673,12.896367
1587563114292,0.5686229,-1.602918,12.316971
1587563114303,-0.09816227,-1.4987702,11.7387705
1587563114314,-0.6679823,-1.353921,11.216835
1587563114324,-1.0127473,-1.2294226,10.828975
1587563114335,-1.2605472,-1.055843,10.493786
1587563114346,-1.4784195,-0.91338795,10.111911
1587563114357,-1.6136919,-0.7649474,9.767146
1587563114370,-1.5849615,-0.545878,9.408015
1587563114384,-1.3455414,-0.015562311,8.561666
1587563114388,-1.3455414,-0.015562311,8.561666
1587563114404,-0.81163436,0.6907272,7.2029557
1587563114413,-0.61052144,0.8355764,6.8522053
1587563114425,-0.34955344,1.0199299,6.6666546
1587563114434,-0.21906945,1.1324574,6.481104
1587563114445,-0.077811554,1.1432313,6.367379
1587563114456,0.093373865,1.1324574,6.3913217
1587563114468,0.20350714,1.1444284,6.4404025
1587563114480,0.3196259,1.0474633,6.525397
1587563114490,0.4405331,0.9576807,6.613982
1587563114503,0.5686229,0.985214,6.7684083
1587563114512,0.6727707,1.0187328,6.847417
1587563114523,0.7457938,1.067814,6.9719152
1587563114534,0.7793127,1.1216835,7.1155677
1587563114545,0.79367787,1.1599907,7.36217
1587563114557,0.8535329,1.1587936,7.6051817
1587563114566,0.8319851,1.0857705,7.9092455
1587563114577,0.830788,1.0199299,8.231265
1587563114588,0.89782566,1.0079589,8.53054
1587563114600,0.91937345,1.0522517,8.774749
1587563114607,0.94930094,1.1228806,8.935161
1587563114618,1.0115502,1.2138603,8.995016
1587563114630,1.1623849,1.4999673,9.326612
1587563114642,1.4281414,1.7836803,9.873688
1587563114654,1.4413095,1.8303672,10.210073
1587563114664,1.5526398,1.7621324,10.614694
1587563114676,1.5658079,1.6352397,11.150994
1587563114686,1.5011644,1.3862427,11.741165
1587563114700,1.3108255,1.0905589,12.243947
1587563114710,1.364695,1.0785879,12.604275
1587563114722,1.1755531,1.0977415,12.676101
1587563114733,1.3060371,1.3790601,12.3516865
1587563114743,1.6328455,1.7788919,12.235568
1587563114755,2.0925324,1.8722657,12.2080345
1587563114765,2.3439236,1.7202339,12.206838
1587563114779,2.4959552,1.3826514,12.417527
1587563114789,2.7461493,0.9828198,12.919112
1587563114800,2.8072014,0.5614403,13.231556
1587563114810,2.6910827,0.15801731,13.333309
1587563114820,2.5929205,-0.076614454,13.401544
1587563114831,2.3116016,-0.29448682,12.998121
1587563114842,2.184709,-0.2861071,12.567164
1587563114854,2.1775265,-0.18555063,11.753136
1587563114863,2.2242134,-0.16759412,11.303026
1587563114874,2.2493525,-0.11133038,10.884041
1587563114886,2.2469583,-0.044292733,10.425551
1587563114899,2.2014685,0.016759412,9.921572
1587563114908,2.0123265,0.08738836,9.473856
1587563114920,1.8171991,0.108936176,9.084799
1587563114931,1.6998832,0.17238252,8.767567
1587563114941,1.4784195,0.41299978,8.237251
1587563114953,1.3802572,0.49799395,7.952341
1587563114965,1.3215994,0.5805939,7.6111674
1587563114975,1.3036429,0.676362,7.311892
1587563114985,1.3120226,0.79846627,7.0593038
1587563114997,1.2880806,0.89662856,6.8450227
1587563115007,1.2617443,0.93972415,6.727707
1587563115019,1.2761095,0.997185,6.7743936
1587563115030,1.2330139,1.1085154,6.7971387
1587563115040,1.1432313,1.151611,6.752846
1587563115056,0.94930094,1.3467385,6.5325794
1587563115062,0.8798691,1.4903905,6.385336
1587563115074,0.7697359,1.5741876,6.266823
1587563115087,0.62847793,1.6747441,6.408081
1587563115101,0.6572084,1.7848774,6.879739
1587563115110,0.6572084,1.7848774,6.879739
1587563115119,0.78170687,1.6903064,7.2113357
1587563115130,0.7793127,1.578976,7.463924
1587563115139,0.8319851,1.4939818,7.699753
1587563115152,1.1372458,1.3994108,8.2995
1587563115157,1.1372458,1.3994108,8.2995
1587563115171,1.2557588,1.3634979,8.532935
1587563115183,1.3634979,1.3156139,8.881291
1587563115192,1.4269443,1.3718776,9.08001
1587563115203,1.4460979,1.3838485,9.338584
1587563115214,1.4520833,1.3503298,9.68694
1587563115225,1.4173675,1.316811,10.073604
1587563115236,1.3718776,1.2378023,10.477027
1587563115247,1.2880806,1.1192893,10.794258
1587563115258,1.2210429,0.9876082,11.113884
1587563115268,1.1695676,0.8499416,11.299435
1587563115281,1.1935096,0.62129533,11.633426
1587563115291,1.340753,0.90381116,11.523293
1587563115301,1.3012487,1.4927847,11.638214
1587563115313,1.0857705,1.8231846,11.432313
1587563115324,0.6979098,2.0937295,11.449073
1587563115334,0.2717419,2.0266917,11.489774
1587563115346,-0.2765303,1.769315,11.623849
1587563115356,-0.5638345,1.3215994,11.760319
1587563115368,-0.51475334,0.7086837,12.058397
1587563115376,-0.4237737,0.11133038,12.270284
1587563115390,-0.22026655,-0.35913026,12.393585
1587563115401,0.12090719,-0.91458505,12.764687
1587563115412,0.40342298,-1.7645266,13.092692
1587563115421,0.45250413,-2.0757728,12.971785
1587563115433,0.7182605,-1.9979613,12.818556
1587563115442,0.78170687,-1.8339585,12.458228
1587563115456,0.58298814,-1.6831238,11.902774
1587563115465,0.37948096,-1.6053122,11.506534
1587563115476,0.095768064,-1.4939818,10.979809
1587563115485,-0.24301147,-1.3634979,10.560823
1587563115497,-0.49081135,-1.1252748,10.170568
1587563115508,-0.676362,-0.7469909,9.7240505
1587563115519,-0.80086046,-0.32680854,9.193734
1587563115530,-0.7386112,0.7182605,7.7931266
1587563115541,-0.6548142,0.9947908,7.4711065
1587563115552,-0.58777654,1.2246342,7.2233067
1587563115563,-0.5506664,1.4401124,7.0090256
1587563115574,-0.5398925,1.5358804,6.871359
1587563115585,-0.4141969,1.6843209,6.7564373
1587563115595,-0.2873042,1.8124107,6.6870055
1587563115607,-0.20231004,1.8267759,6.6510925
1587563115617,-0.08259996,1.816002,6.6175733
1587563115631,0.19033903,1.7369933,6.853402
1587563115641,0.19033903,1.7369933,6.853402
1587563115652,0.40462008,1.5346833,7.123947
1587563115662,0.5243302,1.448492,7.3226657
1587563115672,0.6727707,1.3467385,7.4711065
1587563115687,0.81881696,1.2389994,7.6255326
1587563115699,0.92535895,1.1468226,7.750031
1587563115709,1.0103531,1.0642227,7.867347
1587563115719,1.0714053,0.9576807,8.037335
1587563115734,1.1312603,0.79128367,8.483853
1587563115744,1.2114661,0.81163436,8.661025
1587563115753,1.3072342,0.8678981,8.72088
1587563115763,1.661576,1.1540052,8.755595
1587563115774,1.7956513,1.3024458,8.802282
1587563115786,1.839944,1.4101849,8.973468
1587563115795,1.8447324,1.5346833,9.269152
1587563115806,1.8183962,1.5729905,9.657013
1587563115816,1.7645266,1.5490485,10.081984
1587563115829,1.578976,1.3563153,10.590752
1587563115840,1.3718776,1.1408371,10.981006
1587563115851,0.91937345,0.8571242,11.886014
1587563115862,0.6548142,0.7505822,12.173319
1587563115872,0.59855044,1.0749966,12.357672
1587563115882,0.44891283,1.3036429,12.546814
1587563115896,0.38307226,1.4820108,12.524069
1587563115905,0.50996494,1.7812861,12.532449
1587563115916,0.80564886,1.9141643,12.756307
1587563115929,0.9744401,1.7896658,13.017275
1587563115938,0.9804256,1.460463,13.221979
1587563115947,1.0342951,0.9995792,13.557167
1587563115958,0.9528923,0.5231331,13.8720045
1587563115970,0.78410107,0.10414778,14.004883
1587563115981,0.8559271,-0.19512744,13.674483
1587563115992,0.770933,-0.21547815,12.494142
1587563116003,1.1192893,-0.0035913025,11.931504
1587563116014,1.4413095,0.142455,11.318588
1587563116025,1.6256629,0.16160862,10.740389
1587563116034,1.9009962,0.23343466,10.381259
1587563116045,2.2290018,0.32321724,10.04607
1587563116056,2.3702598,0.32441434,9.8437605
1587563116067,2.3666685,0.2765303,9.588778
1587563116078,2.2529438,0.20590134,9.379285
1587563116089,2.0853498,0.17597382,9.150639
1587563116100,1.8674773,0.12689269,8.854955
1587563116113,1.496376,0.08259996,8.311471
1587563116123,1.3431472,0.089782566,8.1343
1587563116135,1.2677298,0.14844051,7.965509
1587563116143,1.2282255,0.22864626,7.7009497
1587563116155,1.1791444,0.31124622,7.410054
1587563116167,1.1360487,0.4177882,7.0952168
1587563116179,1.1599907,0.5793968,6.8198833
1587563116190,1.1851299,0.6955156,6.5936313
1587563116200,1.1599907,0.7781156,6.3985043
1587563116211,1.0450691,0.94331545,6.1902084
1587563116221,1.0151415,1.1719618,6.1566896
1587563116233,0.9504981,1.2916719,6.235698
1587563116245,0.8774749,1.42455,6.3458314
1587563116253,0.79607207,1.4437037,6.411672
1587563116265,0.70509243,1.4891934,6.5481415
1587563116277,0.6667852,1.6124948,6.7253127
1587563116287,0.5758055,1.6112977,6.981492
1587563116300,0.50876784,1.6280571,7.2268977
1587563116311,0.4429273,1.7597382,7.8589673
1587563116321,0.34955344,1.7190368,8.1642275
1587563116331,0.2813187,1.6352397,8.508993
1587563116346,0.2837129,1.5873557,8.907627
1587563116355,0.3196259,1.4760253,9.297882
1587563116369,0.34237084,1.3503298,9.600749
1587563116379,0.35913026,1.2641385,9.838972
1587563116388,0.4177882,1.2318168,10.067618
1587563116400,0.45130703,1.2557588,10.198102
1587563116411,0.5614403,1.3479356,10.283096
1587563116423,0.6452374,1.4879963,10.304645
1587563116432,0.7218518,1.5717934,10.381259
1587563116444,0.81761986,1.6352397,10.492589
1587563116456,1.234211,1.7046716,10.875661
1587563116467,1.472434,1.804031,10.969035
1587563116477,1.9177556,2.3535004,11.071986
1587563116489,2.043451,2.4432828,11.650186
1587563116499,1.7381904,2.2278047,11.798626
1587563116512,1.1707647,2.1871033,12.197261
1587563116521,0.8858546,2.0913353,12.567164
1587563116534,0.35553896,1.6496049,12.98615
1587563116544,-0.08499416,0.80684596,13.432669
1587563116554,-0.17118542,0.039504327,13.949816
1587563116566,-0.20231004,-0.6715736,14.293385
1587563116576,0.02873042,-1.2617443,14.464569
1587563116588,0.30885202,-1.7046716,14.510059
1587563116599,0.50038815,-1.9381063,14.233529
1587563116613,0.81163436,-1.79206,13.13459
1587563116624,0.6548142,-1.4676456,12.533646
1587563116634,0.2741361,-1.283292,11.935096
1587563116644,-0.21906945,-1.0977415,11.408371
1587563116654,-0.7146692,-0.8810662,10.964247
1587563116664,-1.0019734,-0.7182605,10.667366
1587563116675,-1.1875241,-0.5722142,10.348937
1587563116686,-1.3503298,-0.25737667,9.512163
1587563116695,-1.292869,-0.02873042,9.040505
1587563116706,-1.1575965,0.23582886,8.558074
1587563116717,-1.0821792,0.48841715,7.943961
1587563116728,-0.94690675,0.6991069,7.430405
1587563116739,-0.7433996,0.8810662,6.951565
1587563116750,-0.5518635,1.033098,6.615179
1587563116760,-0.051475335,1.3120226,6.179435
1587563116771,0.20111294,1.3227965,6.0489507
1587563116782,0.37588966,1.340753,6.019023
1587563116793,0.59017074,1.353921,6.0884547
1587563116802,0.7469909,1.271321,6.171055
1587563116812,0.82240826,1.1887212,6.2704144
1587563116823,0.8391677,1.2078748,6.3350577
1587563116834,0.8726865,1.210269,6.3889275
1587563116846,0.8583213,1.2425907,6.4870896
1587563116859,0.82599956,1.3204023,6.5565214
1587563116869,0.80086046,1.377863,6.655881
1587563116882,0.7757214,1.4305356,7.0688806
1587563116892,0.7517793,1.4161704,7.345411
1587563116902,0.7517793,1.4161704,7.345411
1587563116914,0.5662287,1.4616601,8.24204
1587563116924,0.56982,1.4879963,8.435969
1587563116936,0.6344634,1.5933412,8.699332
1587563116945,0.79487497,1.6879122,8.90643
1587563116956,0.9576807,1.7465701,9.052477
1587563116967,1.0833763,1.8076223,9.184157
1587563116978,1.2844892,1.8351556,9.421184
1587563116991,1.6795325,1.9728222,10.0664215
1587563117000,1.6795325,1.9728222,10.0664215
1587563117012,1.5610195,1.8363527,10.997766
1587563117020,1.5610195,1.8363527,10.997766
1587563117033,0.90859956,1.22224,12.260707
1587563117043,0.533907,0.89423436,12.87482
1587563117055,0.19632454,0.7350199,13.15973
1587563117065,-0.11372458,0.8834604,13.387178
1587563117077,-0.47285482,0.91099375,13.31655
1587563117087,-0.557849,1.043872,12.841301
1587563117099,-0.21906945,1.3455414,12.563574
1587563117110,0.4141969,1.5825673,12.491747
1587563117120,0.7457938,1.5011644,12.33373
1587563117132,1.471237,0.78170687,12.600683
1587563117142,1.6843209,0.20949265,12.855666
1587563117154,1.7477672,0.020350715,12.743138
1587563117164,1.7717092,-0.038307227,12.619837
1587563117177,1.7585411,-0.035913024,12.21402
1587563117187,1.7190368,0.016759412,11.628637
1587563117197,1.816002,0.12928689,11.164163
1587563117209,1.8926164,0.24061728,10.702082
1587563117221,1.9440918,0.31364042,10.238804
1587563117232,2.0039468,0.33877954,9.896433
1587563117242,2.099715,0.31603462,9.578004
1587563117253,2.005144,0.24061728,9.446322
1587563117264,1.8303672,0.22864626,9.358934
1587563117275,1.6244658,0.19752164,9.32781
1587563117287,1.4137762,0.17118542,9.137471
1587563117296,1.2198458,0.16519992,8.88608
1587563117307,1.067814,0.18076223,8.717288
1587563117319,0.9911995,0.2741361,8.492233
1587563117332,0.9864111,0.415394,8.293514
1587563117342,1.1025299,0.59256494,7.9726915
1587563117354,1.1647792,0.6895301,7.8625584
1587563117364,1.2509704,0.712275,7.678205
1587563117376,1.2868834,0.80924016,7.289147
1587563117386,1.3180081,0.8367735,7.217321
1587563117398,1.2282255,0.8607155,7.1167645
1587563117411,1.0702082,0.9947908,6.8869214
1587563117421,0.985214,1.1420342,6.805518
1587563117431,0.985214,1.1420342,6.805518
1587563117442,0.8678981,1.3970166,6.8306575
1587563117452,0.81642276,1.435324,6.906075
1587563117464,0.7182605,1.4580688,7.1275387
1587563117473,0.6344634,1.4867992,7.3609734
1587563117485,0.6476316,1.4341269,7.6853876
1587563117497,0.6404489,1.3299791,8.037335
1587563117506,0.62608373,1.2174516,8.394072
1587563117517,0.63206923,1.0893618,8.744822
1587563117528,0.6631939,0.9828198,9.214086
1587563117539,0.6476316,0.93373865,9.673772
1587563117551,0.51595044,0.80325466,10.55005
1587563117561,0.50397944,0.7769185,10.887632
1587563117572,0.35075054,0.7182605,11.227609
1587563117583,0.24779987,0.6811504,11.502942
1587563117594,0.12569559,0.61411273,11.68131
1587563117606,-0.046686932,0.3842694,11.797429
1587563117616,0.20590134,0.557849,11.7387705
1587563117630,0.4369418,0.62129533,11.881226
1587563117641,0.7254431,0.7410054,11.895591
1587563117651,0.7254431,0.7410054,11.895591
1587563117661,0.5710171,0.48602295,12.067974
1587563117672,0.4309563,0.20590134,12.065579
1587563117682,0.320823,-0.2645593,12.199655
1587563117694,0.33997664,-0.78649527,12.434286
1587563117704,0.4225766,-1.198298,12.5982895
1587563117716,0.59855044,-1.5227122,12.656947
1587563117726,0.91937345,-1.6998832,12.850878
1587563117738,1.0259154,-1.7824832,12.861651
1587563117749,1.0271125,-1.7633295,12.597093
1587563117760,0.8678981,-1.6005238,12.113463
1587563117771,0.110133275,-1.0749966,10.876859
1587563117781,-0.4345476,-0.82240826,10.295067
1587563117793,-0.92296475,-0.63087213,9.80665
1587563117803,-1.2797008,-0.47285482,9.431957
1587563117815,-1.42455,-0.39504328,9.16261
1587563117825,-1.2497733,-0.32800564,8.852561
1587563117838,-0.9995792,-0.2861071,8.787917
1587563117849,-0.7649474,-0.18315643,8.686164
1587563117865,-0.41180268,0.077811554,8.26239
1587563117875,-0.20231004,0.23942018,7.9786773
1587563117884,-0.06823475,0.37708676,7.6255326
1587563117894,0.008379706,0.45010993,7.3310456
1587563117906,0.1592144,0.50637364,7.2364745
1587563117915,0.25378537,0.533907,7.181408
1587563117926,0.2837129,0.557849,7.240066
1587563117938,0.30166942,0.62009823,7.183802
1587563117949,0.34117374,0.6943185,7.297527
1587563117960,0.37948096,0.7266402,7.358579
1587563117971,0.37948096,0.81043726,7.3310456
1587563117982,0.46447513,0.8762778,7.3909006
1587563117993,0.5734113,0.973243,7.4926543
1587563118004,0.6464345,1.021127,7.619547
1587563118012,0.6859388,1.0726024,7.7667904
1587563118023,0.7457938,1.1001357,7.86615
1587563118034,0.80684596,1.1623849,8.040926
1587563118045,0.8631097,1.1575965,8.243237
1587563118058,0.93134445,0.93134445,8.831013
1587563118070,0.9672575,0.8499416,9.222465
1587563118079,0.9876082,0.8643068,9.488221
1587563118092,1.0989386,0.92416185,9.785102
1587563118102,1.1504139,0.9840169,9.880871
1587563118114,1.2856863,0.9888053,10.041282
1587563118122,1.412579,1.0690111,10.229227
1587563118134,1.4568717,1.0953473,10.532093
1587563118146,1.3611037,1.1204864,10.805033
1587563118156,1.2533646,1.1240777,11.15698
1587563118167,0.9900024,0.9947908,11.601105
1587563118179,0.60453594,0.82121116,12.016499
1587563118189,0.29927522,0.8702923,12.284649
1587563118200,-0.051475335,0.8690952,12.565968
1587563118211,-0.107739076,0.9923966,12.349293
1587563118233,0.94092125,1.2162545,12.127829
1587563118245,1.4149733,1.1384429,11.954249
1587563118256,1.6747441,0.80804306,11.984177
1587563118269,1.8495208,0.40701428,12.13142
1587563118272,1.8076223,-0.20949265,12.467805
1587563118281,1.8076223,-0.20949265,12.393585
1587563118290,1.8076223,-0.20949265,12.393585
1587563118298,1.6400281,-0.415394,12.273875
1587563118310,1.5454572,-0.47046062,12.081141
1587563118319,1.447295,-0.5662287,11.692084
1587563118330,1.6998832,-0.39624038,11.115082
1587563118339,1.6998832,-0.39624038,11.115082
1587563118351,1.922544,-0.2861071,10.31063
1587563118363,2.0338743,-0.18555063,9.91798
1587563118373,2.1068976,-0.108936176,9.546879
1587563118386,2.098518,-0.073023155,9.229648
1587563118397,2.0231004,-0.02873042,8.947132
1587563118407,1.8291701,-0.07182605,8.724471
1587563118417,1.6376339,-0.05746084,8.543709
1587563118429,1.4676456,-0.029927522,8.364143
1587563118440,1.3000516,-0.021547815,8.189367
1587563118452,1.1145009,0.11133038,7.7452426
1587563118461,1.0989386,0.18555063,7.4746976
1587563118473,1.0845734,0.3172317,7.2664022
1587563118482,0.9959879,0.38307226,7.074866
1587563118494,0.9840169,0.48602295,6.896498
1587563118505,0.973243,0.62488663,6.767211
1587563118516,0.90740246,0.7625532,6.645107
1587563118527,0.8499416,0.9672575,6.673837
1587563118538,0.7386112,1.0809821,6.5684924
1587563118550,0.7278373,1.2018893,6.5457473
1587563118558,0.6919243,1.3359646,6.5481415
1587563118571,0.6691794,1.5658079,6.6606693
1587563118581,0.6751649,1.6555905,6.867768
1587563118593,0.7026982,1.673547,7.1466923
1587563118605,0.7314286,1.6328455,7.639898
1587563118615,0.78769237,1.5119383,8.1402855
1587563118625,0.8762778,1.3180081,8.62152
1587563118638,0.9900024,1.0977415,9.160215
1587563118648,1.0965444,0.9720459,9.691729
1587563118658,1.2126632,0.82480246,10.216059
1587563118671,1.3455414,0.5398925,11.204864
1587563118681,1.3359646,0.36032736,11.620258
1587563118691,1.3204023,0.2645593,11.9853735
1587563118705,1.2856863,0.24181437,12.199655
1587563118715,1.3263878,0.260968,12.338518
1587563118725,1.3072342,0.19153613,12.261904
1587563118735,1.3323733,0.1448492,12.005724
1587563118747,1.8854338,0.5410896,11.727997
1587563118760,1.9967642,0.61530983,11.651382
1587563118770,1.9285295,0.6823475,11.572374
1587563118782,1.5981296,0.62728083,11.884817
1587563118791,0.9995792,0.23702596,12.021287
1587563118802,0.4321534,-0.50996494,12.312182
1587563118814,0.33039984,-1.1875241,12.756307
1587563118825,0.29448682,-1.7513585,12.880805
1587563118836,0.60214174,-2.0326772,12.828133
1587563118848,1.0702082,-2.2062569,12.823344
1587563118857,1.4041992,-2.2541409,12.676101
1587563118868,1.4784195,-2.2158337,12.425907
1587563118880,1.4281414,-2.0219033,12.099098
1587563118887,1.1947067,-1.6903064,11.648989
1587563118899,0.7469909,-1.3084313,11.075577
1587563118910,0.18555063,-1.0510546,10.465055
1587563118922,-0.79367787,-0.62368953,9.446322
1587563118933,-1.0199299,-0.50158525,9.157822
1587563118944,-1.0845734,-0.46447513,8.967483
1587563118956,-0.9672575,-0.4333505,8.900445
1587563118966,-0.7422025,-0.45370123,8.852561
1587563118978,-0.19033903,-0.427365,8.574833
1587563118988,0.01436521,-0.1400608,8.255207
1587563119001,0.31124622,0.18195933,7.563283
1587563119011,0.44771573,0.37948096,7.277176
1587563119025,0.5494693,0.48123455,6.9982514
1587563119035,0.61890113,0.51595044,6.8007298
1587563119045,0.6847417,0.62368953,6.6522894
1587563119054,0.80564886,0.7649474,6.564901
1587563119066,0.8463503,0.8714894,6.5601125
1587563119075,0.8571242,0.9540894,6.6056023
1587563119088,0.81402856,1.0402806,6.637924
1587563119099,0.78769237,1.1839328,6.6870055
1587563119109,0.7673417,1.2761095,6.7348895
1587563119120,0.7493851,1.2665327,6.867768
1587563119131,0.7422025,1.3204023,7.2268977
1587563119143,0.7206547,1.2258313,7.515399
1587563119152,0.6380547,1.1408371,7.789535
1587563119163,0.61171854,1.0570401,8.090008
1587563119174,0.5746084,0.94810385,8.3821
1587563119185,0.5374983,0.8283938,8.603564
1587563119195,0.6392518,0.82360536,8.890868
1587563119206,0.82001406,0.8655039,9.13388
1587563119215,1.0151415,0.94930094,9.202114
1587563119226,1.1899183,1.0761937,9.266758
1587563119237,1.4053963,1.1444284,9.399636
1587563119248,1.6436194,1.1839328,9.707291
1587563119258,1.7729063,1.2210429,10.089166
1587563119269,1.7992426,1.1085154,10.538078
1587563119282,1.412579,0.6787562,11.498154
1587563119294,1.1324574,0.4285621,11.971008
1587563119304,0.9708488,0.34117374,12.321759
1587563119316,0.78170687,0.48123455,12.469003
1587563119324,0.6548142,0.50278234,12.514492
1587563119336,0.80804306,0.7194576,12.302606
1587563119348,1.1959038,1.1013328,12.20564
1587563119358,1.7729063,1.2282255,12.239159
1587563119372,2.1990743,0.56982,12.555194
1587563119382,2.3056161,0.035913024,13.036428
1587563119392,2.3056161,0.035913024,13.036428
1587563119401,1.958457,-0.7745243,13.740324
1587563119412,1.9428947,-0.92895025,13.88637
1587563119424,1.9871874,-1.0007763,13.8241205
1587563119431,1.851915,-0.9995792,12.959814
1587563119442,1.8327614,-0.82001406,12.400767
1587563119453,1.8303672,-0.61052144,11.786655
1587563119465,1.7848774,-0.5422867,11.122264
1587563119476,1.7633295,-0.415394,10.606314
1587563119488,1.7369933,-0.29448682,10.176555
1587563119501,1.5286977,-0.2908955,9.522937
1587563119511,1.3227965,-0.29209262,9.269152
1587563119521,1.1204864,-0.2705448,8.961497
1587563119534,0.997185,-0.24301147,8.734048
1587563119540,0.997185,-0.24301147,8.734048
1587563119552,0.82480246,-0.090979666,8.166622
1587563119564,0.7745243,0.009576807,7.821857
1587563119576,0.7386112,0.1316811,7.4088573
1587563119586,0.8415619,0.2645593,7.1263413
1587563119599,0.8319851,0.34596214,6.801927
1587563119608,0.8583213,0.44651863,6.566098
1587563119621,1.009156,0.7134721,6.381745
1587563119632,1.0031705,0.7493851,6.3362546
1587563119642,0.9923966,0.80804306,6.3829417
1587563119654,0.973243,0.78888947,6.385336
1587563119664,0.80924016,1.0103531,6.4487824
1587563119676,0.6619968,1.091756,6.4846954
1587563119686,0.5566519,1.2425907,6.483498
1587563119697,0.51116204,1.4101849,6.5625067
1587563119709,0.5267244,1.5598224,6.742072
1587563119718,0.51355624,1.4915876,6.9599442
1587563119729,0.5398925,1.5837644,7.301118
1587563119740,0.6428431,1.5622166,8.090008
1587563119752,0.5770026,1.447295,8.465898
1587563119759,0.5770026,1.447295,8.465898
1587563119770,0.59615624,1.2880806,8.968679
1587563119784,0.6907272,0.93373865,10.081984
1587563119793,0.7445967,0.80205756,10.643424
1587563119804,0.7338228,0.6584055,11.1893015
1587563119815,0.6955156,0.5422867,11.637017
1587563119826,0.5614403,0.4213795,11.911154
1587563119837,0.44651863,0.41299978,12.064383
1587563119848,0.39145198,0.45848963,12.209231
1587563119858,0.32800564,0.46686932,12.193669
1587563119871,0.30885202,0.24061728,12.175713
1587563119882,0.40940848,0.09696517,12.25113
1587563119892,0.7445967,0.18914193,12.041637
1587563119902,0.91458505,0.59376204,11.975797
1587563119914,0.81402856,0.6476316,11.980585
1587563119924,0.4297592,0.5758055,11.6430025
1587563119936,0.21068975,0.79487497,11.445481
1587563119947,0.08619126,0.94930094,11.422736
1587563119956,-0.073023155,0.8643068,11.334151
1587563119968,-0.35314476,0.5602432,11.247959
1587563119978,-0.47644615,0.095768064,11.317391
1587563119992,0.027533319,-0.7398083,11.647791
1587563120000,0.027533319,-0.7398083,11.647791
1587563120009,0.21428105,-0.9876082,11.688493
1587563120020,0.47524905,-1.0295067,11.504139
1587563120033,0.20470424,-1.0785879,11.11987
1587563120042,-0.11252748,-1.2006922,10.815806
1587563120053,-0.3890578,-1.1659763,10.83496
1587563120066,-0.78888947,-1.1552023,10.837354
1587563120076,-1.0247183,-1.2749124,10.74398
1587563120088,-1.1504139,-1.3730747,10.752359
1587563120099,-1.2090719,-1.4257472,10.785878
1587563120109,-1.0283096,-1.3826514,10.682928
1587563120123,-0.37828386,-0.79487497,9.714474
1587563120133,-0.24181437,-0.44891283,9.3026705
1587563120143,-0.2813187,-0.21906945,8.566454
1587563120154,-0.2633622,0.08379706,8.087613
1587563120165,-0.24181437,0.4225766,7.668628
1587563120175,-0.30645782,0.6512229,7.2867527
1587563120187,-0.31244332,0.8475474,6.951565
1587563120195,-0.2908955,1.0366893,6.733692
1587563120207,-0.260968,1.1827357,6.6391215
1587563120219,-0.20111294,1.2808979,6.543353
1587563120231,-0.23223756,1.3718776,6.4858923
1587563120241,-0.17118542,1.3670892,6.5696893
1587563120251,-0.17956513,1.3706805,6.71813
1587563120264,-0.14963761,1.364695,6.9108634
1587563120274,-0.1448492,1.2952632,7.169437
1587563120284,-0.079008654,1.1935096,7.3729444
1587563120296,-0.077811554,1.0941502,7.587225
1587563120304,-0.10414778,1.0199299,7.72968
1587563120316,-0.16280572,0.94092125,7.8027034
1587563120328,-0.16280572,0.8559271,7.964312
1587563120338,-0.24061728,0.82480246,8.177396
1587563120349,-0.30526072,0.7338228,8.413225
1587563120360,-0.18315643,0.7218518,8.971074
1587563120371,-0.09935937,0.7589619,8.961497
1587563120382,0.01436521,0.8403648,8.947132
1587563120393,0.14724341,0.9564836,9.010578
1587563120404,0.30526072,1.1001357,9.141062
1587563120413,0.46327803,1.2976574,9.38168
1587563120424,0.4441244,1.3467385,9.653421
1587563120434,0.40581718,1.3108255,10.011354
1587563120446,0.24899697,1.115698,10.56681
1587563120456,-0.021547815,0.8379706,11.140221
1587563120467,-0.34596214,0.60693014,11.6442
1587563120478,-0.60214174,0.4357447,12.200851
1587563120489,-0.78050977,0.37708676,12.617443
1587563120499,-0.90740246,0.48602295,12.41633
1587563120510,-0.47644615,1.2808979,11.7064495
1587563120519,-0.47644615,1.2808979,11.7064495
1587563120530,0.22505496,1.5897499,11.35091
1587563120542,1.0809821,2.0123265,11.225215
1587563120553,1.4652514,2.0530279,11.518504
1587563120565,1.7465701,1.9692309,11.86327
1587563120574,1.7262194,1.7070658,12.197261
1587563120587,1.4999673,1.2078748,12.837709
1587563120596,1.3994108,0.33159694,13.342886
1587563120607,1.3012487,-0.033518825,13.624205
1587563120618,1.0929531,-0.30885202,13.699622
1587563120628,0.92895025,-0.3866636,13.566744
1587563120639,0.7721301,-0.36511576,13.18008
1587563120651,0.45729253,-0.30765492,11.921927
1587563120660,0.3842694,-0.25498247,11.403583
1587563120671,0.19033903,-0.36990416,11.027693
1587563120682,0.059855044,-0.4213795,10.761936
1587563120693,-0.049081136,-0.41060558,10.597934
1587563120705,-0.1400608,-0.36272156,10.389638
1587563120716,-0.2873042,-0.32202014,10.005369
1587563120727,-0.37948096,-0.22146365,9.506178
1587563120737,-0.36152446,-0.05746084,8.907627
1587563120749,-0.2885013,0.11971009,8.273164
1587563120760,-0.25019407,0.2705448,7.6482773
1587563120770,-0.18794483,0.4405331,7.0688806
1587563120782,-0.09816227,0.7350199,6.4248405
1587563120793,-0.1352724,0.82240826,6.3218894
1587563120803,-0.05746084,0.961272,6.2225304
1587563120815,-0.045489833,1.0881647,6.0022635
1587563120825,0.019153614,1.1611878,5.7808
1587563120837,0.10175357,1.2485762,5.707777
1587563120845,0.21906945,1.30484,5.734113
1587563120858,0.30526072,1.3587095,5.9292407
1587563120868,0.30526072,1.3587095,5.9292407
1587563120887,0.30526072,1.3587095,5.9292407
1587563120895,0.46208093,1.5717934,7.2029557
1587563120905,0.5255273,1.5957354,7.5968018
1587563120915,0.5686229,1.5586253,8.052897
1587563120925,0.58897364,1.5945383,8.51857
1587563120934,0.6392518,1.5526398,8.935161
1587563120946,0.7278373,1.4975731,9.331401
1587563120957,0.7386112,1.5071499,9.740809
1587563120966,0.6452374,1.483208,10.031705
1587563120981,0.415394,1.4748282,10.805033
1587563120990,0.415394,1.4748282,10.805033
1587563120999,0.20949265,1.5227122,11.080365
1587563121011,-0.22744916,1.423353,11.6585655
1587563121020,-0.36990416,1.3156139,11.824963
1587563121031,-0.37828386,1.0941502,11.862072
1587563121042,0.28491,1.0941502,11.696873
1587563121053,0.41299978,1.4341269,11.981782
1587563121061,0.18076223,1.3694834,11.7782755
1587563121072,0.05746084,1.6484078,11.683704
1587563121083,-0.06823475,1.7381904,11.804611
1587563121094,-0.37229836,1.6711528,11.860875
1587563121105,-0.878672,1.3682863,11.963826
1587563121116,-1.0510546,0.8295909,12.170924
1587563121128,-1.0582372,0.49679685,12.531252
1587563121138,-1.115698,-0.053869538,12.546814
1587563121149,-1.1216835,-0.58538234,12.455834
1587563121161,-0.8283938,-0.78888947,12.282255
1587563121169,-0.5554548,-0.92775315,11.979388
1587563121181,-0.4357447,-0.9660604,11.352107
1587563121194,-0.51595044,-0.9648633,11.196485
1587563121204,-0.78888947,-0.9504981,10.998962
1587563121215,-1.0881647,-0.93972415,10.7990465
1587563121226,-1.4269443,-0.8319851,10.5440645
1587563121235,-1.6184803,-0.7254431,10.363302
1587563121247,-1.6950948,-0.58298814,10.151415
1587563121258,-1.6950948,-0.50397944,9.974244
1587563121269,-1.6017209,-0.40102878,9.618706
1587563121280,-1.3299791,-0.17717093,8.771158
1587563121290,-1.1647792,-0.06584055,8.41921
1587563121303,-0.7386112,0.16400282,7.77517
1587563121313,-0.50278234,0.2693477,7.5201874
1587563121323,-0.2669535,0.36391866,7.2843585
1587563121334,-0.089782566,0.3890578,7.1526775
1587563121346,0.093373865,0.40581718,7.147889
1587563121356,0.25378537,0.47405192,7.180211
1587563121367,0.35553896,0.5374983,7.277176
1587563121379,0.4225766,0.5506664,7.323863
1587563121386,0.48482585,0.58538234,7.3897038
1587563121397,0.5410896,0.6775591,7.4232225
1587563121408,0.5781997,0.7457938,7.374141
1587563121419,0.58298814,0.7685388,7.350199
1587563121432,0.58298814,0.90620536,7.6482773
1587563121444,0.5542577,0.8762778,7.839813
1587563121454,0.545878,0.79008657,8.137892
1587563121466,0.5363012,0.7529764,8.4647
1587563121476,0.5494693,0.70509243,8.747216
1587563121488,0.5530606,0.6536171,8.9363575
1587563121496,0.521936,0.6344634,9.094376
1587563121508,0.40222588,0.6871359,9.275137
1587563121520,0.48961425,0.8738836,9.391256
1587563121530,0.48961425,0.8738836,9.391256
1587563121544,0.6847417,1.1049241,9.551667
1587563121554,0.8403648,1.2030864,9.805453
1587563121564,0.92057055,1.2880806,10.109517
1587563121573,0.9636662,1.3359646,10.465055
1587563121584,0.8810662,1.34195,10.860099
1587563121595,0.6859388,1.3000516,11.244369
1587563121604,0.5291186,1.3156139,11.541249
1587563121615,0.29807812,1.4305356,11.856087
1587563121625,0.1316811,1.3096284,11.96622
1587563121636,0.17477672,1.4580688,11.808203
1587563121647,0.32920274,1.5777789,11.604695
1587563121658,0.6955156,1.5071499,11.59033
1587563121669,1.0546459,1.4065934,11.645397
1587563121680,1.3012487,1.0235212,12.039244
1587563121693,1.210269,0.076614454,13.072341
1587563121705,1.1767502,-0.21188685,13.290214
1587563121713,1.2078748,-0.39025488,13.413515
1587563121724,1.2306197,-0.45489833,13.326127
1587563121736,1.246182,-0.44651863,12.569559
1587563121749,1.2318168,-0.30765492,12.125435
1587563121761,1.1372458,-0.20231004,11.60709
1587563121771,1.0821792,-0.11611878,11.21444
1587563121781,1.0319009,-0.027533319,10.696096
1587563121792,0.94690675,-0.021547815,10.360908
1587563121802,0.94930094,0.008379706,10.0987425
1587563121814,0.8726865,0.07062895,9.715671
1587563121824,0.7613561,0.12449849,9.301474
1587563121834,0.6464345,0.24061728,8.801085
1587563121845,0.50637364,0.35673606,8.282741
1587563121857,0.4405331,0.48362875,7.8062944
1587563121866,0.36032736,0.60453594,7.404069
1587563121877,0.415394,0.7469909,7.062895
1587563121889,0.50038815,0.81642276,6.7887588
1587563121900,0.5805939,0.8511387,6.5457473
1587563121911,0.8487445,0.92895025,6.3362546
1587563121922,0.8822633,0.9588778,6.215348
1587563121932,0.94211835,0.9648633,6.143522
1587563121945,0.9756372,1.0163386,6.1638722
1587563121955,1.0007763,1.0905589,6.1243677
1587563121965,0.8702923,1.1264719,6.1279593
1587563121978,0.79846627,1.1659763,6.281188
1587563121988,0.7433996,1.2042835,6.503849
1587563121998,0.6655881,1.174356,6.823475
1587563122010,0.59974754,1.055843,7.2508397
1587563122020,0.61530983,0.94451255,7.7464395
1587563122033,0.6811504,0.59974754,8.827422
1587563122039,0.6811504,0.59974754,8.827422
1587563122052,0.79607207,0.32680854,9.904813
1587563122064,0.8714894,0.23463176,10.395624
1587563122075,0.8726865,0.2681506,10.778696
1587563122085,0.830788,0.2705448,10.96305
1587563122096,0.7338228,0.36511576,11.09114
1587563122108,0.6751649,0.51595044,11.177331
1587563122118,0.61890113,0.6655881,11.305421
1587563122129,0.47884035,0.7553706,11.479
1587563122141,-0.0011971008,0.7326257,11.945869
1587563122148,-0.0011971008,0.7326257,11.945869
1587563122159,-0.24301147,0.7026982,12.097901
1587563122170,-0.6380547,0.5446809,12.066776
1587563122181,-0.664391,0.46926352,11.870452
1587563122194,-0.16759412,0.50397944,11.235989
1587563122206,0.19273324,0.79487497,10.9426985
1587563122216,0.2873042,0.7422025,10.830172
1587563122229,0.25617957,0.961272,10.447099
1587563122240,0.30286652,1.400608,10.257957
1587563122250,0.20590134,1.4652514,10.095152
1587563122264,-0.39025488,1.1767502,9.880871
1587563122273,-0.5638345,0.7015011,9.907207
1587563122282,-0.5638345,0.7015011,9.907207
1587563122294,-0.8475474,-0.15562311,10.299856
1587563122307,-0.9983821,-0.61770403,10.363302
1587563122317,-1.1312603,-0.9660604,10.412383
1587563122327,-1.1013328,-1.0977415,10.42196
1587563122339,-1.0630256,-1.2892777,10.44231
1587563122350,-1.021127,-1.4820108,10.488997
1587563122360,-0.93972415,-1.6472107,10.660183
1587563122373,-0.6943185,-1.8016368,11.034876
1587563122383,-0.61052144,-1.8531121,11.306618
1587563122393,-0.59855044,-1.7741034,11.4598465
1587563122405,-0.60693014,-1.6484078,11.413159
1587563122415,-0.641646,-1.3599066,11.238382
1587563122428,-0.89543146,-0.557849,10.244789
1587563122442,-1.0761937,0.36272156,9.027337
1587563122452,-1.0737995,0.7326257,8.476671
1587563122462,-1.0881647,1.0307038,8.124723
1587563122471,-1.1025299,1.2952632,7.860164
1587563122485,-1.0510546,1.5885528,7.6961613
1587563122494,-0.93134445,1.7956513,7.615956
1587563122505,-0.8690952,1.9009962,7.571663
1587563122516,-0.7230489,1.9847932,7.6123643
1587563122527,-0.6356605,2.0087352,7.723695
1587563122541,-0.47764325,2.0027497,7.741651
1587563122551,-0.37948096,2.0207062,7.703344
1587563122561,-0.35793316,2.007538,7.703344
1587563122573,-0.35673606,1.9428947,7.750031
1587563122583,-0.29328972,1.8842367,7.869741
1587563122595,-0.21906945,1.8052281,8.02297
1587563122607,-0.1328782,1.7106571,8.152257
1587563122617,-0.03232172,1.6196774,8.2995
1587563122627,0.10295067,1.5251064,8.462306
1587563122639,0.23822308,1.4329298,8.627506
1587563122650,0.36631286,1.1899183,8.832211
1587563122660,0.7386112,1.127669,9.313444
1587563122672,1.0749966,0.90620536,9.793482
1587563122682,1.2258313,0.8391677,10.049662
1587563122695,1.2964603,0.7745243,10.348937
1587563122702,1.2533646,0.6727707,10.593145
1587563122714,1.1468226,0.5386954,10.867282
1587563122726,0.9864111,0.40821138,11.221623
1587563122736,0.81522566,0.23822308,11.611878
1587563122748,0.7422025,0.29328972,11.792641
1587563122759,0.6404489,0.4369418,12.014104
1587563122768,0.5386954,0.5590461,11.935096
1587563122780,0.59735334,0.94092125,11.732785
1587563122792,1.1587936,1.0594343,11.46224
1587563122801,1.2126632,0.81402856,11.484985
1587563122814,1.3491327,0.35913026,11.792641
1587563122823,1.496376,-0.090979666,12.197261
1587563122834,1.553837,-0.56982,12.540829
1587563122851,1.6340426,-1.2006922,12.972981
1587563122860,1.5981296,-1.3275849,12.850878
1587563122870,1.5490485,-1.353921,12.621035
1587563122879,1.5490485,-1.353921,12.621035
1587563122890,1.3874398,-0.93852705,11.2371855
1587563122901,1.3970166,-0.7697359,10.748769
1587563122912,1.4329298,-0.6368576,10.326192
1587563122921,1.5466543,-0.50876784,10.061633
1587563122931,1.6292542,-0.44891283,9.873688
1587563122942,1.6136919,-0.4333505,9.77792
1587563122953,1.5251064,-0.46567222,9.630676
1587563122965,1.365892,-0.47764325,9.473856
1587563122977,1.1563994,-0.51116204,9.252393
1587563122991,0.9576807,-0.51595044,8.925584
1587563123000,0.79367787,-0.4381389,8.574833
1587563123011,0.6847417,-0.38187516,8.2037325
1587563123022,0.61770403,-0.14604631,7.526173
1587563123031,0.61770403,-0.14604631,7.526173
1587563123044,0.641646,0.14963761,6.8749504
1587563123056,0.7015011,0.33877954,6.6079965
1587563123066,0.6775591,0.49919105,6.4008985
1587563123076,0.62488663,0.6536171,6.2584434
1587563123087,0.6392518,0.82121116,6.1542954
1587563123098,0.6607997,0.9840169,6.129156
1587563123109,0.62249243,1.1252748,6.1758432
1587563123120,0.6787562,1.6041151,6.3805475
1587563123132,0.65242,1.6843209,6.573281
1587563123141,0.65242,1.6843209,6.573281
1587563123153,0.78888947,1.8423382,7.207744
1587563123163,0.8571242,1.7896658,7.599196
1587563123175,0.90859956,1.6543933,8.030152
1587563123185,0.93852705,1.4999673,8.455123
1587563123197,0.9780314,1.3072342,8.899248
1587563123207,0.9648633,1.13964,9.434352
1587563123220,0.9792285,0.9672575,9.91439
1587563123231,0.9708488,0.7745243,10.383653
1587563123241,1.3108255,0.5781997,11.212047
1587563123252,1.3263878,0.48123455,11.46224
1587563123264,1.3682863,0.3854665,11.633426
1587563123273,1.3850456,0.45370123,11.749545
1587563123284,1.3994108,0.45609543,11.702858
1587563123295,1.4401124,0.40342298,11.631032
1587563123306,1.6065093,0.5267244,11.529279
1587563123317,1.8806454,0.7374141,11.547235
1587563123328,2.0410569,0.65242,11.745954
1587563123338,2.0290859,0.6488287,11.773487
1587563123349,1.6675615,0.78769237,11.892
1587563123358,1.2761095,0.8487445,11.793838
1587563123370,0.8714894,0.6979098,11.839328
1587563123381,-0.14844051,-0.4261679,12.107478
1587563123392,-0.1448492,-1.0103531,12.40795
1587563123403,0.1328782,-1.436521,12.633005
1587563123414,0.33039984,-1.7956513,12.848483
1587563123425,0.62009823,-1.9967642,12.788629
1587563123437,0.8798691,-2.042254,12.587516
1587563123446,1.0989386,-1.8962077,12.382812
1587563123457,1.151611,-1.638831,11.996147
1587563123466,1.0307038,-1.4544775,11.482592
1587563123477,0.6392518,-1.2186487,10.850522
1587563123488,0.33638534,-1.0007763,10.278308
1587563123499,-0.022744916,-0.81522566,9.749189
1587563123511,-0.5734113,-0.6464345,8.896853
1587563123522,-0.6548142,-0.59974754,8.644265
1587563123534,-0.6488287,-0.5758055,8.49343
1587563123545,-0.62009823,-0.60693014,8.451532
1587563123556,-0.59735334,-0.61411273,8.558074
1587563123566,-0.5422867,-0.533907,8.647857
1587563123578,-0.39504328,-0.39863458,8.546103
1587563123590,-0.2861071,-0.30645782,8.388085
1587563123601,0.02633622,-0.142455,7.878121
1587563123611,0.17118542,-0.06464344,7.693767
1587563123620,0.17118542,-0.06464344,7.693767
1587563123631,0.4405331,0.025139118,7.4735007
1587563123643,0.50876784,0.021547815,7.4806833
1587563123654,0.59256494,0.020350715,7.5345526
1587563123665,0.6476316,0.074220255,7.6147585
1587563123676,0.7290344,0.1388637,7.711724
1587563123685,0.7589619,0.16639702,7.7787614
1587563123696,0.7793127,0.24779987,7.8733325
1587563123707,0.7026982,0.33758244,7.953538
1587563123718,0.59855044,0.40462008,8.000225
1587563123730,0.50278234,0.4429273,8.194156
1587563123742,0.19871874,0.61052144,8.619126
1587563123752,0.059855044,0.6871359,8.762778
1587563123764,0.023942016,0.878672,8.819042
1587563123775,0.04189853,1.0785879,8.862138
1587563123785,0.046686932,1.2605472,8.858546
1587563123797,0.10654198,1.3682863,8.829816
1587563123808,0.45729253,1.5682021,9.046491
1587563123818,0.59017074,1.5586253,9.228451
1587563123830,0.6536171,1.5921441,9.471462
1587563123841,0.7194576,1.6675615,9.739613
1587563123851,0.7793127,1.5885528,10.462662
1587563123863,0.6703765,1.4065934,10.868479
1587563123874,0.78170687,1.3443443,11.182119
1587563123886,0.89782566,1.5251064,11.473015
1587563123896,0.8882488,1.4568717,11.505336
1587563123908,0.8774749,1.5562311,11.271901
1587563123920,0.91697925,1.7178397,11.121067
1587563123931,1.0833763,1.5729905,11.008539
1587563123941,0.9780314,1.3072342,11.039664
1587563123951,0.9888053,0.89423436,11.328165
1587563123963,1.1252748,0.6584055,11.59871
1587563123973,1.2318168,0.49679685,11.74715
1587563123985,1.3742718,0.4321534,11.841722
1587563123994,1.3958195,0.50278234,11.852495
1587563124006,1.2485762,0.5506664,11.555614
1587563124014,1.0295067,0.5231331,11.097125
1587563124025,0.8319851,0.545878,10.630256
1587563124037,0.48961425,0.19991584,10.261548
1587563124048,0.5291186,-0.035913024,10.445902
1587563124058,0.6428431,-0.24660277,10.747571
1587563124069,0.724246,-0.45010993,10.9822035
1587563124080,0.8403648,-0.6488287,11.000159
1587563124092,0.78410107,-0.7062895,10.885238
1587563124102,0.6344634,-0.6739678,10.596737
1587563124113,0.44532153,-0.62129533,10.232818
1587563124122,0.33877954,-0.45848963,9.85214
1587563124133,0.24061728,-0.2621651,9.448717
1587563124144,0.2669535,-0.12090719,9.01417
1587563124156,0.33399114,0.12330139,8.680179
1587563124169,0.4357447,0.2705448,8.310274
1587563124179,0.5243302,0.427365,8.002619
1587563124189,0.5291186,0.5446809,7.7943234
1587563124203,0.51834464,0.80564886,7.3777328
1587563124213,0.557849,0.9528923,7.1622543
1587563124223,0.52073884,1.0761937,6.955156
1587563124236,0.44771573,1.1240777,6.815095
1587563124246,0.37588966,1.2162545,6.777985
1587563124258,0.32202014,1.3192052,6.9012866
1587563124271,0.37708676,1.4939818,7.15986
1587563124281,0.51355624,1.5729905,7.382521
1587563124291,0.51355624,1.5729905,7.382521
1587563124300,0.78050977,1.4329298,8.121132
1587563124312,0.82599956,1.2952632,8.696938
1587563124321,0.80325466,1.1312603,9.178172
1587563124332,0.81283146,1.0390835,9.713276
1587563124342,0.8571242,0.94930094,9.916783
1587563124354,0.8379706,0.93493575,10.097546
1587563124370,0.78410107,0.93613285,10.096349
1587563124379,0.7589619,0.9708488,10.085575
1587563124391,0.6584055,0.9888053,10.095152
1587563124401,0.415394,0.85473,10.380061
1587563124410,0.415394,0.85473,10.380061
1587563124420,0.3172317,0.748188,10.656591
1587563124430,0.320823,0.5422867,10.971429
1587563124441,0.61052144,0.093373865,11.664551
1587563124450,0.61052144,0.093373865,11.664551
1587563124461,1.3491327,0.2896984,12.071565
1587563124472,1.3515269,0.25498247,12.13142
1587563124483,1.2018893,0.34835634,11.976994
1587563124495,0.7194576,0.40821138,12.10269
1587563124507,0.21906945,0.049081136,12.258312
1587563124517,-0.17118542,-0.60932434,12.436681
1587563124529,-0.2765303,-1.352724,12.8209505
1587563124539,-0.035913024,-1.8914193,13.217191
1587563124552,0.8391677,-2.5941176,13.504495
1587563124558,0.8391677,-2.5941176,13.504495
1587563124571,1.2138603,-2.8095956,13.602657
1587563124583,1.5143325,-2.815581,13.022063
1587563124592,1.3251907,-2.5941176,12.404359
1587563124608,0.91099375,-2.2972364,11.549629
1587563124618,0.44532153,-2.0111294,10.554838
1587563124627,0.029927522,-1.7381904,9.753978
1587563124637,-0.36750996,-1.5263035,9.17099
1587563124648,-0.712275,-1.3204023,8.807071
1587563124660,-0.9959879,-1.1647792,8.652645
1587563124668,-1.1767502,-0.9708488,8.611943
1587563124682,-1.2737153,-0.63206923,8.456321
1587563124692,-1.2401965,-0.36511576,8.269572
1587563124702,-1.1707647,-0.08140286,8.018182
1587563124713,-1.1097125,0.20949265,7.763199
1587563124725,-0.8702923,0.770933,7.1347213
1587563124735,-0.7290344,0.94570965,6.882133
1587563124747,-0.581791,1.1168951,6.633136
1587563124757,-0.41060558,1.1504139,6.5349736
1587563124769,-0.17956513,1.1336545,6.4643445
1587563124778,-0.020350715,1.0953473,6.6427126
1587563124790,0.11133038,1.0929531,6.7708025
1587563124800,0.2657564,1.0546459,7.07726
1587563124812,0.51714754,1.0486604,7.3418193
1587563124822,0.5530606,1.0474633,7.40766
1587563124835,0.5734113,1.0187328,7.487866
1587563124846,0.5793968,1.0187328,7.6111674
1587563124856,0.5614403,0.9696517,7.8290396
1587563124866,0.5422867,0.91578215,8.082825
1587563124878,0.50876784,0.8319851,8.2995
1587563124887,0.5327099,0.7194576,8.586804
1587563124899,0.50996494,0.6727707,8.899248
1587563124908,0.48123455,0.58298814,9.050082
1587563124919,0.5315128,0.58777654,9.1829605
1587563124932,0.5614403,0.5793968,9.309854
1587563124941,0.61530983,0.6392518,9.368511
1587563124952,0.866701,0.63087213,9.738416
1587563124964,0.92535895,0.7230489,9.933543
1587563124976,0.94451255,0.6811504,10.305841
1587563124986,0.8355764,0.5386954,10.737994
1587563124998,0.60573304,0.30765492,11.275493
1587563125008,0.36032736,0.073023155,11.677719
1587563125020,0.2885013,0.011971008,11.981782
1587563125030,0.48123455,0.25498247,12.185289
1587563125042,0.8882488,0.4369418,12.063186
1587563125052,1.1073183,0.7338228,12.050017
1587563125065,1.401805,0.7661445,12.11107
1587563125075,1.3515269,0.7398083,12.192472
1587563125085,0.9864111,0.45010993,12.343307
1587563125097,0.7721301,0.16998832,12.636597
1587563125105,0.62967503,-0.075417355,13.01488
1587563125117,0.5494693,-0.2765303,13.157335
1587563125128,0.62967503,-0.4405331,13.169307
1587563125139,0.7769185,-0.533907,13.163321
1587563125151,1.0881647,-0.6859388,12.510901
1587563125160,1.2880806,-0.6356605,12.112267
1587563125172,1.4532804,-0.62967503,11.711238
1587563125183,1.4999673,-0.5374983,11.013328
1587563125194,1.4520833,-0.4189853,10.699687
1587563125205,1.3706805,-0.32321724,10.411186
1587563125214,1.2425907,-0.2669535,10.042479
1587563125224,1.079785,-0.20231004,9.702502
1587563125235,0.9947908,-0.017956512,9.260772
1587563125246,0.91219085,0.11133038,8.762778
1587563125257,0.82480246,0.20231004,8.246828
1587563125268,0.7793127,0.30526072,7.9008656
1587563125279,0.79008657,0.44651863,7.620744
1587563125290,0.8559271,0.5434838,7.3633676
1587563125303,0.90740246,0.62129533,7.132327
1587563125315,0.997185,0.70509243,6.9970546
1587563125323,1.0534488,0.7266402,6.811504
1587563125335,1.1001357,0.7338228,6.682217
1587563125348,1.1288661,0.760159,6.5708866
1587563125358,1.1468226,0.80325466,6.5002575
1587563125368,1.198298,0.8331822,6.364985
1587563125380,1.2138603,0.8475474,6.3470287
1587563125390,1.2330139,0.92895025,6.363788
1587563125402,1.3443443,1.0067618,6.543353
1587563125413,1.5861586,1.1300632,6.799533
1587563125423,1.7585411,1.13964,6.9371996
1587563125435,1.8890251,1.1408371,7.049727
1587563125446,2.0171149,1.0486604,7.2209125
1587563125456,2.1787236,0.90500826,7.5692687
1587563125468,2.3127987,0.78410107,8.015787
1587563125478,2.3870192,0.5746084,8.456321
1587563125491,2.2361844,0.35314476,9.509769
1587563125501,1.9680338,0.2885013,10.032902
1587563125512,1.6675615,0.2873042,10.481815
1587563125522,1.6675615,0.2873042,10.481815
1587563125534,1.0714053,0.32321724,11.235989
1587563125542,0.89902276,0.32321724,11.480197
1587563125554,0.7553706,0.30526072,11.683704
1587563125566,0.6739678,0.2765303,11.835736
1587563125576,0.58418524,0.19153613,11.969811
1587563125588,0.7793127,0.48961425,11.939884
1587563125601,0.6787562,0.79128367,12.570756
1587563125616,0.32441434,1.0259154,12.570756
1587563125626,-0.0023942017,1.0893618,12.807782
1587563125637,-0.46926352,0.830788,12.978968
1587563125647,-1.3922282,-0.46686932,13.579912
1587563125659,-1.4161704,-1.3036429,13.862428
1587563125670,-1.2557588,-1.9656396,13.978547
1587563125680,-0.6811504,-2.5881321,13.995306
1587563125693,0.49081135,-3.1364043,13.286622
1587563125703,0.7422025,-3.1723173,12.64737
1587563125713,0.7146692,-3.0382419,12.186486
1587563125725,0.5398925,-2.9041667,11.74715
1587563125736,0.16160862,-2.6240451,11.292253
1587563125746,-0.4189853,-2.4791958,10.8948145
1587563125758,-0.91937345,-2.2888567,10.508151
1587563125766,-1.1947067,-1.9644425,10.170568
1587563125778,-1.2665327,-1.6807296,9.952697
1587563125790,-1.376666,-1.4760253,9.7084875
1587563125800,-1.4760253,-1.2294226,9.313444
1587563125813,-1.5382746,-0.533907,8.331821
1587563125822,-1.5897499,-0.092176765,7.9068513
1587563125834,-1.5873557,0.24181437,7.3909006
1587563125845,-1.4772224,0.5422867,6.92044
1587563125855,-1.388637,0.7110779,6.631939
1587563125867,-1.2066777,0.9888053,6.3601966
1587563125875,-0.7374141,1.1803415,6.054936
1587563125887,-0.44891283,1.1252748,6.143522
1587563125899,-0.21428105,1.0462662,6.281188
1587563125909,-0.06823475,0.9804256,6.457162
1587563125922,0.17597382,0.8379706,6.71813
1587563125932,0.22266077,0.81881696,6.9132576
1587563125941,0.21787235,0.7410054,7.1107793
1587563125953,0.25498247,0.5793968,7.3669586
1587563125964,0.2669535,0.4429273,7.6015906
1587563125978,0.31483752,0.31004912,7.880515
1587563125981,0.34596214,0.21787235,8.161834
1587563125993,0.40940848,0.08379706,8.463503
1587563126004,0.47165772,-0.021547815,8.738836
1587563126015,0.49799395,-0.093373865,9.011775
1587563126026,0.48482585,-0.12569559,9.205706
1587563126037,0.50637364,-0.1376666,9.313444
1587563126048,0.61530983,-0.045489833,9.355343
1587563126059,0.7350199,0.1340753,9.247604
1587563126069,0.8810662,0.32202014,9.19134
1587563126080,0.9983821,0.5374983,9.174581
1587563126090,1.1228806,0.664391,9.26556
1587563126103,1.436521,0.830788,10.187328
1587563126112,1.4867992,0.8415619,10.611102
1587563126124,1.4209588,0.688333,11.184513
1587563126135,1.186327,0.50038815,11.680113
1587563126145,1.0007763,0.5327099,12.070368
1587563126157,0.7745243,0.59256494,12.447454
1587563126167,0.5770026,0.5793968,12.583924
1587563126180,0.29807812,0.7290344,12.483368
1587563126190,0.23463176,0.81761986,12.588713
1587563126203,0.36391866,0.5710171,12.826936
1587563126213,0.4429273,0.092176765,12.998121
1587563126223,0.7517793,-0.38067806,13.317747
1587563126235,0.9768343,-0.93493575,13.737929
1587563126246,1.1133038,-1.436521,13.96059
1587563126256,1.377863,-1.6771383,14.113819
1587563126268,1.4987702,-1.7645266,14.106636
1587563126278,1.5059528,-1.7764976,13.95221
1587563126290,1.5394717,-1.6352397,13.56435
1587563126303,1.6136919,-1.1073183,12.281057
1587563126309,1.6136919,-1.1073183,12.281057
1587563126322,1.3994108,-0.92296475,11.224017
1587563126334,1.3694834,-0.724246,10.723629
1587563126344,1.316811,-0.7290344,10.4171715
1587563126356,1.1887212,-0.6799533,10.144233
1587563126366,1.1049241,-0.60693014,9.762358
1587563126379,1.043872,-0.50158525,9.41041
1587563126389,0.92535895,-0.31124622,8.925584
1587563126399,0.8595184,-0.14724341,8.379706
1587563126412,0.79607207,0.08499416,7.422025
1587563126418,0.79607207,0.08499416,7.422025
1587563126431,0.8798691,0.36152446,6.7492547
1587563126443,1.0067618,0.4429273,6.543353
1587563126453,1.1013328,0.48003745,6.3350577
1587563126465,1.1109096,0.49679685,6.2009826
1587563126475,1.1839328,0.5638345,6.0681043
1587563126487,1.2078748,0.60094464,5.957971
1587563126497,1.151611,0.6943185,5.9064956
1587563126509,1.0247183,0.748188,5.8825536
1587563126520,0.9923966,0.88944596,5.90889
1587563126530,1.0103531,0.9995792,5.925649
1587563126542,1.0965444,1.2042835,5.9843073
1587563126552,1.1192893,1.2653356,5.9747305
1587563126564,1.186327,1.3922282,6.491878
1587563126575,1.2617443,1.3958195,6.8689647
1587563126584,1.3575124,1.3946224,7.2604165
1587563126596,1.4257472,1.3826514,7.6889787
1587563126608,1.3946224,1.2892777,8.026561
1587563126618,1.388637,1.2246342,8.3629465
1587563126631,1.1719618,1.0857705,9.238028
1587563126637,1.1719618,1.0857705,9.238028
1587563126651,1.0809821,1.009156,9.712079
1587563126661,0.9900024,0.8822633,10.727221
1587563126673,0.90261406,0.7565677,11.21444
1587563126683,0.81761986,0.62368953,11.608287
1587563126696,0.712275,0.58777654,11.839328
1587563126706,0.61770403,0.5758055,11.992557
1587563126716,0.5303157,0.5327099,11.976994
1587563126728,0.5494693,0.49200845,11.968615
1587563126737,0.724246,0.6727707,11.908759
1587563126750,1.0510546,0.9935937,12.241553
1587563126759,1.0510546,0.9935937,12.241553
1587563126771,0.79607207,1.1384429,12.185289
1587563126785,0.61171854,1.0702082,12.235568
1587563126795,-0.011971008,0.49200845,12.129025
1587563126805,-0.142455,-0.15442601,12.363658
1587563126815,-0.15083471,-0.7781156,12.835316
1587563126827,-0.088585466,-1.3742718,13.133393
1587563126837,0.17597382,-1.8207904,13.4422455
1587563126849,0.35793316,-2.0470424,13.576321
1587563126857,0.4321534,-2.2014685,13.420697
1587563126868,0.37588966,-2.2385786,12.971785
1587563126880,0.18555063,-2.1188686,12.306197
1587563126891,-0.2801216,-1.5442601,10.923545
1587563126902,-0.6584055,-1.3084313,10.192117
1587563126913,-0.93373865,-1.0462662,9.674969
1587563126923,-1.0702082,-0.7745243,9.317036
1587563126934,-1.1432313,-0.60573304,9.00579
1587563126945,-1.2557588,-0.5267244,8.901642
1587563126956,-1.3132197,-0.39863458,8.870518
1587563126964,-1.3180081,-0.25498247,8.848969
1587563126975,-1.2808979,-0.10175357,8.723274
1587563126986,-1.2114661,0.06943185,8.51857
1587563126997,-1.0929531,0.2741361,8.1881695
1587563127008,-0.8870517,0.47884035,7.8769236
1587563127020,-0.7086837,0.62249243,7.451953
1587563127032,-0.2908955,0.92176765,6.805518
1587563127044,-0.15801731,0.9876082,6.740875
1587563127054,-0.037110128,1.0462662,6.7085533
1587563127066,0.12689269,1.1492168,6.7025676
1587563127074,0.2873042,1.1815386,6.716933
1587563127086,0.46447513,1.186327,6.8330517
1587563127098,0.6428431,1.1899183,6.9982514
1587563127109,0.7541735,1.1384429,7.1909847
1587563127120,0.79487497,1.0570401,7.3885064
1587563127131,0.80924016,1.0175357,7.597999
1587563127141,0.6823475,0.8607155,8.030152
1587563127153,0.60214174,0.81043726,8.331821
1587563127163,0.50876784,0.7697359,8.549694
1587563127175,0.4213795,0.736217,8.756793
1587563127183,0.44891283,0.8319851,8.933964
1587563127195,0.47165772,0.91817635,9.009381
1587563127207,0.5231331,0.9911995,9.048885
1587563127217,0.60214174,1.1492168,9.120711
1587563127229,0.6871359,1.2797008,9.259575
1587563127240,0.7769185,1.3802572,9.409213
1587563127250,0.6991069,1.4508862,9.623494
1587563127262,0.48961425,1.6017209,10.540473
1587563127273,0.24540567,1.4401124,11.000159
1587563127282,-0.023942016,1.2210429,11.556811
1587563127296,-0.24899697,1.2018893,11.853693
1587563127306,-0.2813187,1.3730747,12.178107
1587563127316,-0.35075054,1.4173675,12.246342
1587563127328,-0.37110126,1.5251064,12.061988
1587563127340,-0.079008654,1.7585411,11.978191
1587563127350,0.29328972,1.757344,12.0727625
1587563127361,0.7038953,1.0319009,12.624625
1587563127370,0.81642276,0.58777654,13.227964
1587563127382,0.7314286,0.21428105,13.496115
1587563127394,0.8738836,0.0035913025,13.765463
1587563127401,1.0522517,-0.05746084,13.868413
1587563127412,1.1839328,-0.110133275,13.84088
1587563127424,1.0965444,-0.18794483,13.363236
1587563127436,1.1432313,-0.22505496,12.990938
1587563127448,1.30484,-0.08619126,12.688072
1587563127458,1.3623008,-0.1376666,12.249933
1587563127471,1.4580688,-0.2645593,11.888409
1587563127483,1.9764135,-0.50996494,11.034876
1587563127493,1.9536686,-0.62129533,10.514136
1587563127502,2.055422,-0.3890578,10.333375
1587563127515,2.054225,-0.3890578,9.842564
1587563127524,1.9213469,-0.3890578,9.324219
1587563127535,1.7489643,-0.30645782,8.9040365
1587563127547,1.5957354,-0.30765492,8.536526
1587563127558,1.4736311,-0.22625206,8.149862
1587563127570,1.4173675,-0.02873042,7.8589673
1587563127581,1.3227965,0.077811554,7.4746976
1587563127591,1.2689269,0.29688102,6.897695
1587563127603,1.2725182,0.4417302,6.563704
1587563127614,1.2198458,0.5626374,6.1758432
1587563127624,1.1504139,0.7230489,5.875371
1587563127635,1.0809821,0.90141696,5.5629277
1587563127648,0.94930094,1.0546459,5.3642087
1587563127658,0.7745243,1.1671734,5.3402667
1587563127667,0.48602295,1.3084313,5.42167
1587563127679,0.2645593,1.4616601,5.463568
1587563127692,0.08140286,1.7190368,5.7963624
1587563127702,0.1388637,1.8195933,5.9543796
1587563127712,0.23822308,2.03148,6.0405707
1587563127725,0.47884035,2.1320367,6.254852
1587563127731,0.47884035,2.1320367,6.254852
1587563127743,0.78410107,2.2888567,6.8761473
1587563127755,0.89902276,2.3546975,7.27957
1587563127767,0.9840169,2.4516625,7.7189064
1587563127777,1.0402806,2.5390508,8.081628
1587563127790,1.0977415,2.553416,8.567651
1587563127800,1.1552023,2.6084828,9.038112
1587563127810,1.055843,2.5306711,9.605537
1587563127822,0.9947908,2.2948422,10.832565
1587563127832,0.9564836,2.1871033,11.376049
1587563127844,0.8846575,2.0362685,11.9135475
1587563127854,0.89662856,1.9261353,12.319365
1587563127867,0.8355764,1.7609353,12.625823
1587563127877,0.89423436,1.602918,12.919112
1587563127887,1.0522517,1.4041992,13.1477585
1587563127899,1.3551182,1.5310919,13.220781
1587563127910,1.5298948,1.6771383,13.42788
1587563127921,1.1755531,1.5610195,13.569139
1587563127934,0.94211835,1.4053963,13.6409645
1587563127943,0.40581718,0.7098808,13.703214
1587563127956,0.19273324,0.16519992,13.838486
1587563127965,0.21308395,-0.38307226,14.099454
1587563127976,0.19991584,-0.93613285,14.000094
1587563127988,0.44532153,-1.3575124,13.901932
1587563128000,0.7338228,-1.5981296,13.652935
1587563128012,0.78290397,-1.5406688,12.628217
1587563128022,0.6584055,-1.4185646,12.081141
1587563128032,0.32441434,-1.1432313,11.376049
1587563128044,-0.19393034,-0.9888053,10.712855
1587563128055,-0.7110779,-0.94211835,10.032902
1587563128064,-1.0498575,-0.91937345,9.690532
1587563128076,-1.376666,-0.9816227,9.388862
1587563128089,-1.5095441,-1.0690111,9.500193
1587563128099,-1.5825673,-1.1815386,9.581595
1587563128110,-1.567005,-1.2318168,9.633071
1587563128123,-1.3084313,-1.0390835,9.25359
1587563128133,-1.2497733,-0.80325466,8.796297
1587563128143,-1.0690111,-0.5566519,8.306683
1587563128154,-0.82240826,-0.28491,7.759608
1587563128164,-0.60693014,-0.062249243,6.930017
1587563128175,-0.32441434,0.2861071,6.5696893
1587563128188,-0.1364695,0.36511576,6.443994
1587563128198,-0.107739076,0.5506664,6.4368114
1587563128208,-0.16519992,0.6584055,6.3865333
1587563128221,-0.1376666,0.89303726,6.4763155
1587563128232,-0.12808979,0.9564836,6.4392056
1587563128242,-0.094570965,1.0354922,6.429629
1587563128252,0.010773907,1.1540052,6.4631476
1587563128268,0.079008654,1.2401965,6.4870896
1587563128278,0.12090719,1.3227965,6.5828576
1587563128289,0.18555063,1.4221559,6.7253127
1587563128300,0.37349546,1.6184803,7.1347213
1587563128311,0.48362875,1.6101006,7.455544
1587563128322,0.5231331,1.532289,7.7608047
1587563128333,0.58298814,1.5227122,8.073248
1587563128344,0.6823475,1.541866,8.468291
1587563128355,0.7781156,1.5873557,8.76637
1587563128366,0.8535329,1.6292542,9.018958
1587563128377,0.93613285,1.650802,9.354146
1587563128388,0.9983821,1.6376339,9.801862
1587563128397,1.0426749,1.6077064,10.320207
1587563128408,0.9792285,1.3323733,11.6442
1587563128419,0.91219085,1.186327,12.369643
1587563128429,0.6727707,1.0845734,12.697649
1587563128440,-0.034715924,0.8295909,13.111846
1587563128451,-0.33638534,0.7410054,13.162124
1587563128462,-0.4333505,0.9959879,13.012486
1587563128473,-0.45848963,1.258153,12.876017
1587563128484,-0.50637364,1.30484,12.406754
1587563128495,-0.21667525,1.6184803,11.972205
1587563128504,0.20350714,1.661576,11.909956
1587563128515,0.5758055,1.5179238,11.7148285
1587563128526,0.92775315,1.3455414,11.796232
1587563128538,1.151611,0.9911995,11.943475
1587563128550,1.4317327,0.700304,12.140997
1587563128561,1.6555905,0.51235914,12.197261
1587563128571,1.827973,0.23822308,11.859678
1587563128583,1.8387469,0.2896984,11.577163
1587563128593,1.8483237,0.34835634,11.184513
1587563128605,1.9321208,0.37708676,10.898406
1587563128613,2.006341,0.47524905,10.626664
1587563128625,1.9381063,0.46567222,10.263943
1587563128637,1.8531121,0.36870706,9.929952
1587563128647,1.8339585,0.32202014,9.767146
1587563128662,1.7525556,0.25019407,9.639056
1587563128672,1.5334862,0.20350714,9.337387
1587563128682,1.3371617,0.19153613,9.072827
1587563128692,1.1767502,0.25378537,8.771158
1587563128703,0.9959879,0.36032736,8.514978
1587563128713,0.8511387,0.47165772,8.226477
1587563128725,0.6440403,0.51595044,7.902063
1587563128735,0.49081135,0.5614403,7.61835
1587563128747,0.44771573,0.6775591,7.3537903
1587563128757,0.415394,0.7314286,7.216124
1587563128769,0.30885202,0.79726917,6.9587474
1587563128779,0.35434186,0.94930094,6.8486137
1587563128792,0.29568392,1.0546459,6.6630635
1587563128802,0.260968,1.0857705,6.622362
1587563128812,0.2621651,1.1552023,6.612785
1587563128824,0.2717419,1.2258313,6.519411
1587563128832,0.3890578,1.2988545,6.5625067
1587563128845,0.40581718,1.3694834,6.5505357
1587563128855,0.5530606,1.4197617,6.733692
1587563128866,0.5386954,1.4544775,6.9503675
1587563128879,0.48243165,1.4449008,7.309498
1587563128889,0.50757074,1.3910311,7.7320743
1587563128899,0.4381389,1.3096284,8.148665
1587563128911,0.4417302,1.2174516,8.765172
1587563128921,0.48722005,1.2497733,9.063251
1587563128933,0.521936,1.271321,9.281123
1587563128941,0.5686229,1.2270284,9.390059
1587563128953,0.61052144,1.2521675,9.5492735
1587563128965,0.6715736,1.3239936,9.720459
1587563128976,0.7206547,1.2976574,9.989806
1587563128986,0.79128367,1.2449849,10.309433
1587563128998,0.6811504,1.2054806,10.626664
1587563129008,0.688333,1.0366893,11.0695915
1587563129022,0.82240826,0.39504328,11.9374895
1587563129031,1.0175357,0.039504327,12.269087
1587563129040,1.0175357,0.039504327,12.269087
1587563129054,1.5753847,-0.0035913025,12.343307
1587563129063,1.6124948,0.15203181,12.580333
1587563129074,1.472434,0.38187516,12.500127
1587563129085,1.1923125,0.63087213,12.264298
1587563129096,0.52073884,0.79607207,12.169727
1587563129107,0.35913026,0.7469909,12.113463
1587563129118,0.39624038,0.34476504,12.089521
1587563129129,0.51235914,-0.14844051,12.216414
1587563129142,0.7350199,-1.091756,12.413936
1587563129153,0.9959879,-1.4209588,12.660539
1587563129163,0.9816227,-1.6460136,12.61864
1587563129175,0.8822633,-1.9297266,12.46182
1587563129185,0.79248077,-1.9393034,12.173319
1587563129197,0.5746084,-1.8794483,11.74715
1587563129208,0.23822308,-1.8782512,11.204864
1587563129219,-0.1352724,-1.827973,10.688913
1587563129229,-0.40821138,-1.7357962,10.254366
1587563129241,-0.5518635,-1.6424223,9.989806
1587563129252,-0.6727707,-1.3108255,9.532514
1587563129262,-0.62488663,-1.021127,9.229648
1587563129274,-0.56982,-0.7505822,8.901642
1587563129285,-0.49440265,-0.4333505,8.444349
1587563129295,-0.41060558,-0.10295067,7.9595237
1587563129307,-0.32920274,0.20949265,7.4962454
1587563129317,-0.29209262,0.49919105,6.6522894
1587563129329,-0.3184288,0.9792285,6.349423
1587563129340,-0.25737667,1.2186487,6.135142
1587563129350,-0.044292733,1.4544775,6.161478
1587563129362,0.09816227,1.5885528,6.229713
1587563129373,0.20470424,1.5933412,6.303933
1587563129383,0.33518824,1.6364368,6.3542113
1587563129395,0.5374983,1.6531962,6.4368114
1587563129405,0.6979098,1.7142484,6.5936313
1587563129418,0.79367787,1.769315,6.7803793
1587563129428,0.93134445,1.7142484,6.9826894
1587563129438,1.1061212,1.6903064,7.2783732
1587563129450,1.1695676,1.6232687,7.60997
1587563129460,1.2401965,1.5298948,7.787141
1587563129473,1.5059528,1.2677298,8.451532
1587563129484,1.6292542,1.2018893,8.7125
1587563129494,1.6292542,1.1563994,8.92319
1587563129506,1.6675615,1.0941502,9.198523
1587563129516,1.7609353,1.1061212,9.470264
1587563129528,1.8459295,1.0702082,9.710882
1587563129538,1.9572599,0.9708488,9.925163
1587563129551,2.3403323,0.94570965,10.8229885
1587563129561,2.2828712,0.8846575,11.1653595
1587563129571,1.9991584,0.8499416,11.419145
1587563129583,1.8016368,1.0378864,11.702858
1587563129593,1.3323733,1.0247183,12.138602
1587563129605,0.8619126,0.94810385,12.227188
1587563129616,0.545878,1.1145009,12.334928
1587563129625,0.48362875,1.2306197,12.382812
1587563129637,0.5542577,1.1683705,12.315774
1587563129649,0.6584055,0.89064306,12.406754
1587563129660,0.8750807,0.33039984,12.723985
1587563129670,1.1204864,-0.19752164,13.093889
1587563129682,1.6256629,-0.8391677,13.53562
1587563129692,1.8004397,-1.0354922,13.648147
1587563129704,1.7896658,-0.9900024,13.281834
1587563129713,1.8483237,-0.8858546,12.872425
1587563129725,1.7705121,-0.7218518,12.079945
1587563129735,1.7070658,-0.39743748,11.233594
1587563129746,1.5382746,-0.20709845,10.279505
1587563129758,1.3371617,-0.14604631,9.483433
1587563129770,1.1875241,-0.10654198,9.010578
1587563129781,1.0295067,-0.47165772,9.436746
1587563129791,1.0295067,-0.47165772,9.436746
1587563129807,0.89782566,-1.1563994,10.31063
1587563129817,0.961272,-1.0869676,10.455479
1587563129828,1.0175357,-1.0187328,10.237606
1587563129840,0.9744401,-0.89064306,9.799467
1587563129849,0.8523358,-0.6392518,9.174581
1587563129861,0.6739678,-0.027533319,7.7907324
1587563129872,0.50278234,0.25019407,7.2664022
1587563129883,0.4285621,0.4285621,6.791153
1587563129894,0.50637364,0.60573304,6.6870055
1587563129906,0.60932434,0.7398083,6.5984197
1587563129915,0.7026982,0.6703765,6.7564373
1587563129927,0.79487497,0.664391,6.8330517
1587563129935,0.8367735,0.6404489,6.870162
1587563129947,0.90979666,0.6440403,6.8905125
1587563129959,0.93972415,0.7098808,6.921637
1587563129969,0.8798691,0.80325466,6.8198833
1587563129982,0.80684596,1.0977415,6.7372837
1587563129992,0.7745243,1.2737153,6.754043
1587563130002,0.79248077,1.4676456,7.0209966
1587563130014,0.90500826,1.5047557,7.225701
1587563130024,1.0378864,1.5119383,7.5788455
1587563130036,1.1408371,1.4197617,8.036138
1587563130044,1.246182,1.282095,8.532935
1587563130056,1.2557588,1.1623849,9.111135
1587563130068,1.1683705,1.0582372,9.56723
1587563130078,1.1073183,1.0139444,9.8198185
1587563130090,0.9959879,0.9792285,10.005369
1587563130100,0.8463503,0.94331545,10.212467
1587563130112,0.47405192,0.8726865,10.653001
1587563130122,0.31603462,0.6907272,10.984597
1587563130134,0.18555063,0.50158525,11.320983
1587563130144,0.415394,0.6380547,11.389217
1587563130156,0.641646,0.866701,11.707646
1587563130166,0.6715736,0.7338228,11.984177
1587563130178,0.60214174,0.9947908,11.975797
1587563130188,0.5231331,1.0163386,12.488156
1587563130201,0.21068975,0.7338228,12.962208
1587563130211,-0.12569559,0.4261679,13.448231
1587563130221,-0.09816227,-0.7338228,14.836868
1587563130234,0.1388637,-1.8782512,15.543158
1587563130244,0.32920274,-2.171541,15.667656
1587563130255,0.3878607,-2.2337902,15.350424
1587563130265,0.29807812,-2.0123265,14.58428
1587563130277,0.1436521,-1.5933412,13.449428
1587563130289,-0.20829555,-1.163582,12.2559185
1587563130299,-0.78649527,-0.89423436,11.056423
1587563130309,-1.3275849,-0.830788,10.143036
1587563130323,-1.8626889,-0.50158525,9.063251
1587563130333,-1.9500773,-0.5363012,8.696938
1587563130343,-1.8770541,-0.47524905,8.459911
1587563130353,-1.6591818,-0.39264908,8.267179
1587563130365,-1.401805,-0.36870706,8.204929
1587563130373,-1.3096284,-0.35673606,8.1079645
1587563130385,-1.2366052,-0.24301147,7.9954367
1587563130398,-1.1372458,-0.04070143,7.762002
1587563130408,-1.0486604,0.18794483,7.32506
1587563130418,-0.9888053,0.46447513,6.919243
1587563130430,-0.8559271,0.7326257,6.479907
1587563130440,-0.60333884,1.009156,6.066907
1587563130452,-0.0047884034,1.163582,5.9663506
1587563130464,0.49679685,1.2389994,6.3949127
1587563130474,0.7278373,1.234211,6.530185
1587563130486,0.8798691,1.2545617,6.8127007
1587563130497,0.9756372,1.3204023,6.907272
1587563130507,0.93613285,1.3180081,7.015011
1587563130518,0.8702923,1.401805,7.180211
1587563130529,0.8391677,1.42455,7.7009497
1587563130540,0.60932434,1.4676456,8.508993
1587563130551,0.50996494,1.4065934,8.802282
1587563130562,0.5279215,1.3670892,9.169792
1587563130573,0.50278234,1.3874398,9.412804
1587563130584,0.5734113,1.3934253,9.604341
1587563130593,0.6823475,1.3910311,9.765948
1587563130604,0.8499416,1.4425066,10.022128
1587563130614,0.9900024,1.4449008,10.279505
1587563130625,1.1408371,1.3982137,10.526108
1587563130636,1.270124,1.3623008,10.878056
1587563130647,1.3120226,1.2318168,11.297041
1587563130658,1.1456255,1.0773908,11.609484
1587563130672,0.7457938,0.7338228,12.063186
1587563130682,0.61291564,0.878672,12.272678
1587563130694,0.053869538,0.89423436,12.397177
1587563130702,0.037110128,1.1731589,12.181698
1587563130714,0.30765492,1.3431472,12.193669
1587563130726,0.51355624,1.3239936,12.164939
1587563130737,0.6440403,1.0929531,12.192472
1587563130747,0.9672575,0.6811504,12.613852
1587563130759,1.2186487,0.2908955,13.121423
1587563130769,1.2605472,-0.04070143,13.358448
1587563130783,1.4856021,-0.34835634,13.277045
1587563130793,1.5717934,-0.37828386,12.74673
1587563130803,1.7262194,-0.22864626,12.150574
1587563130815,1.8842367,0.025139118,11.608287
1587563130825,1.9165585,0.12210429,11.201273
1587563130838,1.9237411,0.1352724,10.905589
1587563130848,1.9668367,0.17357962,10.785878
1587563130857,1.9883845,0.15682021,10.739192
1587563130871,1.9333179,0.04070143,10.641029
1587563130881,1.7729063,0.015562311,10.266336
1587563130891,1.6136919,0.023942016,9.939528
1587563130903,1.3874398,0.023942016,9.5732155
1587563130914,1.1719618,0.045489833,9.228451
1587563130924,0.7338228,0.130484,8.5700445
1587563130936,0.5243302,0.12569559,8.279149
1587563130946,0.4237737,0.1400608,8.037335
1587563130957,0.32920274,0.22625206,7.715315
1587563130970,0.23942018,0.2873042,7.4244194
1587563130981,0.19393034,0.34476504,7.0784574
1587563130991,0.33039984,0.59855044,6.647501
1587563131001,0.427365,0.6943185,6.481104
1587563131014,0.5374983,0.7433996,6.477513
1587563131023,0.5638345,0.842759,6.43322
1587563131038,0.62129533,0.9648633,6.4487824
1587563131046,0.61890113,1.0402806,6.3901243
1587563131057,0.6835446,1.1731589,6.4272346
1587563131070,0.6835446,1.3503298,6.505046
1587563131080,0.6392518,1.4437037,6.5565214
1587563131090,0.5650316,1.5191209,6.6666546
1587563131102,0.48362875,1.7106571,7.132327
1587563131113,0.4177882,1.733402,7.3549876
1587563131122,0.427365,1.6747441,7.7464395
1587563131135,0.49559975,1.6555905,8.243237
1587563131141,0.46208093,1.5586253,8.723274
1587563131153,0.59017074,1.3204023,9.733627
1587563131165,0.61291564,1.1827357,10.226832
1587563131178,0.5494693,0.9888053,10.723629
1587563131188,0.50397944,0.8643068,11.1414175
1587563131198,0.48123455,0.7254431,11.419145
1587563131209,0.41180268,0.5793968,11.656171
1587563131222,0.427365,0.12569559,11.915942
1587563131232,0.6979098,-0.02633622,12.078748
1587563131242,0.9840169,-0.035913024,12.051214
1587563131254,1.3838485,0.36152446,11.949461
1587563131264,1.4161704,0.36152446,12.248735
1587563131276,1.258153,0.46208093,12.11107
1587563131285,1.1001357,0.7098808,12.138602
1587563131298,0.8523358,0.7469909,12.235568
1587563131308,0.47644615,0.59017074,12.356475
1587563131321,-0.28491,-0.2657564,12.577939
