@ HyperIMU -ianovir - 2018
@ Date:Wed Apr 22 15:43:27 GMT+02:00 2020, Sampling Rate:10ms

timestamp,K6DS3TR_Accelerometer.x,K6DS3TR_Accelerometer.y,K6DS3TR_Accelerometer.z
1587563007969,-0.12449849,2.0590134,9.332599
1587563007983,-0.039504327,2.087744,9.095572
1587563007990,-0.008379706,2.1823149,9.123106
1587563008002,-0.005985504,2.2290018,9.43076
1587563008014,-0.0023942017,1.7824832,10.168175
1587563008024,0.017956512,1.6316484,9.940725
1587563008041,0.051475335,1.6460136,9.428367
1587563008050,-0.093373865,1.5239093,9.288305
1587563008060,-0.09696517,1.1252748,9.02614
1587563008069,0.03232172,0.82001406,8.416816
1587563008078,-0.01436521,0.92535895,8.350976
1587563008091,-0.092176765,1.1647792,8.492233
1587563008101,-0.30286652,1.4508862,8.682572
1587563008113,-0.641646,1.9716251,10.012551
1587563008123,-0.641646,1.9716251,10.012551
1587563008136,-1.0007763,2.5115175,10.358514
1587563008146,-1.6304513,2.706645,10.000581
1587563008156,-1.5813702,2.4241292,9.744401
1587563008168,-1.3096284,1.9452889,9.144653
1587563008177,-0.93852705,1.661576,9.25359
1587563008188,-0.7457938,1.7561469,9.469068
1587563008198,-0.6368576,1.9213469,9.372103
1587563008209,-0.51355624,2.0242975,9.400833
1587563008220,-0.40462008,2.0458453,9.522937
1587563008231,-0.33638534,2.0458453,9.96347
1587563008242,-0.29448682,2.030283,9.710882
1587563008253,-0.31004912,1.9764135,9.555259
1587563008264,-0.21428105,1.8614918,9.560047
1587563008275,-0.19991584,1.8483237,9.537302
1587563008286,-0.25617957,1.9285295,9.544485
1587563008297,-0.36750996,2.0242975,9.498995
1587563008306,-0.40462008,2.0506337,9.459491
1587563008317,-0.34596214,2.0398598,9.544485
1587563008329,-0.19871874,2.0518308,9.668983
1587563008340,-0.035913024,2.0530279,9.7803135
1587563008352,0.022744916,2.0123265,9.671378
1587563008361,0.009576807,1.9357121,9.7479925
1587563008372,-0.07062895,1.8507179,9.722853
1587563008383,-0.427365,1.8291701,9.619903
1587563008394,-0.50876784,1.6867151,9.546879
1587563008405,-0.44651863,1.685518,9.640253
1587563008415,-0.33159694,1.7178397,9.721656
1587563008427,-0.2765303,1.7513585,9.667787
1587563008438,-0.19752164,1.7154455,9.623494
1587563008450,-0.107739076,1.6519991,9.731233
1587563008461,-0.1316811,1.602918,9.830592
1587563008471,-0.20590134,1.5849615,9.751583
1587563008482,-0.2801216,1.541866,9.703699
1587563008492,-0.37110126,1.4772224,9.694122
1587563008505,-0.30885202,1.3946224,9.582792
1587563008515,-0.21188685,1.4616601,9.692925
1587563008528,-0.16280572,1.5263035,9.743204
1587563008538,-0.17238252,1.5239093,9.627085
1587563008549,-0.23463176,1.4772224,9.568427
1587563008560,-0.30047232,1.4053963,9.55885
1587563008570,-0.36272156,1.3371617,9.503783
1587563008583,-0.3854665,1.3503298,9.509769
1587563008593,-0.39983168,1.3790601,9.603143
1587563008604,-0.4345476,1.4173675,9.749189
1587563008613,-0.4309563,1.4185646,10.004171
1587563008625,-0.4369418,1.328782,9.593566
1587563008633,-0.4369418,1.328782,9.593566
1587563008644,-0.49200845,1.1001357,9.715671
1587563008656,-0.51595044,1.1659763,9.758766
1587563008668,-0.5446809,1.2952632,9.762358
1587563008678,-0.5374983,1.3850456,9.751583
1587563008689,-0.5327099,1.4065934,9.752781
1587563008700,-0.5303157,1.3922282,9.720459
1587563008711,-0.50158525,1.376666,9.77792
1587563008723,-0.50038815,1.3479356,9.67018
1587563008736,-0.44891283,1.3156139,9.586384
1587563008745,-0.45848963,1.3180081,9.609129
1587563008755,-0.45848963,1.3180081,9.609129
1587563008768,-0.47884035,1.328782,9.625888
1587563008780,-0.4417302,1.3371617,9.627085
1587563008790,-0.4321534,1.3575124,9.682152
1587563008799,-0.4177882,1.328782,9.570822
1587563008812,-0.36990416,1.2761095,9.5385
1587563008822,-0.36272156,1.2557588,9.551667
1587563008833,-0.38187516,1.2665327,9.579201
1587563008844,-0.47644615,1.3323733,9.725247
1587563008854,-0.5650316,1.3467385,9.588778
1587563008868,-0.5746084,1.2976574,9.557653
1587563008883,-0.50038815,1.2641385,9.531317
1587563008892,-0.40821138,1.2856863,9.489418
1587563008902,-0.32202014,1.3275849,9.53012
1587563008912,-0.260968,1.3874398,9.527725
1587563008921,-0.260968,1.4030021,9.581595
1587563008931,-0.2753332,1.3467385,9.613917
1587563008944,-0.30645782,1.3180081,9.719262
1587563008953,-0.30645782,1.3180081,9.719262
1587563008966,-0.3184288,1.3084313,9.749189
1587563008976,-0.30645782,1.2437878,9.759963
1587563008987,-0.24779987,1.2054806,9.803059
1587563008998,-0.25977087,1.2294226,9.828198
1587563009010,-0.260968,1.2653356,9.676167
1587563009019,-0.2813187,1.271321,9.67856
1587563009029,-0.29688102,1.2617443,9.66659
1587563009040,-0.24181437,1.3060371,9.7084875
1587563009051,-0.19153613,1.3850456,9.660604
1587563009062,-0.18794483,1.4065934,9.601946
1587563009071,-0.2693477,1.3144168,9.498995
1587563009083,-0.33279404,1.3431472,9.554062
1587563009094,-0.5243302,1.435324,9.473856
1587563009105,-0.61052144,1.435324,9.481039
1587563009115,-0.6380547,1.4377182,9.566033
1587563009126,-0.581791,1.4640543,9.595961
1587563009137,-0.5231331,1.4652514,9.628283
1587563009148,-0.45250413,1.4041992,9.606734
1587563009159,-0.40701428,1.3323733,9.613917
1587563009172,-0.34476504,1.2880806,9.57561
1587563009178,-0.32800564,1.2665327,9.615114
1587563009189,-0.36870706,1.2569559,9.603143
1587563009204,-0.3842694,1.1803415,9.628283
1587563009217,-0.24660277,1.1994951,9.91439
1587563009233,-0.21906945,1.2366052,9.925163
1587563009240,-0.260968,1.2270284,9.768343
1587563009251,-0.3878607,1.1671734,9.698911
1587563009263,-0.4321534,1.1145009,9.587581
1587563009272,-0.36152446,1.1240777,9.508572
1587563009281,-0.2717419,1.2246342,9.518148
1587563009294,-0.24660277,1.2988545,9.671378
1587563009303,-0.24660277,1.2988545,9.671378
1587563009315,-0.260968,1.258153,9.712079
1587563009328,-0.2693477,1.2521675,9.710882
1587563009338,-0.31603462,1.271321,9.665392
1587563009351,-0.3878607,1.2641385,9.594764
1587563009361,-0.4141969,1.246182,9.651027
1587563009372,-0.415394,1.234211,9.646238
1587563009384,-0.45010993,1.2904748,9.648633
1587563009394,-0.47165772,1.2761095,9.637859
1587563009406,-0.49919105,1.2976574,9.64983
1587563009416,-0.51595044,1.3491327,9.657013
1587563009429,-0.5327099,1.3730747,9.689334
1587563009438,-0.5722142,1.3515269,9.68694
1587563009450,-0.60094464,1.282095,9.592369
1587563009461,-0.58657944,1.2246342,9.651027
1587563009470,-0.5506664,1.2186487,9.653421
1587563009481,-0.51475334,1.2354081,9.627085
1587563009492,-0.48841715,1.258153,9.651027
1587563009504,-0.50876784,1.1923125,9.652225
1587563009511,-0.50876784,1.1923125,9.652225
1587563009522,-0.46567222,1.1791444,9.783905
1587563009533,-0.5482722,1.0977415,9.739613
1587563009545,-0.5758055,1.0450691,9.683349
1587563009556,-0.5446809,1.0785879,9.635465
1587563009567,-0.48362875,1.1180922,9.629479
1587563009578,-0.4405331,1.1336545,9.674969
1587563009591,-0.45848963,1.1492168,9.67018
1587563009602,-0.4417302,1.1504139,9.640253
1587563009613,-0.37828386,1.1803415,9.623494
1587563009625,-0.439336,1.1815386,9.570822
1587563009635,-0.4357447,1.1851299,9.607931
1587563009646,-0.40701428,1.2401965,9.630676
1587563009658,-0.3878607,1.2401965,9.606734
1587563009668,-0.3878607,1.210269,9.628283
1587563009678,-0.36272156,1.2054806,9.624691
1587563009690,-0.34237084,1.2425907,9.6845455
1587563009700,-0.33997664,1.2856863,9.715671
1587563009712,-0.32561144,1.2761095,9.635465
1587563009724,-0.4369418,1.198298,9.604341
1587563009732,-0.4369418,1.198298,9.604341
1587563009744,-0.37110126,1.2545617,9.604341
1587563009756,-0.40581718,1.2366052,9.582792
1587563009766,-0.47165772,1.1899183,9.568427
1587563009779,-0.48602295,1.2006922,9.56723
1587563009790,-0.49440265,1.2162545,9.600749
1587563009801,-0.47165772,1.2174516,9.629479
1587563009812,-0.40581718,1.1899183,9.718064
1587563009821,-0.33039984,1.1384429,9.782708
1587563009832,-0.40581718,1.115698,9.672575
1587563009843,-0.49320555,1.0486604,9.482236
1587563009852,-0.47644615,1.0474633,9.502586
1587563009864,-0.38307226,1.1384429,9.546879
1587563009877,-0.32561144,1.282095,9.503783
1587563009887,-0.29209262,1.2473791,9.491813
1587563009896,-0.29448682,1.2330139,9.85214
1587563009907,-0.34835634,1.2294226,9.81503
1587563009918,-0.32920274,1.1611878,9.659407
1587563009930,-0.34476504,1.0941502,9.988609
1587563009941,-0.35673606,1.1061212,10.092757
1587563009951,-0.3172317,1.1133038,9.546879
1587563009962,-0.30885202,1.1204864,9.539697
1587563009974,-0.20111294,1.0187328,9.781511
1587563009984,-0.22864626,1.1647792,9.901221
1587563009996,-0.2765303,1.1923125,9.793482
1587563010007,-0.4189853,0.9935937,9.919178
1587563010018,-0.6835446,0.7206547,9.847352
1587563010028,-0.70509243,0.48961425,9.481039
1587563010041,-0.50158525,0.37229836,9.697714
1587563010051,-0.23104046,0.45489833,9.920375
1587563010063,-0.2813187,0.6488287,9.941922
1587563010073,-0.06584055,0.91458505,9.959879
1587563010085,0.3196259,0.4441244,11.052833
1587563010094,0.32680854,0.6464345,10.351331
1587563010105,0.11492168,0.8882488,9.913192
1587563010116,-0.06703765,0.94690675,9.873688
1587563010127,-0.17238252,0.91697925,9.830592
1587563010140,-0.2693477,0.89303726,9.949105
1587563010149,-0.35673606,0.8822633,10.200497
1587563010160,-0.3172317,0.91578215,10.21127
1587563010169,-0.23822308,1.0498575,9.727641
1587563010180,-0.2777274,1.1611878,9.131485
1587563010191,-0.5351041,1.0103531,8.859743
1587563010201,-0.7589619,0.6799533,9.059659
1587563010212,-0.8283938,0.4237737,9.186552
1587563010223,-0.93014735,0.6835446,9.156625
1587563010234,-0.9708488,0.7398083,9.38168
1587563010245,-0.9708488,0.78170687,9.618706
1587563010257,-0.89064306,0.8655039,9.703699
1587563010269,-0.7625532,0.91817635,9.77792
1587563010276,-0.6596026,0.6344634,9.945514
1587563010288,-0.38187516,0.8762778,9.487024
1587563010299,-0.31124622,0.9995792,9.431957
1587563010312,-0.22385786,0.9840169,9.703699
1587563010323,-0.1412579,0.91817635,9.933543
1587563010333,-0.06464344,0.94092125,9.90601
1587563010346,0.12090719,1.0809821,9.974244
1587563010356,0.079008654,1.0187328,9.746795
1587563010366,0.0023942017,0.91697925,9.419987
1587563010378,-0.15442601,0.7290344,9.260772
1587563010387,-0.2693477,0.5614403,9.157822
1587563010399,-0.08738836,0.49081135,9.1255
1587563010409,0.15083471,0.30166942,9.42238
1587563010422,0.51595044,0.89184016,9.785102
1587563010431,0.6739678,1.1839328,9.799467
1587563010443,0.8415619,1.2413936,10.231621
1587563010453,0.89902276,1.13964,10.625467
1587563010464,0.50158525,1.1109096,9.933543
1587563010476,0.37110126,0.7290344,9.5732155
1587563010487,0.23223756,0.37948096,9.232041
1587563010514,0.58777654,1.1168951,9.685743
1587563010525,0.9840169,1.3371617,10.487801
1587563010536,1.2378023,1.5334862,10.854114
1587563010547,1.2749124,1.6831238,10.62427
1587563010550,1.2749124,1.6831238,10.62427
1587563010558,1.2629414,1.1444284,9.803059
1587563010567,0.7410054,1.198298,9.925163
1587563010576,0.3172317,1.5969325,9.234436
1587563010585,-0.046686932,1.5334862,9.1255
1587563010596,0.1376666,1.0941502,9.662998
1587563010605,0.3172317,0.8595184,10.171766
1587563010617,0.16639702,1.0354922,9.733627
1587563010630,-0.12928689,1.0378864,9.119514
1587563010640,-0.40701428,0.80804306,9.190144
1587563010650,-0.37588966,0.7781156,9.233239
1587563010662,-0.110133275,0.6775591,9.334992
1587563010672,-0.14724341,0.6871359,9.445126
1587563010685,-0.5243302,0.770933,9.722853
1587563010695,-0.30526072,0.7302315,9.773131
1587563010705,0.08499416,0.78649527,9.522937
1587563010717,0.3890578,0.94810385,9.507375
1587563010728,0.51116204,0.85473,9.836577
1587563010741,0.5351041,0.6895301,9.91439
1587563010751,0.6344634,0.60932434,9.765948
1587563010761,0.712275,0.59376204,9.783905
1587563010772,0.6895301,0.6799533,9.702502
1587563010781,0.6548142,0.748188,9.618706
1587563010792,0.60932434,0.7613561,9.765948
1587563010803,0.4297592,0.7206547,9.878476
1587563010814,0.40701428,0.6596026,10.216059
1587563010824,0.33159694,0.58897364,10.405201
1587563010837,0.23223756,0.50038815,10.617087
1587563010847,-0.029927522,0.32800564,10.995371
1587563010857,-0.35673606,-0.65242,10.2735195
1587563010871,-0.39145198,0.046686932,9.719262
1587563010881,-0.50278234,0.7433996,9.384073
1587563010891,-0.6847417,1.3084313,9.284714
1587563010903,-0.7218518,1.4401124,8.871715
1587563010913,-1.0474633,1.2605472,8.665813
1587563010923,-1.2677298,0.78290397,9.247604
1587563010935,-0.866701,0.9923966,9.588778
1587563010945,-0.5602432,0.79128367,8.762778
1587563010957,-0.8822633,0.62129533,9.218874
1587563010969,-1.0546459,0.6512229,9.591172
1587563010980,-1.1145009,0.5662287,9.239224
1587563010990,-0.93972415,0.39384618,9.457097
1587563011000,-0.7733272,0.35314476,9.692925
1587563011012,-0.60693014,0.41299978,9.846154
1587563011022,-0.48961425,0.50517654,10.103531
1587563011037,-0.3890578,0.5279215,10.251971
1587563011049,-0.6404489,0.5554548,10.157401
1587563011054,-0.78888947,0.6715736,9.788693
1587563011065,-1.1528081,0.61650693,9.816227
1587563011077,-0.9504981,0.6464345,9.537302
1587563011086,-0.8774749,0.90500826,9.257181
1587563011097,-1.0761937,1.0941502,9.101558
1587563011109,-0.9672575,1.1971009,9.43914
1587563011120,-0.7266402,0.80445176,9.799467
1587563011132,-0.6392518,0.8738836,10.0029745
1587563011142,-0.5566519,0.7577648,10.17416
1587563011154,-0.5686229,0.6727707,10.067618
1587563011164,-0.60333884,0.7098808,9.88925
1587563011176,-0.58897364,0.7410054,9.583989
1587563011186,-0.8439561,1.2246342,9.297882
1587563011198,-0.7745243,1.0522517,9.443929
1587563011208,-0.5566519,0.45250413,9.592369
1587563011221,-0.5434838,0.49799395,9.435549
1587563011230,-0.40581718,0.545878,9.578004
1587563011243,-0.7517793,0.8810662,9.7958765
1587563011253,-0.7673417,0.48961425,9.55047
1587563011265,-0.94930094,0.130484,9.742006
1587563011275,-0.89662856,0.23104046,9.859323
1587563011287,-0.81402856,0.23582886,9.85214
1587563011296,-0.81642276,0.19393034,10.000581
1587563011309,-0.8331822,0.19871874,10.075998
1587563011318,-0.7206547,0.22625206,10.00896
1587563011330,-0.5674258,0.2633622,10.081984
1587563011342,-0.30765492,0.37828386,9.879673
1587563011352,-0.22146365,0.6739678,9.7479925
1587563011363,-0.23822308,0.7015011,9.775525
1587563011372,-0.2765303,0.7278373,9.847352
1587563011383,-0.3184288,0.7410054,9.811439
1587563011394,-0.5722142,0.6979098,9.787497
1587563011405,-0.7134721,0.50038815,9.743204
1587563011416,-0.7170634,0.47046062,9.710882
1587563011426,-0.6344634,0.5374983,9.707291
1587563011437,-0.5315128,0.5674258,9.872491
1587563011450,-0.49440265,0.78529817,9.922769
1587563011462,-0.48841715,0.90381116,9.80665
1587563011473,-0.92416185,-0.47165772,9.969456
1587563011483,-0.30645782,0.48362875,10.952275
1587563011494,-0.40222588,1.6543933,9.31105
1587563011507,-0.6560113,0.760159,9.648633
1587563011517,-1.0187328,0.17956513,9.91439
1587563011527,-1.0857705,0.22984336,9.604341
1587563011538,-1.2066777,0.39145198,9.109938
1587563011550,-1.3958195,0.36870706,9.643845
1587563011560,-1.7884687,0.90620536,11.161768
1587563011572,-1.6101006,1.3084313,10.305841
1587563011583,-1.4975731,1.2354081,9.734824
1587563011593,-1.3970166,1.0654198,9.514558
1587563011605,-1.2773066,0.533907,9.229648
1587563011615,-1.2605472,0.33399114,9.0476885
1587563011627,-1.1552023,0.12090719,8.870518
1587563011637,-0.9516952,-0.033518825,8.874108
1587563011650,-0.6835446,-0.2645593,8.787917
1587563011660,-0.2693477,-0.82719666,8.8884735
1587563011670,-0.021547815,-1.3215994,9.19134
1587563011681,0.09696517,-1.2677298,9.537302
1587563011693,-0.015562311,-0.59017074,9.876082
1587563011701,-0.4369418,0.016759412,9.977836
1587563011713,-0.89303726,0.25977087,9.640253
1587563011724,-1.2904748,0.44891283,9.2069025
1587563011736,-1.3934253,0.78290397,9.355343
1587563011745,-1.3227965,0.80684596,9.337387
1587563011756,-1.2090719,0.62608373,9.372103
1587563011768,-1.2797008,0.6847417,9.275137
1587563011779,-1.602918,0.7685388,9.927557
1587563011791,-1.4568717,0.9660604,9.397242
1587563011802,-1.0749966,0.4213795,9.939528
1587563011813,-1.2270284,0.6667852,9.783905
1587563011824,-1.5346833,0.92176765,9.671378
1587563011838,-1.8303672,0.9959879,9.204509
1587563011851,-1.8339585,1.0881647,9.233239
1587563011877,-1.3096284,1.033098,9.660604
1587563011898,-1.4221559,1.0941502,9.660604
1587563011911,-1.4041992,1.0151415,9.516952
1587563011922,-1.2665327,0.92057055,9.470264
1587563011926,-1.2413936,1.067814,9.872491
1587563011932,-1.2413936,1.067814,9.872491
1587563011952,-1.5107412,0.9792285,9.631873
1587563011959,-1.3790601,1.0031705,9.858126
1587563011968,-1.1575965,0.9911995,9.652225
1587563011980,-1.0307038,0.9983821,9.710882
1587563012010,-0.4333505,0.8559271,9.79827
1587563012013,-0.4333505,0.8559271,9.79827
1587563012020,-0.49320555,0.8810662,9.785102
1587563012029,-0.6859388,0.8331822,9.7803135
1587563012038,-0.7649474,0.7745243,9.792285
1587563012049,-0.91937345,0.80445176,9.622296
1587563012058,-1.0702082,0.8762778,9.479841
1587563012070,-1.0965444,0.9516952,9.482236
1587563012081,-1.009156,0.9588778,9.537302
1587563012096,-0.7733272,0.7422025,9.746795
1587563012110,-0.7350199,0.7314286,9.800665
1587563012117,-0.7673417,0.7158663,9.79827
1587563012126,-0.7206547,0.78290397,9.740809
1587563012135,-0.63206923,0.80684596,9.634268
1587563012146,-0.62368953,0.8511387,9.56723
1587563012157,-0.62608373,0.90261406,9.610326
1587563012167,-0.6476316,0.9516952,9.744401
1587563012178,-0.7673417,1.0235212,9.652225
1587563012189,-1.0570401,1.1001357,9.291897
1587563012200,-1.3359646,1.0702082,9.446322
1587563012211,-1.3718776,1.2162545,9.463082
1587563012222,-1.34195,1.3227965,9.372103
1587563012234,-1.1599907,1.3084313,9.380483
1587563012243,-1.1599907,1.3084313,9.380483
1587563012254,-0.61291564,1.1791444,9.67856
1587563012266,-0.58897364,1.0773908,9.7240505
1587563012273,-0.50757074,1.0426749,9.745598
1587563012285,-0.46806642,1.0522517,9.694122
1587563012296,-0.5542577,0.9888053,9.707291
1587563012307,-0.6943185,0.9876082,9.680955
1587563012318,-0.80445176,1.0654198,9.609129
1587563012329,-0.8571242,1.0630256,9.592369
1587563012340,-0.8846575,1.0043676,9.690532
1587563012351,-0.7745243,0.93493575,9.799467
1587563012362,-0.6679823,0.8571242,9.859323
1587563012373,-0.60573304,0.7565677,9.896433
1587563012382,-0.5650316,0.6619968,10.032902
1587563012393,-0.5554548,0.61052144,10.26514
1587563012404,-0.6440403,0.7350199,10.399215
1587563012415,-0.7230489,0.7577648,10.178948
1587563012426,-0.8559271,0.830788,10.031705
1587563012437,-0.94451255,0.89782566,9.836577
1587563012450,-0.997185,0.9564836,9.718064
1587563012458,-1.0845734,1.0642227,9.710882
1587563012469,-1.1121067,1.2425907,9.44752
1587563012480,-1.447295,1.5478514,9.659407
1587563012489,-1.3467385,0.79607207,9.710882
1587563012500,-1.4293385,1.0271125,9.874885
1587563012511,-1.3838485,1.1647792,9.781511
1587563012522,-1.1791444,0.9995792,9.425972
1587563012533,-1.079785,0.93254155,9.313444
1587563012544,-0.80684596,0.9744401,9.345766
1587563012555,-0.7134721,0.8415619,9.386468
1587563012566,-0.9804256,0.7398083,9.360131
1587563012577,-0.94451255,0.7769185,9.26556
1587563012588,-0.9768343,0.63087213,9.192537
1587563012597,-0.9780314,0.6440403,9.060856
1587563012608,-0.92296475,0.7038953,8.882488
1587563012620,-0.80086046,0.80325466,8.819042
1587563012632,-0.65242,0.8810662,8.620323
1587563012642,-0.6572084,0.89064306,8.634688
1587563012654,-0.7589619,0.8367735,8.980651
1587563012664,-0.7589619,0.8367735,8.980651
1587563012676,-0.80205756,0.8415619,9.241618
1587563012686,-0.7278373,0.9684546,9.43076
1587563012698,-0.7086837,1.0845734,9.54209
1587563012707,-0.6727707,1.1480197,9.774328
1587563012719,-0.6979098,1.1779473,9.862914
1587563012729,-0.7422025,1.2186487,9.878476
1587563012741,-0.7757214,1.2785037,9.7803135
1587563012751,-0.80445176,1.3108255,9.591172
1587563012763,-0.80325466,1.5275006,9.598354
1587563012773,-0.6811504,1.8267759,9.647436
1587563012784,-0.46926352,2.1428106,9.750386
1587563012814,-0.15682021,2.0721815,10.213664
1587563012822,-0.15682021,2.0721815,10.213664
1587563012838,-0.0047884034,1.9081788,10.348937
1587563012845,0.05746084,1.7932571,10.291476
1587563012857,0.08619126,1.6903064,10.149021
1587563012868,0.059855044,1.6208745,10.0029745
1587563012880,-0.025139118,1.5286977,9.865308
1587563012890,-0.0023942017,1.4628572,9.759963
1587563012902,0.107739076,1.4185646,9.719262
1587563012911,0.415394,1.8195933,9.296685
1587563012923,0.22984336,1.2042835,9.818622
1587563012934,0.4381389,1.2270284,9.770737
1587563012944,0.6380547,1.246182,9.898827
1587563012973,0.59495914,1.3874398,9.543288
1587563012984,0.017956512,1.5801731,9.17099
1587563012996,-0.075417355,1.3359646,9.053674
1587563012999,-0.075417355,1.3359646,9.053674
1587563013006,0.48123455,1.389834,9.016563
1587563013016,0.6607997,1.7286136,8.773552
1587563013026,0.90021986,2.0099323,8.555679
1587563013036,1.0115502,2.087744,8.611943
1587563013046,0.997185,1.982399,8.750807
1587563013058,0.9552865,1.8626889,8.781932
1587563013068,0.90500826,1.8243817,8.735245
1587563013080,0.8631097,1.8411411,8.791509
1587563013090,0.80086046,1.8842367,8.805874
1587563013102,0.6943185,1.9309237,8.844181
1587563013112,0.48961425,1.9440918,8.89446
1587563013124,0.21428105,2.0099323,9.090784
1587563013134,0.15442601,2.030283,9.066842
1587563013146,0.062249243,2.0506337,9.024943
1587563013156,-0.0023942017,2.0853498,8.983045
1587563013170,-0.15203181,2.1188686,8.834604
1587563013178,-0.19752164,2.160767,8.808268
1587563013189,-0.20829555,2.2421699,8.743625
1587563013201,-0.21428105,2.3786395,8.7951
1587563013211,-0.18076223,2.3127987,9.064447
1587563013222,0.2896984,3.1962593,10.992977
1587563013234,-0.4225766,1.1408371,8.4587145
1587563013244,-0.044292733,0.9516952,9.973047
1587563013256,-0.06464344,1.6759412,9.41879
1587563013265,-0.037110128,1.9416976,8.9842415
1587563013278,-0.016759412,1.7717092,9.38168
1587563013287,-0.20470424,1.508347,9.372103
1587563013298,-0.17717093,1.1851299,9.551667
1587563013310,0.20111294,0.9816227,9.901221
1587563013322,0.4249708,1.1887212,10.372879
1587563013331,0.8619126,1.2749124,10.815806
1587563013342,0.82360536,1.3204023,10.9834
1587563013354,0.44891283,0.93852705,11.489774
1587563013366,0.15322891,0.7206547,11.641806
1587563013377,-0.08619126,0.44651863,11.973403
1587563013387,-0.16160862,0.44651863,13.2351465
1587563013399,-0.18195933,-0.5434838,13.514071
1587563013410,-0.110133275,-0.9900024,13.910312
1587563013420,0.016759412,-1.376666,14.094666
1587563013433,0.09696517,-1.7226281,14.219164
1587563013443,0.19871874,-1.9931729,14.271836
1587563013454,0.22984336,-2.088941,14.247894
1587563013465,0.20350714,-2.1559787,13.806164
1587563013478,0.1412579,-2.1428106,13.505692
1587563013493,0.061052144,-2.0638018,13.050794
1587563013504,-0.02873042,-1.9967642,12.624625
1587563013510,-0.08020575,-1.8447324,12.051214
1587563013523,-0.15801731,-1.6723499,11.548432
1587563013536,-0.32321724,-1.4185646,10.409989
1587563013545,-0.37948096,-1.1563994,10.035296
1587563013555,-0.47405192,-0.8690952,9.652225
1587563013564,-0.7134721,-0.7026982,9.317036
1587563013574,-1.0103531,-0.59136784,8.996213
1587563013586,-1.2521675,-0.4201824,8.640674
1587563013598,-1.3694834,-0.24420857,8.463503
1587563013605,-1.400608,-0.108936176,8.301894
1587563013616,-1.2808979,-0.01316811,8.10557
1587563013626,-0.8774749,0.18195933,7.837419
1587563013637,-0.6775591,0.20470424,7.8158712
1587563013648,-0.46567222,0.16519992,7.8158712
1587563013659,-0.39624038,0.1436521,7.6949644
1587563013671,-0.3842694,0.08379706,7.6243353
1587563013684,-0.4321534,0.05267244,7.657854
1587563013697,-0.48961425,0.007182605,7.7548194
1587563013707,-0.46208093,0.08499416,7.723695
1587563013719,-0.3890578,0.19393034,7.833828
1587563013730,-0.35314476,0.22984336,7.7368627
1587563013740,-0.34237084,0.24540567,7.615956
1587563013752,-0.32680854,0.260968,7.5309615
1587563013763,-0.1604115,0.38187516,7.4866686
1587563013773,-0.09935937,0.5303157,7.574057
1587563013785,-0.11731588,0.6440403,7.5572977
1587563013795,-0.17836803,0.81043726,7.4495587
1587563013806,-0.12808979,0.91578215,7.503428
1587563013818,-0.019153614,1.0259154,7.6387005
1587563013825,0.04189853,1.091756,7.642292
1587563013837,0.05626374,1.0737995,7.69257
1587563013848,0.12808979,1.127669,7.9391727
1587563013859,0.1592144,1.2042835,8.09719
1587563013871,0.06344634,1.0893618,8.426393
1587563013882,0.08499416,1.0869676,8.743625
1587563013893,0.10295067,1.4041992,9.129091
1587563013905,0.074220255,1.5514427,9.235633
1587563013915,-0.06584055,1.6424223,9.338584
1587563013928,-0.35194764,1.7345991,9.470264
1587563013934,-0.35194764,1.7345991,9.470264
1587563013946,-0.9600749,1.8890251,9.793482
1587563013959,-1.2090719,1.9979613,10.043676
1587563013969,-1.4820108,2.066196,10.295067
1587563013981,-1.6891093,2.0398598,10.500969
1587563013992,-1.8004397,2.0362685,10.710462
1587563014002,-1.7585411,2.1260512,10.875661
1587563014015,-1.7441759,2.385822,10.876859
1587563014025,-1.7501614,2.292448,10.95467
1587563014036,-1.6927006,2.2062569,11.129447
1587563014046,-1.5526398,2.1308396,11.51611
1587563014058,-1.483208,1.8567034,12.00333
1587563014068,-1.3934253,1.3754689,12.587516
1587563014080,-1.2916719,0.8475474,13.18846
1587563014092,-1.1372458,0.19153613,13.922283
1587563014102,-1.0307038,-0.095768064,13.842077
1587563014112,-1.1599907,-0.11252748,13.820529
1587563014123,-1.2473791,-0.06943185,13.417107
1587563014134,-1.3215994,-0.11731588,12.780249
1587563014146,-0.8810662,0.08499416,12.034455
1587563014153,-0.8810662,0.08499416,12.034455
1587563014164,-0.034715924,0.059855044,11.280281
1587563014176,0.3842694,-0.0035913025,11.134235
1587563014188,0.78769237,-0.10055647,11.215638
1587563014200,1.1480197,-0.14604631,11.423933
1587563014210,1.3599066,-0.2825158,11.480197
1587563014222,1.5143325,-0.36391866,11.47062
1587563014234,1.5801731,-0.45370123,11.337742
1587563014246,1.6651673,-0.50876784,10.620679
1587563014256,1.8303672,-0.46208093,10.176555
1587563014268,1.9416976,-0.36870706,9.660604
1587563014278,1.8950106,-0.23104046,9.172187
1587563014290,1.70946,-0.04189853,8.665813
1587563014300,1.4580688,0.16639702,8.24204
1587563014312,1.283292,0.4249708,7.6841903
1587563014322,1.1049241,0.79607207,6.706159
1587563014334,1.0007763,1.0881647,6.009446
1587563014343,1.0007763,1.0881647,6.009446
1587563014354,0.8798691,1.3239936,5.649119
1587563014366,0.78888947,1.5107412,5.4743423
1587563014373,0.78888947,1.5107412,5.4743423
1587563014385,0.7386112,1.5873557,5.4384294
1587563014398,0.8571242,1.6101006,5.6227827
1587563014409,0.9588778,1.5095441,5.911284
1587563014420,0.94092125,1.4401124,6.0441623
1587563014429,0.8774749,1.3251907,6.1566896
1587563014441,0.8690952,1.3754689,6.215348
1587563014453,0.8702923,1.4640543,6.2847795
1587563014462,0.82240826,1.5275006,6.363788
1587563014475,0.6356605,1.6795325,6.707356
1587563014481,0.6356605,1.6795325,6.707356
1587563014495,0.4249708,1.7776948,7.237672
1587563014505,0.46088383,1.8423382,7.7572136
1587563014517,0.4381389,1.9644425,8.027759
1587563014527,0.3184288,2.0027497,8.256405
1587563014539,0.16639702,2.2876596,8.7292595
1587563014550,0.0035913025,2.4241292,8.977059
1587563014560,-0.11731588,2.4636335,9.184157
1587563014572,-0.24660277,2.516306,9.5732155
1587563014583,-0.37349546,2.5821466,9.976639
1587563014594,-0.5758055,2.4839842,10.670957
1587563014603,-0.5758055,2.4839842,10.670957
1587563014615,-0.62608373,2.1260512,11.076775
1587563014626,-0.44891283,1.9273324,11.195287
1587563014637,-0.31483752,1.70946,11.33894
1587563014649,-0.19393034,1.6675615,11.489774
1587563014658,-0.06464344,1.8171991,11.662156
1587563014669,-0.06823475,1.8231846,12.084733
1587563014680,-0.18914193,1.7226281,12.495338
1587563014692,-0.37229836,1.8231846,12.522872
1587563014699,-0.7505822,1.804031,12.672509
1587563014710,-1.2126632,1.5251064,12.909535
1587563014721,-1.6723499,0.973243,13.345281
1587563014732,-1.9919758,0.17956513,13.705607
1587563014743,-2.0721815,-0.79846627,13.843274
1587563014754,-1.2964603,-2.327164,13.357251
1587563014765,-0.79128367,-2.7138276,12.54442
1587563014776,-0.7697359,-2.4768016,11.86327
1587563014787,-0.8499416,-2.2469583,10.929531
1587563014799,-0.8619126,-2.0099323,10.141838
1587563014807,-0.93014735,-1.9871874,9.635465
1587563014820,-0.5638345,-1.198298,9.5385
1587563014830,-0.65242,-0.5291186,8.690952
1587563014843,-0.6919243,-0.82001406,8.734048
1587563014853,-0.81043726,-0.830788,8.579621
1587563014864,-0.94810385,-0.48841715,8.468291
1587563014874,-0.9672575,-0.40102878,8.7053175
1587563014886,-0.81402856,-0.31364042,8.7292595
1587563014896,-0.61530983,-0.24660277,8.676587
1587563014909,-0.36511576,-0.107739076,8.711303
1587563014915,0.0011971008,0.093373865,8.728063
1587563014928,0.33997664,0.2621651,8.36175
1587563014940,0.48123455,0.36631286,8.273164
1587563014950,0.7015011,0.2789245,8.479065
1587563014962,0.82121116,0.2645593,8.511387
1587563014974,0.62129533,0.31244332,8.607155
1587563014984,0.3196259,0.05267244,8.583213
1587563014997,0.7266402,0.49679685,8.196549
1587563015013,1.0342951,0.50038815,8.169016
1587563015023,0.94810385,0.90979666,8.117541
1587563015034,0.4189853,1.3563153,8.069656
1587563015046,0.39384618,1.1444284,8.463503
1587563015055,0.011971008,1.0247183,8.631097
1587563015066,-0.48602295,1.3850456,8.901642
1587563015077,-0.5566519,1.8818425,8.796297
1587563015088,-0.38067806,1.9440918,8.655039
1587563015099,-0.4345476,1.8315643,8.41921
1587563015111,-0.37948096,1.8387469,8.514978
1587563015124,-0.4309563,1.5825673,8.844181
1587563015134,-0.29927522,1.460463,9.13388
1587563015147,-0.008379706,1.4377182,9.045294
1587563015157,0.2837129,1.4951789,9.121908
1587563015167,0.5363012,1.42455,9.618706
1587563015180,0.830788,1.541866,9.628283
1587563015191,0.93134445,1.4987702,9.437943
1587563015201,0.9672575,1.352724,9.3733
1587563015211,1.2306197,1.4389153,9.32781
1587563015224,1.3395559,0.8678981,10.189722
1587563015234,1.1264719,1.1061212,10.856507
1587563015245,1.0007763,1.1647792,11.543644
1587563015257,0.91458505,1.1228806,11.457452
1587563015267,0.90381116,1.1240777,11.314998
1587563015278,0.79248077,1.0630256,10.952275
1587563015289,0.7493851,0.78529817,10.981006
1587563015299,1.1216835,0.51235914,11.015722
1587563015313,1.4676456,0.19033903,11.452663
1587563015325,2.171541,-0.62728083,13.772645
1587563015334,2.1859062,-1.2533646,15.047558
1587563015344,1.6807296,-1.7178397,15.364789
1587563015353,1.6807296,-1.7178397,15.364789
1587563015369,0.37828386,-2.098518,13.955802
1587563015376,-0.11252748,-2.1021092,13.101071
1587563015387,-0.51235914,-1.8267759,12.35887
1587563015399,-0.8690952,-1.5526398,11.856087
1587563015408,-1.0510546,-1.2689269,11.244369
1587563015419,-1.1133038,-0.81163436,10.448297
1587563015430,-0.9684546,-0.40222588,9.619903
1587563015443,-0.81043726,-0.17238252,8.9842415
1587563015454,-0.1328782,-0.21547815,8.7532015
1587563015464,0.34237084,-0.33039984,9.1350765
1587563015477,0.6548142,-0.51355624,9.427169
1587563015488,0.7182605,-0.59017074,9.269152
1587563015498,0.58657944,-0.5734113,9.003395
1587563015508,0.39743748,-0.61890113,8.902839
1587563015520,0.23104046,-0.557849,8.608353
1587563015530,0.08619126,-0.29448682,8.275558
1587563015543,-0.055066638,-0.08140286,8.005013
1587563015554,-0.05626374,0.24540567,7.764396
1587563015564,-0.062249243,0.35434186,7.501034
1587563015574,-0.037110128,0.44771573,7.3729444
1587563015587,0.05865794,0.62129533,7.33344
1587563015597,0.17717093,0.79487497,7.4112515
1587563015607,0.30765492,0.9876082,7.575254
1587563015619,0.50637364,1.1731589,7.6375036
1587563015630,0.51116204,1.3060371,7.776367
1587563015639,0.33638534,1.3024458,7.9942393
1587563015651,-0.14844051,1.0773908,8.492233
1587563015664,-0.075417355,1.1504139,8.477868
1587563015673,-0.30885202,1.1959038,8.950723
1587563015684,-0.60333884,0.79248077,9.411607
1587563015693,-0.60333884,0.79248077,9.411607
1587563015705,-0.4345476,0.48722005,9.925163
1587563015716,-0.29688102,0.4309563,10.224439
1587563015727,-0.4225766,0.36511576,10.540473
1587563015739,-0.7182605,0.3172317,10.802638
1587563015748,-0.8655039,0.20829555,10.82658
1587563015759,-0.8475474,0.19752164,11.07438
1587563015770,-0.7529764,0.24061728,11.312603
1587563015781,-0.6380547,0.34476504,11.319786
1587563015792,-0.5722142,0.36870706,11.177331
1587563015801,-0.5494693,0.25857377,11.067198
1587563015812,-0.6739678,0.14724341,11.124659
1587563015823,-0.7649474,-0.06584055,11.234792
1587563015834,-0.2633622,-0.2789245,11.956643
1587563015844,-0.24899697,-0.4429273,12.648567
1587563015855,-0.25977087,-0.8822633,13.069947
1587563015866,-0.39983168,-0.7721301,12.937069
1587563015878,-0.80804306,-0.3866636,12.747927
1587563015890,-1.1611878,-0.2861071,12.624625
1587563015904,-1.6759412,-0.23343466,12.397177
1587563015908,-2.0733786,-0.29209262,11.560403
1587563015923,-1.8028339,-0.62368953,11.311406
1587563015937,-0.47644615,-0.91697925,11.235989
1587563015947,-0.094570965,-1.0259154,11.1893015
1587563015956,0.25258827,-1.1971009,11.136629
1587563015966,0.5315128,-1.2114661,10.95467
1587563015978,0.6356605,-1.0271125,10.581175
1587563015987,0.51116204,-0.8631097,10.121488
1587563015998,0.34955344,-0.7098808,9.683349
1587563016009,0.19153613,-0.5805939,9.297882
1587563016018,0.17956513,-0.4381389,8.8645315
1587563016030,0.12210429,-0.2825158,8.540117
1587563016041,0.029927522,-0.1328782,8.148665
1587563016054,0.12210429,-0.08499416,7.717709
1587563016064,0.30765492,-0.02633622,7.681796
1587563016075,0.45968673,0.047884032,7.7201033
1587563016087,0.59017074,0.14604631,7.827842
1587563016097,0.62728083,0.2885013,7.7608047
1587563016107,0.5793968,0.5291186,7.6363063
1587563016119,0.5267244,0.7194576,7.5213847
1587563016127,0.50876784,0.90261406,7.350199
1587563016139,0.5351041,0.9923966,7.2987237
1587563016151,0.62368953,1.033098,7.1107793
1587563016162,0.6955156,1.067814,7.1969705
1587563016172,0.82121116,1.043872,7.3549876
1587563016185,1.1073183,0.9840169,7.926005
1587563016195,1.0594343,1.0127473,7.955932
1587563016205,0.9720459,1.0498575,7.93199
1587563016217,0.8798691,1.1168951,7.854179
1587563016229,0.736217,1.2078748,7.949947
1587563016237,0.6356605,1.292869,7.905654
1587563016248,0.5542577,1.4413095,7.693767
1587563016260,0.44771573,1.5861586,7.77517
1587563016271,0.35793316,1.614889,7.9248075
1587563016283,0.2908955,1.6460136,8.12592
1587563016293,0.22864626,1.6555905,8.433576
1587563016305,0.15801731,1.6950948,8.559271
1587563016314,0.16759412,1.7154455,8.522161
1587563016325,0.24420857,1.7824832,8.546103
1587563016337,0.4213795,1.8495208,8.75799
1587563016344,0.5566519,1.8327614,8.908825
1587563016355,0.5530606,1.9129672,8.890868
1587563016366,0.6512229,1.9800048,9.093178
1587563016378,0.7625532,1.9500773,9.489418
1587563016389,0.35913026,1.472434,9.901221
1587563016402,0.4177882,1.4413095,10.143036
1587563016413,0.37349546,1.2880806,10.426748
1587563016424,0.2657564,1.0893618,11.279084
1587563016433,0.2657564,1.0893618,11.279084
1587563016445,0.15442601,0.8343793,11.629835
1587563016452,0.15442601,0.8343793,11.629835
1587563016464,0.3878607,0.6464345,12.247539
1587563016475,0.48123455,0.4225766,12.513295
1587563016487,0.5327099,0.05746084,12.788629
1587563016499,0.6835446,-0.33758244,13.184869
1587563016508,0.7493851,-0.60573304,13.613431
1587563016520,0.724246,-0.92176765,13.830106
1587563016532,0.60932434,-1.2210429,13.858836
1587563016542,0.46447513,-1.423353,13.773843
1587563016556,0.12449849,-1.4772224,13.043611
1587563016561,0.12449849,-1.4772224,13.043611
1587563016572,-0.10295067,-1.3910311,12.585121
1587563016584,0.074220255,-1.0247183,11.87524
1587563016595,0.6871359,-0.58418524,11.176133
1587563016607,0.90021986,-0.5291186,10.784681
1587563016619,0.9947908,-0.545878,10.405201
1587563016629,1.1097125,-0.60453594,10.139444
1587563016640,1.1887212,-0.6584055,9.903615
1587563016652,1.2210429,-0.7314286,9.648633
1587563016662,1.1994951,-0.81642276,9.39365
1587563016675,1.1671734,-0.7577648,8.831013
1587563016686,1.2054806,-0.7565677,8.404845
1587563016696,1.13964,-0.62009823,8.090008
1587563016706,1.0941502,-0.45729253,7.747637
1587563016719,1.0163386,-0.34596214,7.6111674
1587563016729,1.0103531,-0.16879122,7.439982
1587563016740,1.0342951,0.04189853,7.1873937
1587563016750,0.9564836,0.24420857,7.0724716
1587563016763,0.8439561,0.38187516,6.9767036
1587563016773,0.7290344,0.5542577,6.882133
1587563016786,0.5674258,0.9900024,6.703765
1587563016797,0.40701428,1.2282255,6.7767878
1587563016807,0.41180268,1.447295,6.8462195
1587563016818,0.5805939,1.5682021,6.9491706
1587563016828,0.62009823,1.7717092,7.0712748
1587563016846,0.62967503,1.8590976,7.302315
1587563016855,0.6380547,1.8423382,7.6015906
1587563016866,0.7038953,1.7286136,7.795521
1587563016876,0.7697359,1.6927006,7.9702973
1587563016886,0.80804306,1.567005,8.051701
1587563016897,0.92775315,1.460463,8.172607
1587563016908,1.1312603,1.3359646,8.1558485
1587563016920,1.055843,1.2485762,8.479065
1587563016929,0.9959879,1.2234371,9.035717
1587563016940,1.1085154,1.1611878,9.609129
1587563016951,1.1300632,1.0295067,10.199299
1587563016961,0.93493575,0.8810662,10.684125
1587563016972,0.7278373,0.6991069,10.96305
1587563016984,0.5590461,0.5758055,11.230003
1587563016996,0.45489833,0.5363012,11.638214
1587563017004,0.45609543,0.46208093,11.833342
1587563017016,0.47285482,0.4405331,11.965023
1587563017029,0.40222588,0.2837129,12.040441
1587563017039,0.32800564,0.095768064,12.044032
1587563017050,0.2861071,0.2896984,12.276269
1587563017060,0.051475335,0.18674773,12.277467
1587563017074,-0.025139118,0.41180268,12.206838
1587563017084,-0.22146365,0.5422867,12.218808
1587563017094,-0.60214174,0.40821138,12.083536
1587563017104,-0.82240826,0.047884032,12.081141
1587563017118,-1.0702082,-0.44891283,12.135012
1587563017126,-1.1300632,-0.8702923,12.289437
1587563017139,-1.1707647,-1.3012487,12.397177
1587563017151,-1.1444284,-1.8507179,12.458228
1587563017160,-1.0965444,-2.2661119,12.567164
1587563017170,-1.0426749,-2.4827871,12.521675
1587563017182,-0.9744401,-2.5617957,12.326548
1587563017191,-0.9696517,-2.5306711,11.954249
1587563017203,-1.0235212,-2.3594859,11.628637
1587563017214,-1.2366052,-1.8567034,10.8182
1587563017224,-1.2366052,-1.8567034,10.8182
1587563017236,-1.2210429,-1.508347,10.315418
1587563017248,-1.0845734,-1.365892,10.073604
1587563017257,-0.91458505,-1.2198458,9.830592
1587563017269,-0.7697359,-1.0510546,9.504981
1587563017278,-0.6596026,-0.6596026,8.6813755
1587563017289,-0.5494693,-0.4165911,8.2995
1587563017301,-0.49919105,-0.12449849,7.9391727
1587563017313,-0.51595044,0.1340753,7.491457
1587563017324,-0.37469256,0.6596026,6.8486137
1587563017334,-0.37469256,0.6596026,6.8486137
1587563017346,-0.077811554,1.0546459,6.599617
1587563017356,0.02633622,1.198298,6.5325794
1587563017368,0.03232172,1.2808979,6.4188547
1587563017379,0.07182605,1.2797008,6.4032927
1587563017389,0.17477672,1.3323733,6.5457473
1587563017402,0.20470424,1.3443443,6.7013707
1587563017413,0.2753332,1.3922282,6.8545995
1587563017430,0.19632454,1.365892,7.111976
1587563017441,0.16998832,1.3311762,7.2221093
1587563017451,0.1352724,1.2665327,7.357382
1587563017463,0.142455,1.2210429,7.49026
1587563017472,0.16280572,1.210269,7.678205
1587563017484,0.29927522,1.292869,8.171411
1587563017496,0.22266077,1.3012487,8.226477
1587563017505,0.31124622,1.0977415,8.562862
1587563017517,0.49559975,1.1168951,8.7951
1587563017528,0.7589619,1.0642227,9.065644
1587563017539,1.0486604,1.0223241,9.320627
1587563017552,1.3670892,1.0462662,9.629479
1587563017559,1.5095441,0.9947908,10.036493
1587563017572,1.5107412,0.81761986,10.419566
1587563017583,1.483208,0.6368576,10.85531
1587563017593,1.3072342,0.44771573,11.224017
1587563017606,0.8762778,0.36272156,11.662156
1587563017616,0.5793968,0.38307226,11.8094
1587563017626,0.46686932,0.49440265,11.841722
1587563017638,0.5554548,0.8846575,11.953052
1587563017650,0.664391,1.0618285,12.2224
1587563017661,0.90381116,1.0450691,12.49893
1587563017672,1.1085154,0.8822633,12.837709
1587563017683,1.2473791,0.33758244,13.223176
1587563017694,1.376666,-0.017956512,13.595474
1587563017704,1.353921,-0.3172317,13.822924
1587563017718,1.0666169,-0.7374141,13.721169
1587563017728,0.81163436,-0.7290344,13.499706
1587563017738,0.6452374,-0.272939,12.722788
1587563017748,0.8846575,0.088585466,12.4702
1587563017763,1.1133038,0.3184288,12.067974
1587563017774,1.2473791,0.41060558,11.592725
1587563017783,1.4987702,0.4369418,10.749966
1587563017794,1.5239093,0.2717419,10.280702
1587563017806,1.4221559,0.09935937,9.907207
1587563017817,1.3479356,-0.062249243,9.630676
1587563017828,1.2545617,-0.12808979,9.43914
1587563017840,1.2138603,-0.14724341,9.180567
1587563017849,1.1791444,-0.11851298,8.814254
1587563017861,1.1432313,-0.1364695,8.340201
1587563017872,1.0833763,-0.02873042,8.007407
1587563017884,1.0522517,0.21068975,7.097611
1587563017891,1.0522517,0.21068975,7.097611
1587563017902,1.0714053,0.2693477,6.671443
1587563017913,1.1001357,0.38067806,6.5002575
1587563017924,1.2868834,0.79367787,6.4619503
1587563017936,1.3371617,0.8870517,6.3482256
1587563017948,1.3563153,1.0366893,6.206968
1587563017959,1.3156139,1.2988545,5.9723363
1587563017982,1.3299791,1.5586253,6.0968347
1587563017989,1.292869,1.6903064,6.126762
1587563017998,1.2066777,1.827973,6.279991
1587563018011,1.1085154,1.9165585,6.5469446
1587563018023,1.1575965,1.8590976,7.264008
1587563018032,1.1575965,1.8590976,7.264008
1587563018044,1.3323733,1.6112977,8.00621
1587563018052,1.3323733,1.6112977,8.00621
1587563018063,1.2425907,1.0726024,9.020155
1587563018074,1.2054806,0.89184016,9.685743
1587563018085,1.3491327,0.6380547,10.365696
1587563018097,1.4269443,0.46088383,10.857705
1587563018108,1.4185646,0.39743748,11.195287
1587563018117,1.4077905,0.4309563,11.340137
1587563018128,1.3730747,0.48243165,11.355699
1587563018139,1.3251907,0.62009823,11.385626
1587563018149,1.3503298,0.79726917,11.374852
1587563018160,1.3718776,0.89184016,11.480197
1587563018171,1.2761095,0.80804306,11.62744
1587563018182,1.0378864,0.6500258,11.832145
1587563018195,0.6751649,0.46088383,11.953052
1587563018207,0.46327803,0.52073884,11.858481
1587563018217,0.48961425,0.6967127,11.939884
1587563018230,0.4357447,1.1695676,11.933898
1587563018240,0.17357962,1.2952632,11.852495
1587563018258,-0.07062895,1.2545617,11.909956
1587563018267,-0.3842694,0.7338228,11.888409
1587563018283,-0.29448682,0.17597382,11.930307
1587563018291,-0.14963761,-0.34715924,12.264298
1587563018298,0.108936176,-1.0115502,12.734758
1587563018307,0.19752164,-1.4987702,13.18846
1587563018316,0.02633622,-1.863886,13.205219
1587563018327,-0.24061728,-2.099715,12.765883
1587563018336,-0.5398925,-2.007538,12.209231
1587563018347,-0.81522566,-1.6675615,11.46224
1587563018358,-1.2605472,-1.4460979,10.636241
1587563018369,-1.6089035,-1.2174516,9.9550905
1587563018380,-1.8842367,-1.0319009,9.357738
1587563018391,-2.007538,-0.93972415,8.938752
1587563018402,-1.9357121,-0.94930094,8.702923
1587563018413,-1.8722657,-0.9708488,8.455123
1587563018424,-1.0402806,-1.1420342,8.335413
1587563018435,-0.7493851,-1.1827357,8.214506
1587563018444,-0.5231331,-1.1180922,8.085219
1587563018455,-0.36152446,-1.021127,7.973889
1587563018466,-0.21188685,-0.92535895,7.669825
1587563018477,-0.12689269,-0.7410054,7.466318
1587563018488,-0.038307227,-0.5315128,7.225701
1587563018499,0.08020575,-0.2717419,6.8486137
1587563018510,0.30765492,-0.031124622,6.707356
1587563018521,0.48961425,0.10414778,6.6247563
1587563018531,0.61770403,0.23822308,6.697779
1587563018542,0.61411273,0.35075054,6.7827735
1587563018551,0.51595044,0.40102878,6.8007298
1587563018563,0.39264908,0.44771573,6.9012866
1587563018573,0.32680854,0.6895301,7.418434
1587563018585,0.37828386,0.8379706,7.7548194
1587563018596,0.35434186,0.8810662,7.9272017
1587563018607,0.38307226,0.866701,8.14268
1587563018617,0.533907,0.94810385,8.474277
1587563018631,0.676362,1.0582372,8.822633
1587563018640,0.7254431,1.0582372,9.101558
1587563018651,0.9947908,0.9756372,9.782708
1587563018660,1.1552023,1.0522517,10.038888
1587563018670,1.3251907,1.1456255,10.189722
1587563018682,1.459266,1.2605472,10.328587
1587563018693,1.7322049,1.5071499,10.74398
1587563018704,1.6843209,1.5981296,11.027693
1587563018715,1.5993267,1.4736311,11.21444
1587563018726,1.5406688,1.3084313,11.687296
1587563018736,1.30484,1.1288661,12.196063
1587563018747,0.9504981,0.82480246,12.531252
1587563018758,0.7469909,0.7278373,12.76708
1587563018767,0.5758055,0.8391677,12.8772135
1587563018778,0.35793316,0.60932434,12.700043
1587563018789,0.40940848,0.6967127,12.248735
1587563018800,0.6715736,0.9540894,11.811794
1587563018811,1.2952632,0.9923966,11.707646
1587563018822,1.8483237,1.0295067,11.639412
1587563018833,2.3918076,0.9564836,11.567586
1587563018844,3.1040826,0.5351041,11.92911
1587563018855,3.1663318,0.32561144,12.109872
1587563018866,3.0801406,0.01436521,12.258312
1587563018874,2.4791958,-0.36391866,11.978191
1587563018885,2.1200657,-0.4429273,11.638214
1587563018896,1.8303672,-0.4429273,11.522096
1587563018907,1.6292542,-0.45609543,11.354502
1587563018918,1.5167267,-0.51116204,11.153389
1587563018929,1.4449008,-0.5686229,10.813412
1587563018940,1.3934253,-0.6955156,10.404003
1587563018950,1.364695,-0.78170687,10.016143
1587563018961,1.3503298,-0.80804306,9.702502
1587563018972,1.3156139,-0.8511387,9.399636
1587563018981,1.3024458,-0.8487445,9.120711
1587563018992,1.2892777,-0.80924016,8.853758
1587563019004,1.376666,-0.80205756,8.234857
1587563019014,1.4987702,-0.65242,7.893683
1587563019025,1.5825673,-0.50038815,7.422025
1587563019036,1.555034,-0.3854665,6.9611416
1587563019047,1.5753847,-0.24420857,6.6271505
1587563019058,1.5693992,-0.045489833,6.4344172
1587563019069,1.5059528,0.1328782,6.256049
1587563019080,1.411382,0.2873042,6.101623
1587563019088,1.30484,0.50757074,6.0250087
1587563019100,1.1923125,0.700304,5.957971
1587563019111,1.1540052,1.0474633,5.943606
1587563019122,1.1420342,1.198298,6.0489507
1587563019133,1.1121067,1.3299791,6.135142
1587563019144,1.1611878,1.6065093,6.5828576
1587563019155,1.1719618,1.7465701,6.9862804
1587563019165,1.1252748,1.7405846,7.3286514
1587563019176,1.115698,1.6412252,7.5968018
1587563019187,1.1408371,1.5562311,7.997831
1587563019196,1.1935096,1.4748282,8.41921
1587563019207,1.2976574,1.3455414,8.917204
1587563019218,1.3335704,1.1994951,9.372103
1587563019229,1.3814543,0.9983821,9.643845
1587563019240,1.4700398,0.8726865,9.93474
1587563019251,1.5933412,0.8487445,10.25676
1587563019262,1.6711528,0.8283938,10.530896
1587563019273,1.6962919,0.89782566,11.125855
1587563019284,1.6472107,0.8714894,11.3880205
1587563019295,1.6304513,0.6787562,11.5616
1587563019304,1.6340426,0.36870706,11.769896
1587563019315,1.7286136,0.095768064,11.98298
1587563019326,1.9572599,0.04189853,12.004527
1587563019337,1.9895816,-0.1364695,12.154165
1587563019347,1.8195933,0.037110128,11.748347
1587563019358,1.6448165,0.18195933,11.477803
1587563019369,1.471237,0.29807812,11.326968
1587563019380,1.234211,0.41180268,11.048044
1587563019391,1.2306197,0.23822308,10.923545
1587563019401,1.5346833,-0.02873042,11.153389
1587563019412,1.9740193,-0.40222588,11.693281
1587563019423,2.304419,-0.90859956,12.277467
1587563019435,2.2062569,-1.8195933,12.983756
1587563019445,1.839944,-1.899799,12.908339
1587563019458,1.2234371,-1.7872716,12.367249
1587563019468,0.50757074,-1.6484078,11.803414
1587563019478,-0.25258827,-1.4568717,11.233594
1587563019490,-0.90021986,-1.2605472,10.635044
1587563019500,-1.2797008,-1.174356,10.043676
1587563019513,-1.3599066,-1.1623849,9.640253
1587563019520,-1.1875241,-1.1971009,9.576807
1587563019537,-0.8367735,-1.5119383,9.582792
1587563019545,-0.6500258,-1.661576,9.746795
1587563019556,-0.29209262,-1.5382746,9.921572
1587563019566,-0.22625206,-1.4700398,9.696517
1587563019576,-0.20829555,-1.2868834,9.3026705
1587563019588,-0.11731588,-1.0127473,8.913613
1587563019600,-0.03232172,-0.760159,8.546103
1587563019610,-0.07182605,-0.5662287,8.12233
1587563019620,-0.108936176,-0.40821138,7.8170686
1587563019631,-0.023942016,-0.23223756,7.690176
1587563019643,0.015562311,-0.11372458,7.657854
1587563019652,0.03232172,-0.11611878,7.7787614
1587563019664,-0.07062895,-0.092176765,7.7799582
1587563019675,-0.06943185,-0.019153614,7.7584105
1587563019687,-0.04309563,0.12569559,7.7105265
1587563019697,0.053869538,0.23463176,7.5800424
1587563019711,0.15442601,0.35913026,7.4723034
1587563019721,0.2681506,0.45370123,7.4208283
1587563019731,0.2873042,0.5363012,7.4962454
1587563019744,0.31483752,0.58418524,7.595605
1587563019754,0.2789245,0.5590461,7.801506
1587563019764,0.15562311,0.5781997,8.042124
1587563019776,-0.021547815,0.5279215,8.51019
1587563019786,-0.053869538,0.48123455,8.987833
1587563019798,-0.02873042,0.5386954,9.129091
1587563019808,0.09696517,0.5374983,9.221268
1587563019820,0.34955344,0.5626374,9.489418
1587563019831,0.6727707,0.6967127,9.727641
1587563019841,0.92655605,0.736217,10.108319
1587563019854,1.1097125,0.60812724,10.475829
1587563019864,1.1994951,0.51475334,10.885238
1587563019874,1.0462662,0.1400608,11.8896055
1587563019886,0.8655039,-0.09696517,12.376825
1587563019902,0.8738836,-0.08259996,12.562376
1587563019921,0.545878,0.16519992,12.616246
1587563019928,0.48722005,0.36990416,12.240356
1587563019937,0.7194576,0.5746084,11.979388
1587563019947,1.1324574,0.7230489,12.040441
1587563019956,1.3455414,0.82001406,12.02009
1587563019969,1.5011644,0.50278234,11.967417
1587563019978,1.7046716,0.1412579,11.971008
1587563019990,1.8411411,-0.12569559,12.121843
1587563020001,1.99437,-0.33279404,12.178107
1587563020012,2.0757728,-0.49081135,12.187684
1587563020024,2.088941,-0.39145198,11.613075
1587563020033,2.088941,-0.39145198,11.613075
1587563020044,2.0015526,-0.1316811,10.760739
1587563020055,1.8710686,-0.008379706,10.427945
1587563020067,1.7908629,0.107739076,10.040085
1587563020075,1.6915035,0.010773907,9.7719345
1587563020087,1.6472107,-0.1412579,9.651027
1587563020099,1.6304513,-0.3196259,9.643845
1587563020109,1.6412252,-0.5231331,9.690532
1587563020122,1.5873557,-0.6572084,9.750386
1587563020132,1.5526398,-0.79726917,9.610326
1587563020148,1.4688427,-0.7110779,8.987833
1587563020159,1.4293385,-0.5494693,8.497022
1587563020168,1.3946224,-0.31124622,8.008605
1587563020177,1.3982137,-0.047884032,7.547721
1587563020190,1.3670892,0.1316811,7.1311297
1587563020200,1.376666,0.34237084,6.766014
1587563020212,1.3682863,0.51235914,6.578069
1587563020222,1.4544775,0.7350199,6.4068837
1587563020241,1.3108255,0.9888053,6.30513
1587563020261,1.1336545,1.1097125,6.349423
1587563020266,1.1145009,1.1623849,6.4368114
1587563020273,1.1145009,1.1623849,6.4368114
1587563020283,1.1456255,1.2401965,6.5505357
1587563020292,1.1707647,1.352724,6.704962
1587563020305,1.3359646,1.4903905,7.1431007
1587563020314,1.4796166,1.6160861,7.5082164
1587563020324,1.5729905,1.733402,7.764396
1587563020335,1.661576,1.697489,8.127118
1587563020346,1.7525556,1.6723499,8.452729
1587563020357,1.7633295,1.6112977,8.804677
1587563020368,1.7860745,1.5298948,9.136273
1587563020379,1.79206,1.4496891,9.442732
1587563020390,1.7896658,1.3634979,9.7563715
1587563020402,1.8447324,1.3204023,9.975441
1587563020411,1.8447324,1.2006922,10.358514
1587563020423,1.7477672,1.1408371,10.643424
1587563020433,1.673547,0.973243,10.900801
1587563020447,1.5095441,0.7074866,11.584345
1587563020462,1.3335704,0.4417302,11.850101
1587563020472,1.376666,0.17597382,11.850101
1587563020483,1.4640543,0.21906945,12.014104
1587563020494,1.448492,0.050278235,12.126632
1587563020506,1.270124,0.31124622,11.692084
1587563020516,1.0809821,0.427365,11.700463
1587563020529,0.8475474,0.4381389,11.77229
1587563020539,0.5781997,0.18794483,11.890802
1587563020549,0.29807812,-0.19393034,12.044032
1587563020560,0.062249243,-0.5746084,11.963826
1587563020573,-0.12449849,-0.9648633,11.628637
1587563020582,-0.2873042,-1.2749124,10.923545
1587563020594,-0.4429273,-1.3910311,10.163386
1587563020603,-0.4429273,-1.3910311,10.163386
1587563020614,-0.6619968,-1.1911154,10.557233
1587563020625,-0.6775591,-1.115698,10.916363
1587563020635,-0.8475474,-1.1264719,11.33894
1587563020646,-1.246182,-1.2006922,11.664551
1587563020657,-1.5610195,-1.2330139,11.851298
1587563020668,-1.6938977,-1.1468226,11.623849
1587563020679,-1.7561469,-1.0414777,11.147403
1587563020690,-1.804031,-0.8726865,10.729615
1587563020701,-1.6687586,-0.6835446,10.056845
1587563020712,-1.6196774,-0.41299978,9.773131
1587563020724,-1.0726024,-0.08379706,9.57561
1587563020734,-0.748188,0.11372458,9.247604
1587563020747,-0.59017074,0.2825158,8.950723
1587563020757,-0.5434838,0.44532153,8.6299
1587563020767,-0.4285621,0.59495914,8.200141
1587563020779,-0.24420857,0.78529817,7.809886
1587563020790,-0.11492168,1.0079589,7.4483614
1587563020801,-0.05267244,1.1623849,7.16824
1587563020812,0.08619126,1.2246342,6.999449
1587563020823,0.14604631,1.30484,6.9120603
1587563020833,0.1592144,1.364695,6.953959
1587563020844,0.22984336,1.4209588,7.349002
1587563020853,0.22984336,1.4209588,7.349002
1587563020865,0.2896984,1.3682863,7.8206596
1587563020877,0.40701428,1.34195,8.08881
1587563020886,0.4417302,1.258153,8.37372
1587563020898,0.39504328,1.163582,8.511387
1587563020909,0.4237737,1.0235212,8.495825
1587563020922,0.557849,0.88944596,8.730456
1587563020932,0.5662287,0.79487497,9.405622
1587563020943,0.62967503,0.5662287,9.605537
1587563020955,0.6715736,0.5434838,9.892841
1587563020963,0.6715736,0.5434838,9.892841
1587563020976,0.9636662,0.79966336,9.981427
1587563020986,1.2162545,0.9660604,9.904813
1587563020998,1.5394717,1.1133038,10.041282
1587563021008,1.9512744,1.2126632,10.289082
1587563021021,2.1440077,1.258153,10.526108
1587563021032,2.220622,0.9911995,10.632649
1587563021042,2.195483,0.94690675,11.10311
1587563021053,1.9416976,0.973243,11.340137
1587563021063,1.3359646,1.0354922,11.514913
1587563021075,-0.2825158,1.1575965,11.303026
1587563021085,-0.80205756,1.5358804,10.907983
1587563021097,-0.8738836,1.7645266,10.812215
1587563021107,-0.47405192,1.8339585,10.9343195
1587563021122,0.19033903,1.733402,11.039664
1587563021132,0.78529817,1.2030864,11.385626
1587563021142,1.2988545,0.59615624,12.157756
1587563021155,1.7082629,-0.5805939,13.4661875
1587563021164,1.4628572,-0.79248077,13.478158
1587563021174,1.0989386,-0.8463503,13.237541
1587563021185,0.7661445,-0.90740246,12.8293295
1587563021196,0.59735334,-0.78888947,12.228385
1587563021208,0.7182605,-0.545878,11.604695
1587563021217,0.90021986,-0.30885202,11.039664
1587563021228,0.9552865,-0.17597382,10.454282
1587563021240,1.0175357,-0.19033903,9.951499
1587563021254,1.2054806,-0.19991584,9.313444
1587563021264,1.1192893,-0.20590134,8.969876
1587563021275,0.9600749,-0.23463176,8.552089
1587563021285,0.8499416,-0.21547815,8.177396
1587563021296,0.78290397,-0.11731588,7.771579
1587563021308,0.7278373,-0.045489833,7.3777328
1587563021317,0.7278373,0.008379706,7.01142
1587563021329,0.7278373,0.008379706,7.01142
1587563021341,0.7278373,0.008379706,7.01142
1587563021352,1.0019734,0.34476504,6.171055
1587563021362,1.13964,0.45250413,6.1243677
1587563021374,1.2976574,0.6560113,6.1638722
1587563021383,1.1671734,0.7661445,6.3350577
1587563021394,1.1420342,0.81881696,6.471527
1587563021404,1.0833763,0.9540894,6.599617
1587563021415,0.9504981,1.021127,6.6307416
1587563021427,0.93014735,1.0522517,6.777985
1587563021437,1.0163386,1.1959038,6.967127
1587563021451,1.0259154,1.3024458,7.15986
1587563021461,1.0390835,1.3263878,7.225701
1587563021470,1.0618285,1.3072342,7.4136457
1587563021482,1.1432313,1.3227965,7.8027034
1587563021490,1.174356,1.2808979,8.1881695
1587563021502,1.1384429,1.13964,8.74123
1587563021509,1.1575965,0.90381116,9.217676
1587563021519,1.1611878,0.7661445,9.652225
1587563021530,1.1659763,0.58418524,10.09994
1587563021541,1.1899183,0.439336,10.526108
1587563021552,1.1001357,0.4381389,10.879252
1587563021563,1.0354922,0.4165911,11.105505
1587563021574,1.009156,0.32321724,11.692084
1587563021586,1.0163386,0.2633622,11.822568
1587563021598,1.0761937,0.16998832,11.9746
1587563021610,1.1791444,0.04070143,12.24275
1587563021619,1.2378023,-0.37708676,12.649765
1587563021631,1.5394717,-0.14963761,12.579136
1587563021641,1.6460136,-0.034715924,12.8688345
1587563021655,1.62686,0.039504327,12.855666
1587563021665,1.5502456,0.1400608,12.697649
1587563021676,1.459266,0.06943185,12.549209
1587563021686,1.2150574,0.108936176,12.53604
1587563021696,0.985214,-0.15801731,12.422316
1587563021709,0.91458505,-0.6428431,12.404359
1587563021719,1.0175357,-0.9816227,12.391191
1587563021731,1.1803415,-1.3084313,12.473791
1587563021741,1.2665327,-1.6747441,12.570756
1587563021755,1.2916719,-2.030283,12.50731
1587563021764,1.2904748,-1.9141643,12.115858
1587563021774,1.1240777,-1.6172832,11.542446
1587563021785,0.8463503,-1.2557588,10.867282
1587563021797,0.39025488,-0.93732995,10.158598
1587563021807,0.0035913025,-0.6572084,9.494206
1587563021819,-0.33039984,-0.5303157,8.998607
1587563021829,-0.59615624,-0.415394,8.637083
1587563021841,-0.7374141,-0.30166942,8.579621
1587563021851,-0.79726917,-0.16759412,8.104373
1587563021863,-0.6667852,-0.033518825,7.965509
1587563021873,-0.50996494,0.090979666,7.8206596
1587563021886,-0.16639702,0.33638534,7.4974427
1587563021896,0.021547815,0.4177882,7.297527
1587563021906,0.19752164,0.5327099,7.061698
1587563021919,0.35913026,0.6392518,6.7360864
1587563021929,0.48841715,0.7026982,6.530185
1587563021939,0.62967503,0.80564886,6.4284315
1587563021952,0.6955156,0.92535895,6.35062
1587563021963,0.770933,0.91697925,6.4044895
1587563021973,0.866701,0.92775315,6.743269
1587563021985,0.93972415,0.9720459,6.944382
1587563021995,1.0223241,1.0199299,7.1383123
1587563022005,1.091756,1.1599907,7.4507556
1587563022018,1.0869676,1.1755531,7.606379
1587563022028,0.9708488,1.1336545,7.72968
1587563022038,0.8523358,1.1492168,7.8446016
1587563022058,0.8726865,1.2844892,8.374918
1587563022069,1.0319009,1.1480197,8.913613
1587563022081,1.2042835,0.8499416,9.255983
1587563022084,1.4065934,0.7493851,9.639056
1587563022093,1.5885528,0.6368576,9.900024
1587563022103,1.8351556,0.5746084,10.198102
1587563022114,2.0937295,0.5770026,10.56681
1587563022125,2.3092074,0.6380547,10.827777
1587563022136,2.3678656,0.6332663,11.049241
1587563022147,2.2840683,0.6332663,11.259931
1587563022158,2.1068976,0.724246,11.473015
1587563022167,1.8076223,0.6967127,11.63582
1587563022178,1.5346833,0.78170687,11.856087
1587563022189,1.3718776,1.0366893,12.08593
1587563022200,1.0534488,0.8882488,12.174516
1587563022212,0.93373865,1.0809821,12.083536
1587563022225,1.2366052,1.4041992,12.050017
1587563022235,1.6543933,1.5215151,12.109872
1587563022245,1.9285295,1.4329298,12.196063
1587563022258,2.2122424,0.92057055,12.400767
1587563022268,2.3558946,0.5530606,12.8293295
1587563022280,2.3391352,0.14724341,13.120225
1587563022290,2.2948422,-0.24779987,13.334506
1587563022303,1.899799,-0.5662287,13.156138
1587563022313,1.6304513,-0.5770026,12.761095
1587563022324,1.5502456,-0.16160862,11.905168
1587563022334,1.5837644,-0.005985504,11.270704
1587563022347,1.673547,0.10414778,10.657789
1587563022357,1.8028339,0.1400608,10.240001
1587563022367,1.9692309,0.093373865,9.850943
1587563022378,2.0027497,-0.02873042,9.555259
1587563022387,2.005144,-0.11133038,9.382876
1587563022400,2.1057005,-0.22146365,9.267955
1587563022410,2.078167,-0.19393034,9.112331
1587563022421,2.0350714,-0.21308395,8.838196
1587563022432,1.9309237,-0.25977087,8.462306
1587563022443,1.7824832,-0.20111294,8.055291
1587563022456,1.5993267,0.10175357,7.237672
1587563022466,1.5310919,0.2705448,6.7731967
1587563022476,1.5646108,0.4177882,6.477513
1587563022489,1.6675615,0.5422867,6.3985043
1587563022495,1.7561469,0.62249243,6.3123126
1587563022507,1.839944,0.6739678,6.1902084
1587563022519,1.8974048,0.7505822,6.1183825
1587563022531,2.018312,0.93014735,6.1279593
1587563022541,1.9752164,1.0043676,6.183026
1587563022554,1.922544,1.0474633,6.1423244
1587563022565,1.9021933,1.2569559,6.256049
1587563022575,1.8411411,1.3623008,6.453571
1587563022585,1.7561469,1.4915876,6.5469446
1587563022597,1.7046716,1.5358804,6.817489
1587563022606,1.6531962,1.5693992,7.129933
1587563022618,1.5586253,1.6005238,7.3777328
1587563022627,1.4197617,1.555034,7.789535
1587563022639,1.377863,1.4736311,8.24204
1587563022655,1.234211,1.2282255,9.119514
1587563022664,1.1767502,1.1540052,9.512163
1587563022673,1.1767502,1.1540052,9.512163
1587563022683,1.1492168,1.1528081,9.850943
1587563022694,1.0989386,1.1109096,10.499771
1587563022705,1.0127473,1.0630256,10.86369
1587563022713,0.9504981,1.0342951,11.257536
1587563022724,0.92895025,0.961272,11.581951
1587563022735,0.8762778,1.0043676,11.884817
1587563022746,0.92057055,1.0761937,12.039244
1587563022757,0.91937345,1.2006922,12.027272
1587563022770,1.0618285,1.3180081,11.887212
1587563022784,1.1707647,1.4664485,11.969811
1587563022794,1.0235212,0.80924016,11.829751
1587563022804,1.0271125,0.1376666,12.375628
1587563022814,1.0869676,-0.82360536,12.929886
1587563022826,1.0031705,-1.6843209,13.221979
1587563022835,1.2378023,-2.5761611,13.607446
1587563022846,1.6304513,-3.2848446,13.711593
1587563022858,1.6364368,-3.6212301,13.393165
1587563022870,1.9045875,-3.7337575,13.049597
1587563022881,2.2026656,-3.5230677,12.5264635
1587563022891,2.4540567,-3.0538042,12.384008
1587563022903,2.4265234,-2.4708161,11.981782
1587563022914,2.0961237,-1.9548657,11.261127
1587563022924,1.1085154,-1.1994951,10.125079
1587563022936,0.5542577,-0.91219085,9.765948
1587563022947,0.04309563,-0.6895301,9.594764
1587563022957,-0.4261679,-0.4285621,9.528923
1587563022992,-1.9931729,-0.045489833,9.091981
1587563023004,-1.9800048,0.40222588,8.582016
1587563023016,-1.8543092,0.5386954,8.219295
1587563023019,-1.8543092,0.5386954,8.219295
1587563023026,-1.6077064,0.5614403,7.9547353
1587563023033,-1.6077064,0.5614403,7.9547353
1587563023042,-1.3347675,0.5781997,7.690176
1587563023055,-0.7457938,0.50757074,7.493851
1587563023064,-0.49679685,0.39743748,7.40766
1587563023075,-0.33997664,0.2813187,7.4016747
1587563023086,-0.17238252,0.22625206,7.356185
1587563023097,-0.011971008,0.1328782,7.381324
1587563023110,0.08619126,0.11731588,7.4842744
1587563023120,0.15562311,0.17717093,7.477092
1587563023132,0.31483752,0.19153613,7.479486
1587563023142,0.533907,0.2681506,7.5225816
1587563023155,0.7589619,0.3866636,7.716512
1587563023161,0.7589619,0.3866636,7.716512
1587563023174,0.82001406,0.47884035,7.8266454
1587563023186,0.92057055,0.5566519,8.252813
1587563023196,1.0163386,0.62608373,8.511387
1587563023208,1.1145009,0.60453594,9.321824
1587563023218,1.091756,0.60812724,9.581595
1587563023231,1.1025299,0.65242,9.768343
1587563023242,1.2078748,0.736217,9.868899
1587563023265,1.5717934,1.1504139,10.234015
1587563023276,1.6089035,1.1899183,10.400413
1587563023285,1.6124948,1.1707647,10.5045595
1587563023297,1.6101006,1.1827357,10.647015
1587563023308,1.6663644,1.3156139,10.90918
1587563023319,1.6196774,1.1623849,11.232397
1587563023330,1.602918,1.1228806,11.255142
1587563023342,1.6232687,1.2030864,11.420342
1587563023351,1.7429788,1.055843,11.519701
1587563023362,1.9021933,0.93134445,11.538856
1587563023373,2.1272483,0.78170687,11.822568
1587563023384,2.3989902,-0.02873042,12.413936
1587563023393,2.3989902,-0.02873042,12.413936
1587563023404,2.1787236,-0.4249708,13.0998745
1587563023415,2.0841527,-0.61530983,13.2985935
1587563023426,1.9812019,-0.59495914,13.342886
1587563023437,1.6077064,-0.6739678,12.735956
1587563023449,1.6208745,-0.59735334,12.309788
1587563023462,1.7633295,-0.521936,11.938686
1587563023472,1.9357121,-0.48722005,11.599907
1587563023482,1.922544,-0.44651863,11.247959
1587563023494,1.7705121,-0.5638345,10.55843
1587563023502,1.7705121,-0.5638345,10.55843
1587563023518,1.447295,-0.50757074,9.807847
1587563023527,1.328782,-0.45130703,9.306262
1587563023536,1.1959038,-0.36391866,8.848969
1587563023548,1.0809821,-0.23822308,8.310274
1587563023557,0.9911995,-0.09696517,7.813477
1587563023569,0.985214,0.037110128,7.3083005
1587563023580,0.9995792,0.09816227,6.951565
1587563023591,1.0019734,0.33638534,6.537368
1587563023602,1.0809821,0.40701428,6.2285156
1587563023612,1.151611,0.533907,6.041768
1587563023623,1.2198458,0.7098808,5.8885393
1587563023634,1.198298,1.0127473,5.7161565
1587563023645,1.1719618,1.1049241,5.6910176
1587563023656,1.1420342,1.1815386,5.649119
1587563023667,1.0929531,1.4161704,5.6215854
1587563023678,1.1456255,1.553837,5.7389016
1587563023689,1.1707647,1.7022774,5.877765
1587563023701,1.2437878,1.7908629,6.0118403
1587563023712,1.2808979,1.8626889,6.1926026
1587563023722,1.3299791,1.9428947,6.423643
1587563023736,1.5239093,2.0027497,7.1191587
1587563023746,1.6005238,1.9261353,7.5345526
1587563023756,1.6460136,1.8195933,8.010999
1587563023767,1.7190368,1.6747441,8.554482
1587563023777,1.7513585,1.5286977,9.039309
1587563023789,1.7357962,1.3611037,9.622296
1587563023802,1.7298107,1.2617443,10.127473
1587563023812,1.685518,1.1611878,10.576386
1587563023822,1.6041151,1.0749966,10.915166
1587563023833,1.4437037,0.985214,11.303026
1587563023845,1.2761095,0.81761986,12.041637
1587563023854,1.2162545,0.6596026,12.272678
1587563023865,1.246182,0.5805939,12.424709
1587563023876,1.3670892,0.60094464,12.497733
1587563023887,1.4293385,0.50397944,12.660539
1587563023913,0.79607207,0.9516952,12.4785795
1587563023921,0.79607207,0.9516952,12.4785795
1587563023928,0.20111294,0.6691794,12.316971
1587563023953,-0.5255273,-0.24420857,12.770672
1587563023964,-0.93493575,-1.3096284,12.492945
1587563023974,-0.8319851,-1.5574282,12.533646
1587563023986,-0.8319851,-1.6986861,12.473791
1587563023990,-0.8319851,-1.6986861,12.473791
1587563023998,-0.8583213,-1.9716251,12.306197
1587563024008,-0.78410107,-2.0757728,12.281057
1587563024018,-0.59615624,-2.1057005,12.411542
1587563024029,-0.30406362,-2.1416135,12.644977
1587563024039,-0.2861071,-2.3235726,12.660539
1587563024050,-0.5315128,-2.4313118,12.488156
1587563024061,-0.81043726,-2.3750482,12.1398
1587563024071,-1.1791444,-2.2278047,11.629835
1587563024084,-1.6244658,-2.0638018,11.021708
1587563024095,-2.0901382,-1.5897499,10.06283
1587563024105,-2.0458453,-1.4305356,9.5732155
1587563024115,-1.5562311,-1.3060371,8.959103
1587563024128,-1.2306197,-0.8690952,8.619126
1587563024138,-0.90620536,-0.7110779,8.175002
1587563024148,-0.62129533,-0.46088383,7.7967176
1587563024162,-0.39145198,-0.24899697,7.335834
1587563024167,-0.08619126,-0.04309563,7.050924
1587563024179,0.16639702,0.15203181,6.7480574
1587563024192,0.4177882,0.25378537,6.4787097
1587563024202,0.59615624,0.33159694,6.338649
1587563024213,0.770933,0.4369418,6.2823853
1587563024225,1.2246342,0.5781997,6.2991447
1587563024234,1.3670892,0.63206923,6.295553
1587563024246,1.4700398,0.7038953,6.35062
1587563024258,1.5179238,0.7781156,6.453571
1587563024268,1.5634137,0.830788,6.5601125
1587563024280,1.5143325,0.8379706,6.739678
1587563024289,1.4628572,0.8475474,6.980295
1587563024300,1.4281414,0.8499416,7.297527
1587563024311,1.3922282,0.878672,7.4854717
1587563024322,1.435324,0.89902276,7.7093296
1587563024334,1.4185646,0.9792285,8.0924015
1587563024345,1.436521,1.0151415,8.282741
1587563024357,1.4736311,1.0690111,8.716091
1587563024367,1.4317327,1.079785,8.993818
1587563024379,1.5047557,1.1192893,9.233239
1587563024387,1.5478514,1.1875241,9.576807
1587563024400,1.5717934,1.1923125,9.93474
1587563024411,1.496376,1.0773908,10.278308
1587563024421,1.3634979,0.9588778,10.685322
1587563024433,1.1827357,0.8511387,11.178528
1587563024443,0.997185,0.7757214,11.61547
1587563024455,0.7781156,1.0881647,12.175713
1587563024465,0.7326257,1.0259154,12.155362
1587563024478,0.8475474,1.2006922,12.095507
1587563024488,1.3000516,1.2545617,12.366052
1587563024502,1.7429788,1.270124,12.636597
1587563024513,1.8962077,1.1180922,12.808979
1587563024522,1.9560628,0.6392518,13.192051
1587563024533,1.9692309,0.29328972,13.776237
1587563024543,1.7298107,0.038307227,14.101848
1587563024554,1.4053963,-0.4297592,14.346057
1587563024565,1.0845734,-0.6380547,14.039598
1587563024576,1.1025299,-0.7721301,12.914324
1587563024587,1.5873557,-0.48961425,12.583924
1587563024599,1.7357962,-0.34356794,11.915942
1587563024606,1.910573,-0.36870706,11.384429
1587563024617,2.184709,-0.19273324,11.08276
1587563024628,2.3092074,-0.09935937,10.709264
1587563024639,2.2529438,-0.18435353,10.229227
1587563024650,2.110489,-0.21547815,9.78989
1587563024662,1.9991584,-0.20470424,9.334992
1587563024674,1.7393875,-0.19033903,8.531737
1587563024685,1.6136919,-0.16160862,8.046912
1587563024697,1.5897499,-0.10175357,7.693767
1587563024709,1.6950948,-0.01316811,7.3430166
1587563024716,1.7477672,0.08259996,7.053318
1587563024727,1.7513585,0.1412579,6.779182
1587563024738,1.7501614,0.17238252,6.525397
1587563024749,1.7597382,0.24660277,6.3865333
1587563024760,1.7238252,0.34955344,6.2225304
1587563024771,1.5957354,0.4249708,6.1040173
1587563024783,1.4951789,0.47285482,6.179435
1587563024795,1.2605472,0.6679823,6.136339
1587563024808,1.2090719,0.79966336,6.135142
1587563024817,1.0139444,1.0726024,6.301539
1587563024832,0.89543146,1.2150574,6.307524
1587563024839,0.80325466,1.3838485,6.4416
1587563024850,0.7350199,1.5155296,6.704962
1587563024862,0.62249243,1.5586253,6.992266
1587563024873,0.48243165,1.5526398,7.289147
1587563024884,0.38307226,1.4377182,8.031349
1587563024895,0.35913026,1.3982137,8.408437
1587563024907,0.4309563,1.34195,8.754398
1587563024916,0.48722005,1.271321,9.066842
1587563024927,0.51954174,1.2042835,9.297882
1587563024936,0.60573304,1.2378023,9.662998
1587563024947,0.7386112,1.271321,10.093954
1587563024958,0.7433996,1.3156139,10.486604
1587563024969,0.78529817,1.2856863,10.732009
1587563024981,0.82480246,1.3192052,11.079168
1587563024992,0.8762778,1.3814543,11.314998
1587563025002,0.89064306,1.2952632,11.506534
1587563025013,1.079785,1.0977415,11.83813
1587563025024,1.3623008,1.3970166,11.968615
1587563025035,1.2665327,1.423353,12.373235
1587563025044,1.1360487,1.5634137,12.406754
1587563025055,1.0163386,1.5705963,12.599486
1587563025067,0.7254431,1.4449008,12.62702
1587563025079,0.30047232,1.0199299,12.630611
1587563025090,0.12449849,0.2801216,12.720393
1587563025100,0.31244332,-0.40581718,13.035232
1587563025113,0.557849,-1.0139444,13.358448
1587563025125,1.163582,-2.3535004,13.978547
1587563025135,1.2126632,-2.7018566,13.976152
1587563025145,1.0941502,-2.9628246,13.648147
1587563025158,1.0522517,-2.882619,13.219584
1587563025167,0.8726865,-2.3630772,12.682086
1587563025179,0.40821138,-1.8590976,11.678916
1587563025188,-0.1448492,-1.3634979,10.585963
1587563025199,-0.6691794,-0.866701,9.785102
1587563025210,-1.1372458,-0.5363012,9.16261
1587563025222,-1.4508862,-0.3184288,8.816648
1587563025234,-1.7010803,-0.15801731,8.561666
1587563025244,-1.8064252,-0.08738836,8.234857
1587563025258,-1.411382,-0.02633622,8.099585
1587563025261,-1.411382,-0.02633622,8.099585
1587563025277,-0.6655881,0.08379706,7.586028
1587563025290,-0.40701428,0.19871874,7.4028716
1587563025299,-0.21308395,0.36391866,7.28795
1587563025309,0.08020575,0.51475334,7.07726
1587563025321,0.2693477,0.6823475,6.769605
1587563025330,0.36870706,0.6715736,6.5708866
1587563025342,0.5315128,0.82719666,6.4870896
1587563025354,0.8331822,1.0726024,6.5804634
1587563025365,0.8331822,1.0726024,6.5804634
1587563025375,1.0426749,1.0450691,6.969521
1587563025387,1.1013328,1.1575965,7.201759
1587563025397,1.1324574,1.1707647,7.1861963
1587563025409,1.2425907,1.1468226,7.2963295
1587563025420,1.4185646,1.1994951,7.477092
1587563025430,1.5215151,1.2892777,7.7009497
1587563025442,1.4556746,1.2330139,7.787141
1587563025452,1.4197617,1.1875241,8.01459
1587563025464,1.5059528,1.2940661,8.64666
1587563025473,1.5059528,1.2940661,8.64666
1587563025486,1.5741876,1.258153,9.293094
1587563025496,1.9548657,1.3814543,9.5971575
1587563025507,2.1272483,1.3192052,9.877279
1587563025518,2.3127987,1.2952632,10.196905
1587563025529,2.4612393,1.3215994,10.597934
1587563025541,2.4277205,1.3060371,10.9187565
1587563025551,2.219425,1.246182,11.190498
1587563025564,1.9249382,1.1372458,11.559206
1587563025574,1.6567876,1.0666169,11.921927
1587563025584,1.4867992,1.2318168,12.163742
1587563025597,0.94570965,1.1575965,12.319365
1587563025607,0.90021986,1.3180081,12.346898
1587563025617,1.0869676,1.3072342,12.421119
1587563025629,1.3467385,1.2198458,12.321759
1587563025640,1.685518,0.9576807,12.330139
1587563025650,1.9800048,0.51834464,12.579136
1587563025663,2.0039468,0.11252748,12.795811
1587563025673,2.019509,-0.08619126,12.785037
1587563025682,2.0961237,-0.25258827,13.034034
1587563025694,1.5370775,-0.5650316,12.629414
1587563025702,1.5370775,-0.5650316,12.629414
1587563025714,1.447295,-0.5722142,11.244369
1587563025725,1.5370775,-0.33997664,11.025299
1587563025736,1.5370775,-0.33997664,11.025299
1587563025748,1.5370775,-0.33997664,11.025299
1587563025757,1.5370775,-0.33997664,11.025299
1587563025768,1.6316484,-0.5231331,10.286688
1587563025779,1.6938977,-0.60453594,10.127473
1587563025790,1.7130513,-0.6739678,9.8916445
1587563025801,1.6687586,-0.7194576,9.555259
1587563025810,1.6795325,-0.6799533,9.13388
1587563025821,1.602918,-0.581791,8.780735
1587563025834,1.541866,-0.45370123,8.406042
1587563025844,1.4496891,-0.23942018,7.52737
1587563025857,1.4209588,-0.16639702,7.183802
1587563025867,1.4389153,-0.06464344,6.963536
1587563025877,1.3994108,0.08379706,6.751649
1587563025889,1.2988545,0.16400282,6.525397
1587563025899,1.1971009,0.2645593,6.3829417
1587563025912,1.009156,0.36631286,6.315904
1587563025918,0.8631097,0.45848963,6.211756
1587563025930,0.7182605,0.5602432,6.1686606
1587563025942,0.5662287,0.61052144,6.135142
1587563025955,0.21308395,0.91697925,6.3829417
1587563025965,0.15083471,1.0953473,6.5804634
1587563025975,0.077811554,1.2234371,6.7265096
1587563025988,0.07182605,1.234211,6.9826894
1587563025998,0.08379706,1.3515269,7.2987237
1587563026008,0.06344634,1.2916719,7.559692
1587563026021,0.108936176,1.1875241,7.8589673
1587563026027,0.25378537,1.2114661,8.304289
1587563026040,0.4285621,1.1827357,8.632295
1587563026052,0.60693014,1.043872,8.991425
1587563026066,0.9540894,0.9600749,9.799467
1587563026075,1.1145009,0.8834604,10.192117
1587563026088,1.3443443,0.8714894,10.660183
1587563026097,1.4173675,0.8463503,11.043256
1587563026106,1.4401124,0.78050977,11.447875
1587563026117,1.4389153,0.80564886,11.844116
1587563026128,1.4149733,0.7338228,12.190078
1587563026137,1.3814543,0.6356605,12.568362
1587563026148,1.2677298,0.4357447,12.75511
1587563026158,1.1851299,0.29448682,12.668919
1587563026169,1.316811,0.5710171,12.459426
1587563026181,1.4377182,0.59376204,12.621035
1587563026192,1.3000516,1.0450691,12.513295
1587563026203,0.9672575,0.94211835,12.266692
1587563026214,0.4213795,0.89543146,12.010512
1587563026226,0.427365,0.28491,11.965023
1587563026238,0.50637364,-0.1388637,12.029667
1587563026246,0.6356605,-0.7038953,12.220005
1587563026258,0.7098808,-1.3802572,12.174516
1587563026271,1.0223241,-1.9081788,12.496535
1587563026282,1.2569559,-2.134431,12.770672
1587563026293,1.3431472,-2.3008277,12.650962
1587563026303,1.3251907,-2.2050598,12.13142
1587563026312,1.1947067,-1.7681179,11.378444
1587563026323,0.92416185,-1.2413936,10.38485
1587563026335,0.22984336,-0.2669535,8.499416
1587563026346,0.009576807,-0.025139118,8.0924015
1587563026356,-0.108936176,0.046686932,7.77517
1587563026367,-0.15562311,-0.0047884034,7.86615
1587563026378,-0.1436521,-0.10175357,8.043321
1587563026390,-0.088585466,-0.21428105,8.103176
1587563026401,0.09816227,-0.2861071,8.197746
1587563026411,0.33758244,-0.25857377,7.8505874
1587563026423,0.33758244,-0.21667525,7.439982
1587563026432,0.2753332,-0.11731588,7.07726
1587563026443,0.2789245,-0.0035913025,6.801927
1587563026454,0.20350714,0.050278235,6.199785
1587563026463,0.35793316,0.073023155,6.133945
1587563026475,0.6428431,-0.027533319,6.3218894
1587563026487,0.866701,0.04070143,6.3913217
1587563026497,1.0953473,0.037110128,6.5218053
1587563026510,1.1013328,0.022744916,6.8426285
1587563026520,1.1707647,0.18555063,6.908469
1587563026530,1.0342951,0.33638534,7.2927384
1587563026543,0.8391677,0.50876784,7.5884223
1587563026554,0.36870706,0.7685388,7.880515
1587563026564,0.30166942,1.0402806,8.06008
1587563026576,0.40342298,1.163582,8.268375
1587563026586,0.49919105,1.316811,8.682572
1587563026597,0.51355624,1.340753,9.216479
1587563026608,0.5650316,1.2018893,9.65821
1587563026620,0.6344634,1.0642227,10.053253
1587563026630,0.8319851,1.0773908,10.563218
1587563026641,1.1288661,1.2904748,11.268311
1587563026652,1.3982137,1.3718776,11.486182
1587563026663,1.6280571,1.5334862,11.779472
1587563026674,1.5227122,1.5849615,12.218808
1587563026683,1.3467385,1.377863,12.406754
1587563026694,1.0175357,1.1552023,12.623428
1587563026705,0.7062895,1.2138603,12.835316
1587563026716,0.35194764,1.1073183,13.0519905
1587563026726,0.22266077,1.1647792,13.026852
1587563026737,0.25498247,1.4413095,13.050794
1587563026748,0.45250413,1.447295,13.077129
1587563026759,0.8295909,1.3156139,13.018472
1587563026770,1.2785037,1.0067618,13.237541
1587563026781,1.7705121,0.36391866,13.678074
1587563026791,1.9979613,-0.08020575,14.192827
1587563026803,2.0398598,-0.61530983,14.259866
1587563026814,2.0590134,-1.1109096,14.228741
1587563026824,1.5394717,-1.377863,13.206416
1587563026836,1.2964603,-1.2354081,12.275072
1587563026846,1.1827357,-0.7721301,11.519701
1587563026858,0.79966336,-0.39624038,10.1382475
1587563026868,0.7015011,-0.047884032,9.662998
1587563026880,0.7721301,-0.022744916,9.340978
1587563026892,0.92057055,-0.07062895,9.129091
1587563026900,0.93254155,-0.33758244,9.018958
1587563026912,0.9636662,-0.37588966,8.7771435
1587563026924,0.9552865,-0.50876784,8.699332
1587563026934,0.8810662,-0.62608373,8.268375
1587563026946,0.79367787,-0.62728083,7.929596
1587563026956,0.81043726,-0.60573304,7.630321
1587563026968,0.81402856,-0.5255273,7.4483614
1587563026978,0.8511387,-0.47884035,7.2568254
1587563026989,0.91458505,-0.49081135,7.121553
1587563027002,1.0175357,-0.51714754,7.062895
1587563027008,1.1540052,-0.49081135,7.0569096
1587563027019,1.2306197,-0.48003745,6.9108634
1587563027030,1.3096284,-0.45489833,6.671443
1587563027042,1.3575124,-0.37708676,6.481104
1587563027054,1.377863,-0.2621651,6.525397
1587563027065,1.4161704,-0.19632454,6.6079965
1587563027077,1.4460979,-0.18674773,6.7839704
1587563027086,1.4616601,-0.029927522,6.8809357
1587563027098,1.6328455,0.22146365,7.0940194
1587563027109,1.7250223,0.35434186,7.265205
1587563027118,1.7992426,0.427365,7.445967
1587563027130,1.8291701,0.51235914,7.679402
1587563027142,1.8387469,0.557849,7.9236107
1587563027152,1.7741034,0.6488287,8.252813
1587563027164,1.6280571,0.81163436,8.523358
1587563027174,1.4508862,0.94810385,8.850166
1587563027186,1.1695676,1.2988545,9.665392
1587563027196,1.0151415,1.3359646,10.115502
1587563027208,0.88944596,1.3323733,10.469844
1587563027218,0.79487497,1.3443443,10.856507
1587563027230,0.7230489,1.3563153,11.415554
1587563027242,0.5710171,1.3323733,11.821371
1587563027254,0.20949265,1.1755531,12.172121
1587563027265,0.20949265,1.1755531,12.172121
1587563027274,0.16519992,1.0702082,12.150574
1587563027283,0.8595184,1.6232687,12.290634
1587563027295,1.0785879,1.3946224,12.53604
1587563027307,1.1240777,1.5813702,12.521675
1587563027316,0.8882488,1.6400281,12.592304
1587563027327,-0.22505496,1.0618285,12.825739
1587563027336,-0.7433996,0.46327803,13.116634
1587563027347,-0.8810662,-0.12330139,13.47337
1587563027357,-0.7098808,-0.80924016,13.700819
1587563027368,-0.5422867,-1.4030021,13.368025
1587563027379,-0.4405331,-2.0614076,12.94066
1587563027390,-0.22625206,-2.4301147,12.504915
1587563027401,0.16639702,-2.517503,12.295423
1587563027413,0.7673417,-2.328361,12.054806
1587563027426,0.90979666,-1.697489,10.809821
1587563027436,0.676362,-1.352724,9.968259
1587563027448,0.51714754,-0.9935937,9.348161
1587563027458,0.36990416,-0.6655881,8.797494
1587563027470,0.25019407,-0.39384618,8.402451
1587563027480,0.19393034,-0.22266077,8.135497
1587563027492,0.16639702,-0.076614454,7.9224133
1587563027503,0.1340753,0.108936176,7.8039002
1587563027514,0.089782566,0.30406362,7.8027034
1587563027524,0.06464344,0.5446809,7.7943234
1587563027536,-0.10055647,0.8499416,7.5572977
1587563027549,0.088585466,0.9720459,7.380127
1587563027557,0.23822308,1.0630256,7.2711906
1587563027568,0.37588966,1.1348516,7.3286514
1587563027580,0.45729253,1.1192893,7.404069
1587563027589,0.50517654,1.0223241,7.428011
1587563027600,0.5243302,0.92895025,7.479486
1587563027612,0.50397944,0.8798691,7.502231
1587563027624,0.2885013,0.91458505,7.357382
1587563027633,0.2885013,0.91458505,7.357382
1587563027644,0.06703765,1.0977415,6.945579
1587563027656,0.034715924,1.1312603,6.6283474
1587563027664,0.05865794,1.1923125,6.215348
1587563027676,0.1400608,1.2378023,5.9519854
1587563027689,0.19991584,1.2054806,6.0226145
1587563027700,0.24181437,1.174356,6.5265937
1587563027710,0.38187516,1.1085154,7.1155677
1587563027722,0.39145198,0.93493575,7.855376
1587563027733,0.33039984,0.90381116,8.456321
1587563027744,0.33997664,0.8607155,8.883685
1587563027755,0.4213795,0.9552865,9.671378
1587563027765,0.4441244,0.9768343,9.9790325
1587563027777,0.51595044,0.8870517,10.957064
1587563027789,0.49440265,0.7529764,11.599907
1587563027800,0.58418524,0.5758055,12.331336
1587563027810,0.40222588,0.24779987,13.042414
1587563027819,0.25258827,-0.01316811,13.645753
1587563027831,0.088585466,0.107739076,13.748703
1587563027842,-0.34596214,0.035913024,13.715184
1587563027856,-0.9900024,0.2896984,13.438654
1587563027866,-0.81402856,0.45848963,13.588292
1587563027876,-0.44891283,0.48722005,13.575124
1587563027890,0.04309563,0.40821138,13.595474
1587563027898,0.61291564,0.22505496,13.666103
1587563027909,0.9720459,0.1328782,13.41112
1587563027921,1.2389994,-0.08738836,12.922704
1587563027931,1.4341269,-0.19991584,12.771869
1587563027942,1.5059528,-0.2873042,12.5264635
1587563027955,1.6304513,-0.59136784,12.167333
1587563027965,1.7513585,-0.6560113,11.956643
1587563027975,1.7705121,-0.7673417,11.639412
1587563027987,1.7669208,-0.85473,11.335348
1587563027995,1.8315643,-0.8678981,11.058818
1587563028007,1.982399,-0.997185,10.761936
1587563028019,2.0015526,-1.0941502,10.6637745
1587563028030,1.9201498,-1.2198458,10.392033
1587563028041,1.7621324,-1.234211,9.97185
1587563028051,1.5801731,-1.1839328,9.485827
1587563028064,1.0163386,-0.8499416,8.531737
1587563028074,0.81761986,-0.6368576,7.9726915
1587563028084,0.7254431,-0.4225766,7.4471645
1587563028096,0.7098808,-0.17956513,6.9647326
1587563028104,0.7098808,-0.17956513,6.9647326
1587563028117,0.8415619,0.11252748,6.3111157
1587563028127,0.8595184,0.19153613,6.1447186
1587563028139,0.8379706,0.23702596,6.041768
1587563028150,0.8535329,0.29927522,5.997475
1587563028160,0.8619126,0.40342298,5.9244523
1587563028173,0.9552865,0.5590461,5.9029045
1587563028183,1.0953473,0.81283146,5.99149
1587563028192,1.2114661,1.1623849,5.947197
1587563028203,1.3311762,1.4149733,6.033388
1587563028213,1.4161704,1.6843209,6.232107
1587563028224,1.3275849,1.9165585,6.679823
1587563028235,1.1360487,2.1499932,7.311892
1587563028247,0.9744401,2.27928,7.8290396
1587563028257,1.1456255,2.1380222,8.101978
1587563028268,1.0390835,2.183512,8.507795
1587563028279,1.1049241,2.1284454,8.66701
1587563028290,1.1312603,1.8890251,9.062054
1587563028301,1.198298,1.8770541,9.625888
1587563028312,1.1372458,1.8555063,10.048465
1587563028322,1.0498575,1.6915035,10.454282
1587563028333,0.9684546,1.5454572,10.764331
1587563028344,0.8619126,1.1731589,11.22282
1587563028355,0.8583213,0.90859956,11.384429
1587563028367,0.8619126,0.62847793,11.517307
1587563028378,1.0127473,0.6715736,11.502942
1587563028388,0.9959879,0.51954174,11.657368
1587563028400,1.151611,0.5674258,11.553221
1587563028410,1.2030864,0.7517793,11.560403
1587563028423,1.021127,0.6835446,11.73518
1587563028428,0.82599956,0.5638345,11.744757
1587563028441,0.5386954,0.18195933,11.932701
1587563028454,0.21547815,-1.0977415,12.580333
1587563028463,0.21547815,-1.0977415,12.580333
1587563028474,0.6955156,-2.5617957,13.816938
1587563028485,0.48841715,-2.8933928,13.611036
1587563028496,0.32561144,-2.7234044,13.548787
1587563028507,0.25019407,-2.3403323,13.156138
1587563028518,-0.14724341,-1.9141643,12.373235
1587563028530,-0.7206547,-1.508347,11.385626
1587563028536,-1.186327,-1.0809821,10.55005
1587563028549,-1.5981296,-0.7697359,9.952697
1587563028560,-1.8842367,-0.6500258,9.677363
1587563028571,-2.0231004,-0.58298814,9.593566
1587563028582,-1.9883845,-0.521936,9.586384
1587563028596,-1.7022774,-0.48243165,9.611523
1587563028606,-1.5251064,-0.34596214,9.494206
1587563028616,-1.2797008,-0.1604115,9.066842
1587563028628,-1.0366893,0.04189853,8.558074
1587563028638,-0.7445967,0.32920274,8.196549
1587563028650,-0.49679685,0.59136784,7.856573
1587563028660,-0.35194764,0.7553706,7.419631
1587563028672,-0.25019407,0.78410107,7.1502833
1587563028683,-0.1316811,0.90620536,7.098808
1587563028695,0.1352724,1.0618285,6.908469
1587563028705,0.29807812,1.1025299,6.8929067
1587563028716,0.45250413,1.1528081,6.799533
1587563028726,0.5638345,1.1827357,6.8186865
1587563028738,0.62847793,1.2880806,6.9731126
1587563028748,0.545878,1.3682863,6.9946604
1587563028760,0.48482585,1.4065934,7.007828
1587563028772,0.48602295,1.4676456,7.2687964
1587563028786,0.2633622,1.472434,7.837419
1587563028794,0.17597382,1.460463,8.103176
1587563028805,0.12210429,1.400608,8.3868885
1587563028815,0.010773907,1.3192052,8.7125
1587563028824,-0.0035913025,1.2844892,9.136273
1587563028835,0.092176765,1.1923125,9.52174
1587563028847,0.21906945,1.0450691,10.029311
1587563028858,0.41299978,0.9624691,10.563218
1587563028867,0.5674258,0.79487497,11.026496
1587563028879,0.748188,0.6691794,11.495759
1587563028890,0.8595184,0.6823475,11.911154
1587563028901,0.8415619,0.5530606,12.185289
1587563028914,0.7302315,0.4285621,12.398374
1587563028925,0.32920274,0.8798691,12.266692
1587563028958,0.38187516,1.3395559,11.288661
1587563028964,0.47884035,1.1575965,11.385626
1587563028970,0.47884035,1.1575965,11.385626
1587563028979,0.91578215,0.80086046,12.0248785
1587563028993,1.258153,0.6476316,12.727576
1587563029003,1.2378023,0.30765492,13.400347
1587563029013,0.9959879,-0.090979666,13.561955
1587563029025,0.51116204,-0.58418524,13.596671
1587563029035,0.40222588,-0.7015011,13.201628
1587563029047,0.6811504,-0.59376204,12.75511
1587563029061,1.1480197,-0.37828386,12.35887
1587563029072,1.2892777,-0.2753332,11.694478
1587563029090,1.5382746,-0.20590134,10.641029
1587563029097,1.5981296,-0.22744916,10.296265
1587563029115,1.520318,-0.33039984,9.704897
1587563029124,1.3802572,-0.45010993,9.494206
1587563029134,1.2449849,-0.48722005,9.149442
1587563029143,1.2449849,-0.48722005,9.149442
1587563029154,0.94930094,-0.32202014,7.77517
1587563029166,0.82599956,-0.1352724,7.3346367
1587563029177,0.81163436,0.055066638,7.0186024
1587563029188,0.700304,0.29328972,6.7360864
1587563029199,0.676362,0.45609543,6.47033
1587563029212,0.7505822,0.60453594,6.409278
1587563029218,0.8834604,0.770933,6.5241995
1587563029231,0.82121116,0.81163436,6.4272346
1587563029245,0.6943185,0.9636662,6.4487824
1587563029255,0.63087213,1.0941502,6.540959
1587563029265,0.51475334,1.2641385,6.5337763
1587563029276,0.3890578,1.4700398,6.50744
1587563029286,0.2621651,1.6101006,6.622362
1587563029297,0.08140286,1.946486,6.657078
1587563029308,0.022744916,2.1751323,6.9048777
1587563029320,-0.0047884034,2.3822308,7.0940194
1587563029328,0.050278235,2.4875755,7.445967
1587563029339,0.11851298,2.4720132,7.9702973
1587563029352,0.1316811,2.3786395,8.285135
1587563029365,0.58538234,2.067393,9.41041
1587563029377,0.91338795,1.697489,10.405201
1587563029387,0.997185,1.6160861,10.745177
1587563029396,1.0965444,1.5801731,11.044453
1587563029405,1.1025299,1.5586253,11.340137
1587563029417,1.0630256,1.4688427,11.599907
1587563029429,1.0498575,1.3299791,11.960235
1587563029436,1.0342951,1.0726024,12.302606
1587563029447,0.973243,0.6679823,12.53604
1587563029459,0.8655039,0.2825158,12.683284
1587563029470,0.9516952,0.075417355,12.64737
1587563029481,1.1695676,0.36032736,12.546814
1587563029494,1.2306197,0.5770026,12.375628
1587563029503,1.2306197,0.5770026,12.375628
1587563029514,0.6464345,1.091756,11.791444
1587563029525,0.30885202,1.1552023,11.563994
1587563029536,0.03232172,1.0594343,11.4119625
1587563029545,-0.1592144,0.6560113,11.349713
1587563029556,-0.24420857,0.16519992,11.48738
1587563029568,-0.3172317,-0.30645782,11.632229
1587563029579,-0.06464344,-0.8523358,11.810597
1587563029590,0.22505496,-1.1611878,12.282255
1587563029601,0.30765492,-1.340753,11.9374895
1587563029612,0.31004912,-1.2856863,11.476605
1587563029623,0.1376666,-0.91817635,10.776301
1587563029634,-0.5734113,-0.33758244,9.178172
1587563029645,-0.8283938,-0.260968,8.724471
1587563029653,-0.90021986,-0.25857377,8.694544
1587563029664,-0.90500826,-0.33758244,8.708909
1587563029676,-0.7721301,-0.5422867,8.829816
1587563029686,-0.5770026,-0.61890113,8.991425
1587563029697,-0.4165911,-0.58657944,9.0081835
1587563029708,-0.33039984,-0.5231331,8.896853
1587563029719,-0.28491,-0.30885202,8.635885
1587563029730,-0.29688102,-0.022744916,8.170214
1587563029741,-0.24779987,0.30885202,7.642292
1587563029753,-0.12090719,0.6655881,7.2699933
1587563029762,-0.090979666,0.9804256,6.872556
1587563029775,0.017956512,1.1779473,6.3709707
1587563029785,0.21667525,1.4089876,6.519411
1587563029794,0.37948096,1.4568717,6.5948286
1587563029806,0.4261679,1.3072342,6.692991
1587563029818,0.51595044,1.2114661,7.0209966
1587563029828,0.62847793,1.271321,7.463924
1587563029840,0.581791,1.1851299,7.657854
1587563029850,0.62249243,1.2521675,8.005013
1587563029862,0.5638345,1.3227965,8.157045
1587563029872,0.46088383,1.282095,8.213309
1587563029882,0.41299978,1.2354081,8.389283
1587563029894,0.32321724,1.055843,9.314642
1587563029904,0.34596214,0.91219085,9.720459
1587563029917,0.46208093,0.7625532,10.092757
1587563029927,0.7541735,0.6536171,10.590752
1587563029937,1.0031705,0.6548142,11.115082
1587563029949,1.1659763,0.5758055,11.372458
1587563029960,1.2174516,0.5291186,11.677719
1587563029970,1.1432313,0.5470751,11.925519
1587563029982,0.8607155,0.557849,12.11107
1587563029992,0.44651863,0.56982,12.260707
1587563030004,-0.142455,0.5351041,12.261904
1587563030013,-0.142455,0.5351041,12.261904
1587563030025,-0.4321534,0.93852705,12.192472
1587563030036,-0.35434186,0.9684546,11.787852
1587563030047,0.06823475,1.2856863,11.613075
1587563030077,2.7341783,0.8283938,11.912351
1587563030082,2.7341783,0.8283938,11.912351
1587563030090,3.2704794,0.81163436,12.403162
1587563030105,3.6870706,0.15203181,12.905944
1587563030114,3.6870706,0.15203181,12.905944
1587563030127,2.7353754,-0.17717093,12.993333
1587563030137,2.0925324,-0.37588966,12.599486
1587563030148,1.6220716,-0.35314476,12.1840925
1587563030158,1.3706805,-0.19871874,11.760319
1587563030170,1.3706805,-0.19871874,11.760319
1587563030181,1.3706805,-0.19871874,11.760319
1587563030190,1.2354081,0.029927522,10.454282
1587563030202,1.3335704,-0.1328782,10.176555
1587563030209,1.4772224,-0.22026655,10.105926
1587563030221,1.5358804,-0.31244332,9.916783
1587563030232,1.4951789,-0.45609543,9.677363
1587563030245,1.2198458,-0.50038815,8.847773
1587563030255,1.0726024,-0.34356794,8.48984
1587563030269,0.92895025,-0.30166942,7.9822683
1587563030280,0.7445967,-0.2657564,7.4603324
1587563030290,0.78410107,-0.01316811,6.7253127
1587563030300,0.90979666,0.09696517,6.3709707
1587563030311,1.0749966,0.1388637,5.9807158
1587563030322,1.258153,0.22625206,5.843049
1587563030332,1.4616601,0.24301147,5.825093
1587563030343,1.4748282,0.24660277,5.7257333
1587563030354,1.5215151,0.34356794,5.66947
1587563030366,1.5406688,0.47285482,5.711368
1587563030375,1.4544775,0.62967503,5.639542
1587563030386,1.5406688,0.81283146,5.529409
1587563030398,1.7848774,0.9995792,5.6910176
1587563030410,2.0697873,1.1623849,5.9567738
1587563030420,2.2876596,1.246182,6.363788
1587563030432,2.337938,1.1695676,6.8402343
1587563030443,2.2709002,1.1468226,7.1945763
1587563030454,1.8459295,0.878672,8.39048
1587563030464,1.8459295,0.878672,8.39048
1587563030477,1.4460979,0.8343793,9.197326
1587563030487,1.3814543,0.92416185,9.467871
1587563030497,1.471237,1.0295067,9.76116
1587563030509,1.5729905,1.1911154,10.116699
1587563030520,1.5634137,1.2437878,10.773908
1587563030530,1.543063,1.2641385,11.076775
1587563030542,1.4221559,1.1935096,11.379641
1587563030553,1.2330139,1.1121067,11.702858
1587563030564,1.0977415,0.9576807,12.069171
1587563030574,1.0151415,0.4285621,12.666524
1587563030586,1.1384429,0.427365,12.761095
1587563030596,1.2761095,0.6751649,12.777855
1587563030609,1.34195,0.62967503,12.828133
1587563030625,0.89662856,0.997185,12.708423
1587563030635,0.5710171,0.94092125,12.45344
1587563030646,0.19512744,0.92176765,12.297817
1587563030656,-0.15083471,0.6955156,12.2224
1587563030667,-0.33997664,0.20231004,12.241553
1587563030679,-0.35075054,-0.30406362,12.406754
1587563030689,-0.34476504,-0.6847417,12.51569
1587563030700,-0.1448492,-1.1563994,13.017275
1587563030710,-0.022744916,-1.3874398,13.332112
1587563030723,-0.055066638,-1.6819267,13.193249
1587563030732,-0.089782566,-1.7860745,12.811374
1587563030743,-0.11492168,-1.567005,12.218808
1587563030754,-0.6356605,-0.7649474,9.721656
1587563030762,-0.6356605,-0.7649474,9.721656
1587563030774,-0.7098808,-0.45250413,8.881291
1587563030784,-0.7098808,-0.37708676,8.734048
1587563030796,-0.61171854,-0.34835634,8.514978
1587563030809,-0.5626374,-0.40222588,8.309077
1587563030819,-0.59136784,-0.21787235,8.002619
1587563030831,-0.50996494,-0.110133275,7.73806
1587563030844,-0.4285621,0.08619126,7.393295
1587563030854,-0.41180268,0.4321534,6.862979
1587563030864,-0.34715924,0.6536171,6.621165
1587563030876,-0.23463176,0.8559271,6.4380083
1587563030887,-0.11971009,0.9828198,6.209362
1587563030897,-0.051475335,1.0522517,6.1926026
1587563030909,0.022744916,1.0702082,6.2704144
1587563030919,0.11731588,1.0749966,6.2883706
1587563030931,0.18674773,1.1025299,6.3099184
1587563030941,0.23343466,1.115698,6.319495
1587563030952,0.30526072,1.0965444,6.445191
1587563030965,0.35314476,1.2258313,6.872556
1587563030974,0.58897364,1.1935096,7.089231
1587563030987,0.6332663,1.2258313,7.358579
1587563030997,0.6811504,1.1815386,7.5908165
1587563031008,0.7374141,1.0666169,7.8386164
1587563031019,0.878672,0.92057055,8.265982
1587563031030,1.0223241,0.80564886,8.850166
1587563031043,1.0881647,0.7529764,9.368511
1587563031054,1.1252748,0.5710171,9.631873
1587563031064,1.246182,0.41060558,9.987412
1587563031074,1.448492,0.36990416,10.408792
1587563031086,1.6747441,0.21428105,11.124659
1587563031094,1.7860745,0.18674773,11.57836
1587563031106,1.7286136,0.2693477,11.993753
1587563031118,1.4784195,0.33997664,12.162544
1587563031128,1.2078748,0.6703765,12.293029
1587563031140,0.9600749,0.8774749,12.521675
1587563031151,0.59256494,0.94211835,12.561179
1587563031162,0.39624038,1.1647792,12.410344
1587563031173,0.2896984,1.2545617,12.524069
1587563031184,0.33758244,1.1587936,12.74673
1587563031194,0.3890578,0.89902276,13.008895
1587563031206,0.94211835,-0.2669535,14.367604
1587563031216,1.0259154,-0.51235914,14.656106
1587563031229,0.93254155,-0.7206547,14.6920185
1587563031239,0.7422025,-0.8295909,14.233529
1587563031249,0.36750996,-0.6332663,13.506889
1587563031266,0.8487445,0.08499416,12.209231
1587563031276,1.0187328,0.38307226,11.51611
1587563031286,1.1947067,0.415394,10.795456
1587563031296,1.5526398,0.51714754,10.480618
1587563031305,1.9057846,0.5434838,10.206482
1587563031318,2.1404164,0.45370123,9.96347
1587563031328,2.3666685,0.37948096,9.688137
1587563031339,2.4277205,0.32321724,9.41041
1587563031351,2.397793,0.32680854,9.027337
1587563031361,2.3116016,0.2896984,8.586804
1587563031374,2.0518308,0.34117374,7.9463553
1587563031386,1.9165585,0.31603462,7.5525093
1587563031396,1.7585411,0.29927522,7.169437
1587563031406,1.6699557,0.35434186,6.859388
1587563031415,1.661576,0.40342298,6.519411
1587563031428,1.851915,0.48003745,6.0645127
1587563031438,1.9285295,0.48961425,5.7544637
1587563031449,1.9895816,0.521936,5.60722
1587563031460,2.0147207,0.6703765,5.507861
1587563031471,1.9213469,0.7769185,5.3701944
1587563031483,1.8459295,0.9624691,5.2421045
1587563031494,1.6591818,1.1994951,5.09127
1587563031504,1.5861586,1.4341269,4.969166
1587563031516,1.3467385,1.8770541,5.175067
1587563031526,1.1599907,1.9297266,5.422867
1587563031539,1.0761937,1.8674773,5.7843914
1587563031551,1.115698,1.827973,6.266823
1587563031562,1.1563994,1.7154455,6.8067155
1587563031573,1.2030864,1.520318,7.4136457
1587563031582,1.1587936,1.3874398,7.905654
1587563031593,1.1180922,1.2354081,8.347384
1587563031603,1.1504139,1.1360487,8.832211
1587563031614,1.2413936,1.0761937,9.718064
1587563031626,1.2330139,0.9756372,10.086772
1587563031635,1.1587936,0.878672,10.486604
1587563031648,1.0737995,0.79607207,10.896012
1587563031657,0.89662856,0.60333884,11.6430025
1587563031669,0.7661445,0.40701428,11.8896055
1587563031681,0.7410054,0.16400282,12.027272
1587563031692,0.8475474,-0.06823475,12.228385
1587563031703,1.0127473,-0.20949265,12.361263
1587563031713,1.3575124,0.008379706,12.235568
1587563031726,1.6986861,0.6907272,12.275072
1587563031737,1.4688427,1.3215994,12.202049
1587563031746,0.8726865,1.4628572,11.789049
1587563031759,0.41299978,1.316811,11.549629
1587563031769,0.16879122,1.3958195,11.394006
1587563031780,0.1364695,0.8834604,11.341333
1587563031791,0.25977087,0.15083471,11.611878
1587563031803,0.47884035,-0.59376204,12.0571995
1587563031812,0.9935937,-1.4903905,12.8927765
1587563031824,1.2366052,-2.4229321,14.176068
1587563031836,1.1456255,-2.6204538,14.016854
1587563031846,1.0737995,-2.3199813,13.447034
1587563031859,0.7577648,-1.8579005,12.495338
1587563031864,0.24181437,-1.4065934,11.426328
1587563031879,-0.1364695,-1.091756,10.45069
1587563031888,-0.36272156,-0.92535895,9.619903
1587563031899,-0.36272156,-0.92535895,9.619903
1587563031912,-0.34715924,-0.91458505,9.587581
1587563031921,-0.22026655,-0.8762778,9.636662
1587563031932,-0.2681506,-0.6799533,9.539697
1587563031943,-0.36032736,-0.4381389,8.990228
1587563031954,-0.37229836,0.2717419,7.9511437
1587563031965,-0.38187516,0.60932434,7.392098
1587563031973,-0.34356794,0.8571242,6.8665705
1587563031985,-0.23463176,1.0881647,6.5469446
1587563031995,-0.062249243,1.2940661,6.397307
1587563032006,0.045489833,1.4221559,6.3338604
1587563032020,0.17836803,1.4688427,6.4248405
1587563032030,0.32800564,1.5502456,6.567295
1587563032042,0.37708676,1.5047557,6.8127007
1587563032053,0.47764325,1.496376,6.9970546
1587563032063,0.58418524,1.5598224,7.231686
1587563032076,0.5674258,1.5023615,7.6135616
1587563032082,0.5674258,1.5023615,7.6135616
1587563032094,0.50637364,1.5047557,7.9427643
1587563032107,0.48602295,1.4736311,8.064868
1587563032117,0.62728083,1.2976574,8.607155
1587563032128,0.7757214,1.1348516,8.832211
1587563032139,1.0187328,1.0151415,9.102755
1587563032151,1.2593501,0.8631097,9.378088
1587563032160,1.5191209,0.7757214,9.519346
1587563032171,1.7477672,0.748188,9.655815
1587563032182,1.9728222,0.7086837,9.840169
1587563032191,1.9883845,0.6739678,9.896433
1587563032202,2.0614076,0.61291564,10.163386
1587563032213,2.0135236,0.5674258,10.636241
1587563032225,1.7609353,0.47524905,11.038467
1587563032237,1.3503298,0.12330139,11.896789
1587563032247,1.3144168,0.45609543,12.0093155
1587563032259,1.0965444,0.5722142,12.162544
1587563032271,0.9900024,0.7374141,12.005724
1587563032281,1.1827357,1.3096284,11.84651
1587563032291,1.4269443,1.3587095,12.179304
1587563032303,1.5358804,1.4041992,12.425907
1587563032312,1.5023615,1.1994951,12.5982895
1587563032324,1.520318,0.7386112,13.187263
1587563032335,1.0690111,0.31244332,13.378799
1587563032347,1.0031705,0.38307226,13.540408
1587563032356,0.8690952,0.30885202,13.369223
1587563032369,0.92655605,0.33997664,13.020866
1587563032379,1.2425907,0.5506664,12.617443
1587563032391,1.5286977,0.6991069,12.106281
1587563032401,1.7322049,0.7469909,11.559206
1587563032413,1.8387469,0.7398083,11.060015
1587563032423,1.863886,0.6955156,10.5704
1587563032436,1.5275006,0.45130703,9.624691
1587563032446,1.2892777,0.2705448,9.106346
1587563032456,1.0450691,0.12689269,8.774749
1587563032468,0.80924016,-0.01436521,8.47308
1587563032478,0.62009823,-0.10654198,8.163031
1587563032491,0.5662287,-0.1364695,7.7967176
1587563032501,0.5530606,-0.12330139,7.4495587
1587563032510,0.58298814,-0.039504327,7.050924
1587563032524,0.7457938,0.10654198,6.5625067
1587563032533,0.6332663,0.23822308,6.147113
1587563032547,0.7110779,0.3196259,5.7005944
1587563032559,0.7074866,0.6931214,5.4085016
1587563032569,0.7230489,1.1719618,5.2301335
1587563032578,0.748188,1.3144168,5.1846437
1587563032588,0.79008657,1.4784195,5.2804117
1587563032604,0.8343793,1.769315,5.705383
1587563032616,0.8690952,1.8710686,6.155493
1587563032625,0.7781156,2.0685902,6.564901
1587563032638,0.6380547,2.1511903,7.0485296
1587563032647,0.50517654,2.1332338,7.7440453
1587563032658,0.35434186,2.1667526,8.341399
1587563032669,0.20590134,2.1140802,8.9124155
1587563032680,0.05267244,1.9716251,9.3182335
1587563032691,-0.0047884034,1.8052281,9.836577
1587563032702,-0.0011971008,1.6005238,10.33936
1587563032712,0.05746084,1.412579,10.96305
1587563032723,0.37828386,0.90620536,12.225991
1587563032734,0.5530606,0.6488287,12.828133
1587563032748,0.736217,0.36032736,13.372813
1587563032759,0.93254155,0.053869538,13.696031
1587563032768,1.0833763,-0.22026655,13.807362
1587563032777,1.4221559,-0.25258827,13.169307
1587563032789,1.4221559,-0.25258827,13.169307
1587563032798,1.8423382,0.5243302,12.427104
1587563032809,1.8435353,0.93373865,12.082339
1587563032821,1.6567876,1.1994951,11.743559
1587563032832,1.4532804,1.0522517,11.688493
1587563032844,1.1408371,0.48243165,12.240356
1587563032851,1.1408371,0.48243165,12.240356
1587563032862,0.9636662,-0.34715924,12.376825
1587563032873,0.82599956,-1.1109096,12.8209505
1587563032884,0.93254155,-2.598906,13.772645
1587563032895,0.7769185,-2.9747956,14.045585
1587563032906,0.35434186,-3.3782187,13.779828
1587563032917,0.047884032,-3.2309752,13.236344
1587563032942,-0.7218518,-2.2517467,11.314998
1587563032949,-1.0773908,-1.8794483,10.181343
1587563032958,-1.2449849,-1.5765818,9.326612
1587563032987,-0.7194576,-1.1683705,8.529344
1587563032999,-0.7194576,-1.1683705,8.529344
1587563033010,-0.4357447,-0.93732995,8.383297
1587563033022,-0.30526072,-0.7194576,8.1402855
1587563033030,-0.3196259,-0.11611878,7.1670427
1587563033035,-0.3196259,-0.11611878,7.1670427
1587563033045,-0.2873042,0.18315643,6.7719994
1587563033052,-0.2873042,0.18315643,6.7719994
1587563033064,0.108936176,1.0630256,6.1806316
1587563033074,0.108936176,1.0630256,6.1806316
1587563033085,0.4225766,1.1109096,6.667852
1587563033100,0.5279215,1.1492168,6.82946
1587563033108,0.6631939,1.1959038,6.9527617
1587563033117,0.6631939,1.1959038,6.9527617
1587563033129,0.6919243,1.2689269,6.9862804
1587563033140,0.7697359,1.2785037,7.526173
1587563033152,0.7314286,1.2378023,7.8302364
1587563033161,0.7314286,1.2378023,7.8302364
1587563033172,0.63087213,0.92416185,8.41921
1587563033183,0.5315128,0.8702923,8.9602995
1587563033194,0.45130703,0.712275,9.208099
1587563033207,0.48362875,0.49081135,9.610326
1587563033225,0.51954174,0.5374983,9.725247
1587563033231,0.6727707,0.5662287,9.874885
1587563033240,0.6727707,0.5662287,9.874885
1587563033250,0.93373865,0.61650693,10.656591
1587563033261,1.1432313,0.46447513,10.961852
1587563033270,1.2449849,0.40701428,11.320983
1587563033281,1.2677298,0.33758244,11.659762
1587563033292,1.210269,0.30645782,11.791444
1587563033302,1.0163386,0.2717419,11.939884
1587563033314,0.7721301,0.2693477,12.39957
1587563033324,0.6859388,0.6344634,12.537237
1587563033336,0.44891283,0.78170687,12.66413
1587563033364,0.8583213,1.5765818,11.741165
1587563033370,0.8583213,1.5765818,11.741165
1587563033377,1.2497733,1.7657237,11.759122
1587563033386,1.4281414,1.7046716,11.579556
1587563033394,1.5861586,1.3431472,11.631032
1587563033404,1.6938977,1.1587936,11.9614315
1587563033415,1.4927847,0.9528923,11.992557
1587563033427,1.3227965,0.6907272,11.923124
1587563033437,1.2677298,0.6488287,11.874043
1587563033448,1.2042835,0.664391,11.628637
1587563033465,1.246182,0.7218518,10.746374
1587563033474,1.4041992,0.7589619,10.172963
1587563033485,1.4041992,0.7589619,10.172963
1587563033494,1.6292542,0.5494693,9.767146
1587563033503,1.6292542,0.5494693,9.767146
1587563033515,1.6172832,0.22505496,9.163807
1587563033523,1.6172832,0.22505496,9.163807
1587563033534,1.471237,-0.0047884034,8.632295
1587563033545,1.2629414,-0.130484,8.365341
1587563033557,1.079785,-0.20829555,8.129512
1587563033568,0.94092125,-0.12808979,7.9583263
1587563033579,0.8595184,-0.11731588,7.6734166
1587563033590,0.79726917,-0.046686932,7.3633676
1587563033601,0.8403648,0.08619126,7.1047935
1587563033613,0.92176765,0.23822308,6.791153
1587563033622,0.91219085,0.4141969,6.39611
1587563033636,1.0510546,0.6356605,6.06571
1587563033646,1.0785879,0.7613561,5.919664
1587563033655,1.0845734,0.90620536,5.841852
1587563033667,1.1540052,1.1025299,5.8801594
1587563033678,1.1097125,1.2940661,5.934029
1587563033689,1.0522517,1.4700398,6.005855
1587563033700,1.0319009,1.6101006,6.133945
1587563033711,1.0115502,1.7764976,6.707356
1587563033722,0.9600749,1.7872716,6.991069
1587563033750,0.78888947,1.4700398,8.604761
1587563033776,0.7589619,0.8690952,10.284293
1587563033788,0.7422025,0.736217,10.749966
1587563033799,0.712275,0.6440403,11.148601
1587563033811,0.62847793,0.5566519,11.534067
1587563033822,0.5590461,0.50397944,11.743559
1587563033833,0.4297592,0.48123455,11.908759
1587563033844,0.50757074,0.35673606,12.179304
1587563033856,0.581791,0.2645593,12.23078
1587563033859,0.581791,0.2645593,12.23078
1587563033864,0.7278373,0.07182605,12.321759
1587563033875,0.997185,0.035913024,12.340913
1587563033891,1.4269443,0.37469256,12.235568
1587563033902,1.4987702,0.4213795,12.429498
1587563033914,0.91219085,0.9528923,12.13142
1587563033923,0.91219085,0.9528923,12.13142
1587563033934,-0.17717093,1.2401965,11.676521
1587563033945,-0.51235914,0.78769237,11.680113
1587563033957,-0.51595044,0.23942018,11.907562
1587563033970,-0.46447513,-0.2801216,12.410344
1587563033980,-0.33758244,-0.9648633,12.66413
1587563033993,0.02633622,-1.520318,13.168109
1587563034003,0.23104046,-1.8291701,13.39077
1587563034013,0.33877954,-2.0709844,13.019669
1587563034024,0.34356794,-1.9512744,12.485762
1587563034037,0.19033903,-1.6484078,11.816583
1587563034047,-0.3854665,-1.2988545,10.243592
1587563034057,-0.5422867,-1.2449849,9.864111
1587563034068,-0.59376204,-1.3024458,9.762358
1587563034080,-0.5638345,-1.3958195,9.655815
1587563034089,-0.50517654,-1.4341269,9.510966
1587563034102,-0.47046062,-1.3982137,9.247604
1587563034112,-0.4237737,-1.2533646,8.88608
1587563034123,-0.51475334,-1.055843,8.282741
1587563034136,-0.24181437,-0.30526072,7.2831616
1587563034148,-0.17477672,-0.01436521,6.76362
1587563034157,-0.093373865,0.24660277,6.3230867
1587563034166,0.20709845,0.7565677,5.777209
1587563034179,0.36750996,0.92176765,5.675455
1587563034188,0.52073884,1.009156,5.6431336
1587563034200,0.63087213,1.1420342,5.741296
1587563034208,0.6895301,1.1899183,5.767632
1587563034219,0.7793127,1.174356,5.9663506
1587563034236,0.92416185,1.2904748,6.482301
1587563034247,1.0163386,1.2593501,6.777985
1587563034257,1.0761937,1.2354081,7.216124
1587563034266,1.1348516,1.1659763,7.679402
1587563034275,1.1851299,1.0582372,8.191761
1587563034286,1.2066777,0.92057055,8.589199
1587563034297,1.282095,0.78050977,8.9124155
1587563034309,1.3215994,0.7769185,9.228451
1587563034317,1.3874398,0.81642276,9.582792
1587563034327,1.3491327,0.830788,9.793482
1587563034339,1.4640543,0.830788,10.06283
1587563034350,1.5622166,0.9816227,10.30225
1587563034361,1.7369933,1.0414777,10.460267
1587563034373,2.0123265,1.1228806,10.742783
1587563034384,2.2026656,1.2354081,11.678916
1587563034395,1.7932571,1.0702082,12.394782
1587563034406,1.5047557,0.961272,12.8448925
1587563034420,1.2892777,1.0845734,13.092692
1587563034423,0.90859956,1.2868834,13.046005
1587563034436,0.6739678,1.283292,13.016078
1587563034448,0.6332663,1.6998832,12.605472
1587563034458,0.8858546,1.9237411,12.637794
1587563034469,1.1623849,2.0278888,12.50731
1587563034480,1.4137762,1.982399,12.445061
1587563034491,1.7357962,1.7465701,12.629414
1587563034502,1.9608512,1.4772224,12.872425
1587563034513,2.0231004,1.1133038,13.103466
1587563034524,1.7621324,0.44651863,13.273455
1587563034532,1.7621324,0.44651863,13.273455
1587563034544,1.6555905,0.04309563,13.192051
1587563034555,1.6699557,-0.15442601,13.012486
1587563034566,1.7345991,-0.2837129,12.7814455
1587563034576,1.875857,-0.36511576,12.37922
1587563034587,1.9788077,-0.3842694,11.859678
1587563034598,2.0458453,-0.40222588,11.341333
1587563034609,2.042254,-0.36511576,10.694899
1587563034620,1.9620483,-0.35434186,10.047267
1587563034632,1.4700398,-0.2741361,8.651448
1587563034639,1.2497733,-0.18315643,8.082825
1587563034650,1.0737995,-0.06344634,7.5704656
1587563034661,0.93493575,0.007182605,7.0820484
1587563034672,0.8810662,0.061052144,6.6846113
1587563034683,0.8798691,0.11851298,6.3242836
1587563034694,1.0630256,0.23343466,6.003461
1587563034705,1.0785879,0.260968,5.9148755
1587563034716,1.1252748,0.25737667,5.8502316
1587563034727,1.1731589,0.36870706,5.804742
1587563034737,1.1300632,0.48841715,5.707777
1587563034748,1.033098,0.59974754,5.5485625
1587563034759,0.90979666,0.7793127,5.463568
1587563034770,0.7589619,1.0043676,5.3737855
1587563034781,0.5554548,1.2425907,5.3115363
1587563034792,0.37349546,1.508347,5.4444146
1587563034803,0.2705448,1.7776948,5.559336
1587563034814,0.09935937,2.1883004,5.907693
1587563034825,-0.021547815,2.327164,6.271611
1587563034836,-0.12928689,2.303222,6.600814
1587563034846,-0.21068975,2.2744915,7.529764
1587563034857,-0.21547815,1.9871874,8.079233
1587563034868,-0.11133038,1.757344,8.616732
1587563034879,0.01436521,1.4891934,9.233239
1587563034890,0.17357962,1.3311762,9.871294
1587563034902,0.32321724,1.1121067,10.484209
1587563034911,0.38067806,0.89423436,11.113884
1587563034922,0.439336,0.7218518,11.683704
1587563034933,0.41299978,0.62608373,11.963826
1587563034945,0.39384618,0.50996494,12.154165
1587563034957,0.4189853,0.5267244,12.014104
1587563034964,0.6404489,0.48123455,11.951855
1587563034975,0.6404489,0.48123455,11.951855
1587563034986,0.6404489,0.48123455,11.951855
1587563034998,0.6404489,0.48123455,11.951855
1587563035010,1.5071499,1.3503298,12.129025
1587563035022,1.353921,1.3323733,12.247539
1587563035032,1.1755531,1.2725182,12.374432
1587563035045,0.5554548,0.48362875,12.501324
1587563035054,0.5662287,-0.14844051,12.972981
1587563035065,0.5674258,-0.7589619,13.468581
1587563035075,0.7326257,-1.3563153,14.194025
1587563035091,0.6859388,-2.0697873,13.891158
1587563035098,0.5398925,-2.1092918,13.488933
1587563035107,0.39863458,-1.9177556,12.864046
1587563035118,0.2813187,-1.7405846,12.252327
1587563035129,-0.08619126,-1.4975731,11.602302
1587563035140,-0.37828386,-1.4879963,11.150994
1587563035152,-0.5758055,-1.3946224,11.063606
1587563035163,-0.82240826,-1.246182,11.020511
1587563035176,-1.4616601,-1.0498575,10.454282
1587563035181,-1.4616601,-1.0498575,10.454282
1587563035196,-1.5825673,-0.4237737,9.5013895
1587563035209,-1.5023615,-0.11731588,9.015367
1587563035218,-1.3910311,0.12689269,8.49343
1587563035227,-1.2653356,0.34356794,7.98586
1587563035238,-1.1384429,0.5793968,7.5932107
1587563035249,-0.93613285,0.8391677,7.147889
1587563035260,-0.7757214,1.0079589,6.7971387
1587563035271,-0.6596026,1.1647792,6.4846954
1587563035283,-0.39384618,1.2808979,6.2728086
1587563035294,0.022744916,1.3838485,6.172252
1587563035310,0.36032736,1.3096284,6.4966664
1587563035316,0.46567222,1.2617443,6.587646
1587563035325,0.62608373,1.3000516,6.7708025
1587563035337,0.7745243,1.3623008,6.956353
1587563035346,0.8355764,1.3491327,7.111976
1587563035357,0.8738836,1.3108255,7.261614
1587563035368,0.8726865,1.3120226,7.4028716
1587563035379,0.830788,1.271321,7.5165963
1587563035390,0.7649474,1.1839328,7.6626425
1587563035399,0.7433996,1.1049241,7.9128366
1587563035410,0.80684596,1.0761937,8.2516165
1587563035421,0.878672,1.0031705,8.546103
1587563035432,0.94930094,0.9576807,8.847773
1587563035445,0.997185,0.9959879,9.23683
1587563035454,1.1085154,1.1599907,9.404425
1587563035466,1.1085154,1.1599907,9.404425
1587563035477,1.2749124,1.5191209,9.8042555
1587563035488,1.3239936,1.6711528,10.041282
1587563035499,1.2306197,1.6412252,10.406398
1587563035508,0.9504981,1.5693992,10.777499
1587563035519,0.7697359,1.4640543,11.562798
1587563035530,0.2885013,1.2904748,12.179304
1587563035541,-0.34715924,1.2162545,13.091495
1587563035553,-0.7206547,1.1875241,13.283031
1587563035563,-0.62488663,1.6723499,12.929886
1587563035575,-0.095768064,1.8327614,12.993333
1587563035608,1.2138603,1.0474633,14.045585
1587563035630,1.1839328,0.2741361,14.660894
1587563035633,1.1839328,0.2741361,14.660894
1587563035644,1.021127,0.011971008,14.589068
1587563035672,0.9708488,-0.09696517,13.423092
1587563035676,1.3718776,-0.03232172,12.917915
1587563035684,1.8327614,0.02633622,12.48217
1587563035695,2.1799207,-0.03232172,12.045229
1587563035706,2.36188,-0.11133038,11.542446
1587563035717,2.469619,-0.1316811,11.09473
1587563035728,2.4971523,-0.07182605,10.54167
1587563035739,2.3391352,-0.061052144,9.877279
1587563035750,2.088941,-0.044292733,9.161413
1587563035759,1.8315643,0.0035913025,8.452729
1587563035770,1.4329298,0.07182605,7.1754227
1587563035781,1.3132197,0.18195933,6.671443
1587563035792,1.2246342,0.21547815,6.143522
1587563035803,1.2665327,0.30406362,5.8023477
1587563035814,1.2940661,0.40940848,5.044583
1587563035845,1.1563994,0.6739678,4.867412
1587563035850,1.1563994,0.6739678,4.867412
1587563035857,1.0103531,0.7170634,4.88896
1587563035866,0.878672,0.8415619,5.0421886
1587563035879,0.7254431,0.9780314,5.139154
1587563035888,0.7074866,1.1061212,5.2085857
1587563035899,0.6619968,1.2378023,5.4647655
1587563035910,0.7445967,1.3862427,5.7963624
1587563035921,0.7721301,1.541866,5.9962783
1587563035931,0.79607207,1.6460136,6.069301
1587563035959,0.78769237,2.160767,7.302315
1587563035966,0.6799533,2.1942859,7.6734166
1587563035973,0.6799533,2.1942859,7.6734166
1587563035982,0.59974754,2.2397757,8.175002
1587563035995,0.60094464,1.9416976,9.864111
1587563036004,0.78649527,1.7908629,10.455479
1587563036015,1.0618285,1.6998832,11.182119
1587563036026,1.2162545,1.590947,11.6908865
1587563036038,1.3323733,1.5514427,12.046426
1587563036049,1.3120226,1.5933412,12.197261
1587563036060,1.3467385,1.6543933,12.210428
1587563036071,1.448492,1.7262194,12.309788
1587563036102,1.7310078,1.8794483,12.39957
1587563036109,1.8387469,1.8195933,12.617443
1587563036127,1.7274165,2.018312,12.576741
1587563036135,1.5490485,1.9273324,12.557588
1587563036144,1.2497733,1.8267759,12.319365
1587563036156,0.8583213,1.3826514,12.247539
1587563036167,0.6679823,0.6823475,12.304999
1587563036178,0.6572084,-0.08738836,12.642582
1587563036189,0.7062895,-0.82719666,13.038822
1587563036200,1.0175357,-1.5011644,13.4183035
1587563036210,1.2413936,-2.0039468,13.966576
1587563036250,-0.36631286,-1.4161704,11.10311
1587563036260,-0.94451255,-1.1252748,10.241198
1587563036271,-1.3263878,-0.8487445,9.5492735
1587563036283,-1.4257472,-0.6775591,9.163807
1587563036294,-1.3180081,-0.5590461,8.969876
1587563036305,-1.1587936,-0.5506664,8.820239
1587563036317,-0.93014735,-0.4429273,8.760384
1587563036330,-0.7254431,-0.22625206,8.595184
1587563036342,-0.58418524,0.0035913025,8.076839
1587563036345,-0.37948096,0.29807812,7.514202
1587563036351,-0.37948096,0.29807812,7.514202
1587563036370,0.0035913025,0.8391677,6.754043
1587563036377,0.10534488,0.9720459,6.265626
1587563036388,0.33039984,1.1061212,6.129156
1587563036399,0.5674258,1.270124,6.081272
1587563036410,0.7625532,1.3395559,6.0621185
1587563036421,0.8690952,1.3311762,6.1112
1587563036432,1.0103531,1.3730747,6.3578024
1587563036443,1.1252748,1.3982137,6.573281
1587563036454,1.0582372,1.6340426,7.08564
1587563036465,0.94930094,1.7154455,7.2484455
1587563036475,0.8607155,1.757344,7.369353
1587563036488,0.770933,1.851915,7.5453267
1587563036498,0.6596026,1.8411411,7.735666
1587563036508,0.61052144,1.780089,8.012196
1587563036520,0.62728083,1.7058687,8.35337
1587563036529,0.7194576,1.6220716,8.765172
1587563036541,0.7338228,1.5191209,9.001001
1587563036553,0.9636662,1.4999673,9.309854
1587563036562,1.1803415,1.5693992,9.592369
1587563036574,1.4568717,1.6053122,9.821015
1587563036582,1.6340426,1.6938977,10.111911
1587563036594,1.7896658,1.7154455,10.412383
1587563036606,2.0530279,1.8124107,11.186908
1587563036616,1.9883845,1.7788919,11.52449
1587563036628,1.8064252,1.6053122,11.991359
1587563036638,1.5107412,1.4413095,12.419921
1587563036650,1.352724,1.4640543,12.8688345
1587563036660,1.2354081,1.6891093,13.204022
1587563036672,0.9528923,1.6448165,13.192051
1587563036682,0.91578215,1.9871874,12.749125
1587563036694,1.8459295,2.1918917,12.460623
1587563036704,2.0231004,1.7381904,12.533646
1587563036716,2.267309,1.340753,12.998121
1587563036726,2.0566192,0.8295909,13.506889
1587563036738,1.745373,0.34476504,13.375208
1587563036749,1.70946,0.049081136,13.698425
1587563036759,1.7357962,-0.045489833,13.755886
1587563036771,1.6639702,-0.20470424,13.2351465
1587563036781,1.7465701,-0.21906945,12.570756
1587563036793,1.9859903,-0.02633622,12.026075
1587563036802,2.0721815,0.12449849,11.337742
1587563036814,1.9608512,0.1604115,9.7803135
1587563036824,1.9608512,0.1604115,9.7803135
1587563036836,1.9021933,0.16519992,8.973468
1587563036847,1.7908629,0.04189853,8.7292595
1587563036857,1.7262194,-0.037110128,8.686164
1587563036869,1.6232687,-0.15322891,8.582016
1587563036879,1.5179238,-0.2896984,8.3629465
1587563036890,1.5059528,-0.29448682,8.079233
1587563036903,1.4556746,-0.23104046,7.6602483
1587563036909,1.4161704,-0.1340753,7.2268977
1587563036922,1.1444284,0.17597382,6.30513
1587563036935,0.973243,0.31004912,5.8562174
1587563036946,0.830788,0.46208093,5.530606
1587563036956,0.6572084,0.91817635,5.357026
1587563036965,0.5650316,1.0785879,5.2037973
1587563036976,0.5686229,1.2629414,5.1642933
1587563036988,0.5530606,1.4460979,5.1882353
1587563036999,0.5626374,1.6879122,5.115212
1587563037010,0.6344634,1.8531121,5.2804117
1587563037019,0.5746084,2.0003555,5.231331
1587563037031,0.533907,2.1296425,5.3462524
1587563037046,0.36511576,2.4181437,6.06571
1587563037055,0.23343466,2.4157495,6.6522894
1587563037064,0.1604115,2.4013844,7.4088573
1587563037075,0.1448492,2.2828712,8.10557
1587563037087,0.11133038,2.0901382,8.7125
1587563037095,0.24061728,1.8471266,9.412804
1587563037106,0.44532153,1.661576,10.139444
1587563037117,0.46447513,1.4209588,10.649409
1587563037126,0.46567222,1.1671734,11.227609
1587563037137,0.3878607,1.0055647,11.816583
1587563037148,-0.037110128,0.7218518,12.503718
1587563037159,-0.046686932,0.7278373,12.917915
1587563037170,-0.08619126,0.7074866,12.891579
1587563037181,0.075417355,0.878672,12.653356
1587563037192,0.5303157,1.0833763,12.872425
1587563037203,1.0307038,1.353921,13.024457
1587563037215,0.92057055,0.9600749,13.1717005
1587563037227,0.62728083,0.6811504,13.232753
1587563037234,0.4249708,0.18315643,13.3225355
1587563037246,0.47046062,-0.40701428,13.496115
1587563037258,0.6667852,-1.0773908,13.885173
1587563037269,0.94690675,-1.5035586,13.826515
1587563037280,1.5765818,-1.7992426,14.068329
1587563037292,2.2242134,-1.6424223,14.148535
1587563037303,2.4073699,-1.7082629,14.126987
1587563037313,2.2768857,-1.5107412,13.729549
1587563037326,1.520318,-0.6835446,12.471396
1587563037336,0.6967127,-0.2861071,11.646594
1587563037349,-0.90620536,0.08020575,10.030508
1587563037359,-0.90620536,0.08020575,10.030508
1587563037371,-1.7262194,0.16519992,9.099164
1587563037380,-1.9165585,0.049081136,8.842984
1587563037392,-1.9009962,-0.051475335,8.723274
1587563037403,-1.7250223,-0.17357962,8.945934
1587563037413,-1.520318,-0.2633622,9.01417
1587563037424,-1.1971009,-0.40940848,8.693346
1587563037436,-0.9636662,-0.29807812,8.388085
1587563037445,-0.80086046,-0.1364695,8.000225
1587563037458,-0.6859388,-0.02873042,7.5405383
1587563037468,-0.5650316,0.107739076,7.1969705
1587563037479,-0.49320555,0.17118542,6.9383965
1587563037490,-0.35553896,0.21068975,6.884527
1587563037501,-0.1592144,0.33518824,6.789956
1587563037512,-0.04189853,0.34117374,6.6546836
1587563037523,0.108936176,0.37588966,6.7324953
1587563037534,0.23104046,0.50038815,6.7109475
1587563037546,0.2801216,0.59256494,6.781576
1587563037556,0.29448682,0.7398083,6.7324953
1587563037569,0.33877954,0.8643068,6.8162923
1587563037579,0.2908955,0.9588778,6.9491706
1587563037591,0.25498247,1.0342951,6.9527617
1587563037601,0.272939,1.1192893,7.1706343
1587563037611,0.29209262,1.0857705,7.8709383
