@ HyperIMU -ianovir - 2018
@ Date:Wed Apr 22 15:46:16 GMT+02:00 2020, Sampling Rate:10ms

timestamp,K6DS3TR_Accelerometer.x,K6DS3TR_Accelerometer.y,K6DS3TR_Accelerometer.z
1587563176684,0.0,0.0,0.0
1587563176695,0.0,0.0,0.0
1587563176706,0.0,0.0,0.0
1587563176717,0.0,0.0,0.0
1587563176728,-0.3184288,1.8842367,9.497798
1587563176739,-0.3184288,1.8842367,9.497798
1587563176750,-0.18435353,1.8183962,9.428367
1587563176761,0.1340753,1.7561469,9.720459
1587563176772,0.20709845,1.8064252,9.898827
1587563176783,0.25019407,1.6843209,9.800665
1587563176794,0.1436521,1.6603789,9.895236
1587563176804,0.1436521,1.6603789,9.895236
1587563176814,-0.25617957,1.2054806,9.14585
1587563176825,-0.35434186,1.1731589,9.312247
1587563176855,-0.36750996,1.411382,9.633071
1587563176858,-0.36631286,1.7549498,9.810242
1587563176865,-0.46208093,1.9189527,9.831789
1587563176875,-0.439336,1.9620483,9.725247
1587563176884,-0.439336,1.9620483,9.725247
1587563176893,-0.48602295,1.9381063,9.537302
1587563176902,-0.5793968,1.9009962,9.526528
1587563176917,-0.8463503,1.9596541,9.54209
1587563176925,-1.0115502,1.9476831,9.627085
1587563176936,-0.93493575,1.8674773,9.554062
1587563176947,-0.7613561,1.9117701,9.606734
1587563176958,-0.7613561,1.9117701,9.606734
1587563176970,-0.5386954,1.9428947,9.7479925
1587563176978,-0.47884035,1.99437,9.800665
1587563176989,-0.44651863,2.0518308,9.635465
1587563177000,-0.48362875,2.0254946,9.715671
1587563177011,-0.5243302,1.9656396,9.679757
1587563177020,-0.5506664,1.934515,9.512163
1587563177031,-0.51714754,1.9189527,9.659407
1587563177042,-0.5434838,1.982399,9.742006
1587563177053,-0.5422867,2.0207062,9.718064
1587563177064,-0.40462008,1.9716251,9.728839
1587563177075,-0.40462008,1.9716251,9.728839
1587563177087,-0.3196259,1.9812019,9.496601
1587563177099,-0.35314476,1.9740193,9.427169
1587563177108,-0.35314476,1.9740193,9.427169
1587563177119,-0.41060558,1.8411411,9.415198
1587563177129,-0.39504328,1.8219875,9.446322
1587563177141,-0.3866636,1.8375498,9.442732
1587563177153,-0.34237084,1.8231846,9.472659
1587563177164,-0.34237084,1.8231846,9.472659
1587563177174,-0.24779987,1.8818425,9.376891
1587563177184,-0.24779987,1.8818425,9.376891
1587563177195,-0.2813187,1.780089,9.324219
1587563177206,-0.2813187,1.70946,9.287108
1587563177217,-0.20829555,1.6915035,9.11712
1587563177228,-0.1436521,1.6891093,9.141062
1587563177237,-0.094570965,1.6639702,9.190144
1587563177248,-0.09816227,1.5849615,9.228451
1587563177259,-0.061052144,1.5442601,9.220071
1587563177270,0.1340753,1.5837644,9.370906
1587563177281,0.32561144,1.6699557,9.399636
1587563177292,0.50517654,1.7657237,9.463082
1587563177304,0.7038953,1.7537527,9.589975
1587563177315,0.80205756,1.5394717,9.776723
1587563177326,0.32321724,1.472434,9.945514
1587563177337,-0.23582886,1.0486604,9.752781
1587563177347,-0.46447513,0.79248077,9.755175
1587563177358,-0.3878607,0.82480246,9.087193
1587563177369,-0.2861071,0.8403648,9.1590185
1587563177380,-0.049081136,1.1049241,9.309854
1587563177391,0.10654198,1.2940661,9.270349
1587563177403,0.04309563,1.353921,9.339781
1587563177412,-0.031124622,1.2952632,9.368511
1587563177423,-0.1400608,1.2078748,9.516952
1587563177434,-0.40102878,1.079785,9.464279
1587563177445,-0.92416185,0.6452374,9.039309
1587563177455,-0.92416185,0.6452374,9.039309
1587563177466,-0.8678981,0.7338228,9.415198
1587563177477,-0.79367787,0.9564836,9.531317
1587563177488,-0.7074866,1.0785879,9.625888
1587563177500,-0.5422867,1.0642227,9.896433
1587563177509,-0.5710171,1.0582372,10.038888
1587563177520,-0.60333884,1.067814,9.958682
1587563177531,-0.724246,0.9660604,9.81503
1587563177543,-0.80205756,0.82480246,9.728839
1587563177554,-0.80804306,0.81402856,9.618706
1587563177564,-0.7613561,0.8595184,9.482236
1587563177576,-0.7410054,1.0378864,9.775525
1587563177585,-0.7026982,1.1587936,9.787497
1587563177597,-0.6428431,1.2617443,9.935937
1587563177609,-0.60453594,1.3096284,10.0269165
1587563177619,-0.5662287,1.2725182,9.988609
1587563177631,-0.664391,1.2042835,9.910798
1587563177640,-0.664391,1.2042835,9.910798
1587563177651,-0.748188,1.1288661,9.710882
1587563177663,-0.641646,1.1049241,9.682152
1587563177670,-0.5793968,1.1300632,9.742006
1587563177681,-0.5626374,1.1947067,9.697714
1587563177692,-0.7230489,1.2689269,9.581595
1587563177704,-0.8678981,1.3359646,9.776723
1587563177715,-0.6835446,1.3455414,9.892841
1587563177727,-0.7170634,1.103727,9.890448
1587563177739,-0.7170634,1.103727,9.890448
1587563177749,-0.93972415,0.79008657,9.716867
1587563177761,-0.7110779,0.8714894,9.685743
1587563177771,-0.46567222,0.9923966,9.792285
1587563177783,-0.2753332,0.9911995,9.807847
1587563177793,-0.25737667,0.9564836,9.946711
1587563177805,-0.2825158,1.0450691,10.196905
1587563177815,-0.49919105,1.1851299,10.035296
1587563177827,-0.50397944,1.0498575,9.922769
1587563177838,-0.50397944,1.0498575,9.922769
1587563177847,-0.40222588,1.1468226,9.895236
1587563177859,-0.48003745,1.292869,9.949105
1587563177871,-0.5542577,1.3958195,9.929952
1587563177881,-0.5363012,1.4544775,9.913192
1587563177893,-0.48602295,1.435324,9.977836
1587563177904,-0.4417302,1.3443443,9.913192
1587563177922,-0.44891283,1.3503298,9.862914
1587563177930,-0.50757074,1.423353,9.781511
1587563177939,-0.5231331,1.3862427,9.788693
1587563177949,-0.5422867,1.3790601,10.020931
1587563177958,-0.6775591,1.3299791,9.805453
1587563177969,-0.7086837,1.2330139,9.7084875
1587563177980,-0.6715736,1.1587936,9.537302
1587563177994,-0.59855044,1.1468226,9.618706
1587563177998,-0.45729253,1.2006922,9.854534
1587563178013,-0.4201824,1.2749124,9.900024
1587563178024,-0.7457938,1.1827357,9.809045
1587563178037,-0.6655881,1.2006922,9.811439
1587563178047,-0.47405192,1.2665327,9.973047
1587563178057,-0.47405192,1.2665327,9.973047
1587563178067,-0.4249708,1.0522517,9.925163
1587563178079,-0.5614403,0.90500826,9.853337
1587563178089,-0.5614403,0.90500826,9.853337
1587563178101,-0.59615624,0.7182605,9.563639
1587563178109,-0.48722005,0.6560113,10.04607
1587563178120,-0.31244332,1.1659763,9.411607
1587563178132,-0.34476504,1.271321,9.295488
1587563178144,-0.37110126,1.1133038,9.363723
1587563178154,-0.36272156,1.0295067,9.743204
1587563178168,-0.47524905,1.0582372,9.931149
1587563178179,-0.45250413,0.9672575,9.888053
1587563178189,-0.45250413,0.9672575,9.888053
1587563178199,-0.39025488,0.8655039,9.604341
1587563178208,-0.36990416,0.8822633,9.340978
1587563178222,-0.31603462,0.7314286,9.107543
1587563178231,-0.21547815,0.6464345,9.351752
1587563178243,-0.08020575,0.7302315,9.629479
1587563178252,-0.06823475,0.7661445,9.737218
1587563178264,-0.22744916,0.62728083,9.866506
1587563178276,-0.4429273,0.40701428,9.801862
1587563178286,-0.4429273,0.40701428,9.801862
1587563178298,-0.5734113,0.4441244,9.718064
1587563178308,-0.6404489,0.47644615,9.785102
1587563178320,-0.6464345,0.63206923,9.515755
1587563178329,-0.736217,0.81881696,9.38168
1587563178342,-0.61650693,1.1851299,9.442732
1587563178352,0.015562311,0.78769237,9.425972
1587563178364,-0.130484,0.8391677,9.904813
1587563178375,-0.30526072,1.6280571,10.933122
1587563178385,-0.30526072,1.6280571,10.933122
1587563178395,-1.0402806,1.5622166,9.289502
1587563178414,-1.6519991,1.3072342,9.301474
1587563178424,-1.8052281,1.4173675,9.352949
1587563178433,-1.8052281,1.4173675,9.352949
1587563178447,-2.0482395,0.7661445,9.762358
1587563178456,-1.8255788,0.62608373,10.259154
1587563178467,-1.8650831,1.0522517,10.338163
1587563178479,-1.6759412,0.81642276,9.775525
1587563178490,-1.5023615,0.31483752,9.428367
1587563178500,-1.3503298,0.18315643,9.284714
1587563178512,-1.2413936,0.34835634,9.165004
1587563178524,-1.270124,0.5530606,9.127894
1587563178534,-1.4173675,0.7422025,9.197326
1587563178544,-1.6244658,0.7314286,9.323022
1587563178556,-1.9955671,0.59376204,10.0987425
1587563178566,-2.1188686,0.61411273,9.817424
1587563178578,-2.0805612,0.62129533,9.465476
1587563178588,-2.0805612,0.62129533,9.465476
1587563178600,-1.9153614,0.6392518,9.099164
1587563178610,-1.8495208,0.6488287,9.223662
1587563178622,-1.7238252,0.6835446,9.4535055
1587563178632,-1.5490485,0.8655039,9.718064
1587563178644,-1.163582,1.0103531,10.147824
1587563178654,-0.9768343,1.0522517,10.411186
1587563178666,-1.1899183,0.90740246,10.284293
1587563178676,-1.5251064,0.9564836,9.8198185
1587563178688,-1.9021933,1.1623849,9.931149
1587563178699,-1.9369092,1.0163386,9.911995
1587563178709,-1.7633295,0.93014735,9.283517
1587563178720,-1.7633295,0.93014735,9.283517
1587563178733,-0.94570965,0.8750807,9.387665
1587563178743,-0.6739678,0.6476316,9.533711
1587563178753,-1.1887212,0.7194576,9.91798
1587563178765,-1.7310078,1.2330139,9.618706
1587563178773,-2.1452048,1.6220716,9.193734
1587563178786,-1.7932571,1.4532804,8.649054
1587563178796,-1.4389153,1.0498575,9.077616
1587563178809,-1.2114661,1.0522517,9.1255
1587563178819,-1.2114661,1.0522517,9.1255
1587563178829,-0.81163436,0.6871359,9.111135
1587563178841,-0.7493851,0.28491,9.23683
1587563178851,-0.7302315,0.4165911,9.637859
1587563178864,-0.7793127,0.7445967,9.568427
1587563178874,-0.58298814,0.41299978,9.376891
1587563178886,-0.22864626,0.30885202,9.388862
1587563178898,-0.11611878,0.4405331,10.097546
1587563178908,-0.24899697,0.40342298,10.199299
1587563178918,-0.24899697,0.40342298,10.199299
1587563178929,-0.6739678,0.58418524,9.88925
1587563178941,-0.8367735,0.664391,9.707291
1587563178950,-0.8714894,0.7326257,9.652225
1587563178961,-0.8738836,0.7218518,9.600749
1587563178972,-0.9504981,0.760159,9.568427
1587563178983,-0.9900024,0.7577648,9.516952
1587563178992,-0.91219085,0.62608373,9.740809
1587563179004,-0.89184016,0.47884035,9.7803135
1587563179016,-1.0965444,0.5746084,9.878476
1587563179026,-0.9756372,-0.010773907,9.874885
1587563179037,-0.8595184,-0.0035913025,9.996989
1587563179048,-0.63087213,0.4249708,9.728839
1587563179059,-0.7781156,0.6835446,10.351331
1587563179071,-1.0845734,0.8511387,10.109517
1587563179080,-1.282095,1.0402806,9.783905
1587563179106,-1.4449008,1.2162545,9.375694
1587563179117,-1.4449008,1.2162545,9.375694
1587563179128,-1.6376339,1.1851299,9.576807
1587563179139,-1.5346833,0.91458505,9.776723
1587563179143,-1.5346833,0.91458505,9.776723
1587563179155,-1.1348516,0.93852705,9.706094
1587563179163,-1.1348516,0.93852705,9.706094
1587563179174,-0.93254155,0.93254155,9.7863
1587563179183,-0.8846575,0.9911995,9.76954
1587563179192,-0.80684596,0.973243,9.78989
1587563179202,-0.7314286,0.8858546,10.141838
1587563179213,-0.49919105,1.0139444,9.964667
1587563179224,-0.34117374,1.0606314,10.04607
1587563179236,-0.39145198,1.1719618,9.793482
1587563179246,-0.37948096,1.258153,9.860519
1587563179257,-0.2813187,1.2449849,9.731233
1587563179269,-0.2813187,1.2449849,9.731233
1587563179279,-0.7290344,1.2174516,9.08001
1587563179291,-0.81522566,1.1444284,9.372103
1587563179301,-0.6631939,1.2318168,9.467871
1587563179313,-0.62847793,1.2425907,9.449914
1587563179321,-0.40940848,1.1540052,9.56723
1587563179335,0.1388637,0.62847793,9.908403
1587563179346,0.5291186,0.51235914,9.987412
1587563179356,0.6536171,0.5446809,10.02572
1587563179366,0.6536171,0.5446809,10.02572
1587563179377,0.7062895,0.39743748,10.123882
1587563179389,0.521936,0.25139117,9.913192
1587563179399,0.3196259,0.2825158,9.871294
1587563179410,0.07182605,0.40581718,9.625888
1587563179421,-0.009576807,0.40821138,9.555259
1587563179430,0.107739076,0.46806642,9.619903
1587563179442,-0.04309563,0.8523358,10.68652
1587563179453,-0.022744916,1.3192052,10.419566
1587563179464,0.061052144,0.6859388,9.822212
1587563179475,-0.21188685,0.06703765,9.077616
1587563179486,-0.63206923,0.49200845,9.197326
1587563179497,-0.8295909,0.5374983,9.101558
1587563179509,-0.80804306,0.44651863,8.872911
1587563179521,-0.46208093,0.29927522,8.412027
1587563179531,-0.17238252,0.23942018,8.516175
1587563179543,-0.23343466,0.4225766,9.222465
1587563179554,-0.1376666,0.33518824,9.540894
1587563179564,0.07062895,0.023942016,9.716867
1587563179577,0.5374983,-0.1340753,10.752359
1587563179587,0.8379706,-0.1436521,10.739192
1587563179597,0.8379706,-0.1436521,10.739192
1587563179609,0.6751649,-0.19871874,10.418368
1587563179620,0.8523358,-0.0047884034,10.311827
1587563179631,0.88944596,0.046686932,10.500969
1587563179641,0.6536171,0.090979666,10.635044
1587563179653,1.3814543,0.039504327,9.94312
1587563179662,1.3024458,-0.034715924,9.791088
1587563179674,1.3012487,0.17836803,9.896433
1587563179685,1.2868834,0.32321724,9.636662
1587563179700,0.94930094,0.5303157,9.677363
1587563179709,0.6404489,0.7230489,9.702502
1587563179719,0.41060558,0.8714894,9.5971575
1587563179728,0.23463176,1.0450691,9.226056
1587563179738,0.19393034,1.13964,9.119514
1587563179749,0.19393034,1.13964,9.119514
1587563179758,-0.4417302,1.1827357,9.063251
1587563179769,-0.46686932,1.2497733,8.959103
1587563179780,-0.32561144,1.1180922,9.283517
1587563179790,-0.23463176,0.9923966,9.287108
1587563179805,-0.5374983,0.60573304,9.362526
1587563179815,-0.5374983,0.60573304,9.362526
1587563179826,-1.0845734,0.5674258,9.202114
1587563179836,-1.1887212,0.5374983,9.285912
1587563179848,-1.1887212,0.5374983,9.285912
1587563179858,-1.2497733,0.20231004,9.368511
1587563179871,-1.4676456,-0.059855044,9.203311
1587563179881,-2.0709844,0.427365,9.810242
1587563179891,-2.753332,0.8690952,10.080787
1587563179903,-2.7377696,1.4065934,9.79827
1587563179913,-2.907758,1.079785,9.64983
1587563179926,-3.3255463,1.2150574,9.515755
1587563179936,-3.1136594,1.1731589,9.925163
1587563179946,-3.1136594,1.1731589,9.925163
1587563179958,-2.1332338,0.33518824,11.062409
1587563179968,-1.7417817,0.61770403,10.803835
1587563179980,-1.7549498,0.7433996,10.092757
1587563179990,-1.7381904,0.82480246,9.404425
1587563180009,-0.9516952,0.90740246,8.822633
1587563180021,-0.664391,1.0642227,9.115923
1587563180028,-1.4101849,0.2789245,9.209297
1587563180037,-1.7465701,0.81761986,10.04607
1587563180046,-1.7465701,0.81761986,10.04607
1587563180056,-1.9273324,0.62249243,9.842564
1587563180066,-2.1667526,0.89423436,9.645041
1587563180077,-2.3678656,1.401805,9.443929
1587563180086,-2.3175871,1.4437037,9.143456
1587563180097,-2.3175871,1.4437037,9.143456
1587563180108,-2.1380222,1.0223241,9.006987
1587563180119,-2.0769699,0.8463503,9.463082
1587563180129,-1.9201498,0.8702923,10.006566
1587563180140,-1.5777789,0.78170687,10.238804
1587563180153,-1.3850456,0.61890113,10.335769
1587563180165,-1.2785037,0.8475474,10.3932295
1587563180175,-1.5502456,0.91338795,10.04607
1587563180187,-1.6903064,0.7469909,9.616311
1587563180195,-1.6903064,0.7469909,9.616311
1587563180207,-1.5897499,0.36032736,9.566033
1587563180220,-1.4089876,0.36870706,10.053253
1587563180230,-1.1408371,0.46208093,10.376471
1587563180240,-1.0630256,0.3866636,10.517728
1587563180253,-1.2330139,0.7637503,10.011354
1587563180263,-1.3036429,0.8463503,9.827001
1587563180273,-1.543063,0.973243,9.8042555
1587563180285,-1.7106571,1.2761095,9.54209
1587563180295,-1.7106571,1.2761095,9.54209
1587563180307,-1.851915,0.81163436,8.0445175
1587563180318,-2.042254,-0.050278235,8.000225
1587563180328,-1.2042835,-0.073023155,8.893262
1587563180340,-0.12808979,0.17477672,9.603143
1587563180350,0.46926352,-0.0047884034,9.782708
1587563180362,0.5793968,-0.38187516,9.755175
1587563180374,0.50397944,-0.5746084,9.7479925
1587563180384,0.44532153,-0.80684596,10.716447
1587563180393,0.44532153,-0.80684596,10.716447
1587563180405,0.59974754,-0.34356794,10.357317
1587563180412,0.59974754,-0.34356794,10.357317
1587563180423,0.20111294,-0.32202014,10.022128
1587563180434,-1.0510546,0.49799395,9.959879
1587563180445,-1.0510546,0.49799395,9.959879
1587563180456,-1.3144168,0.7505822,9.69532
1587563180467,-1.5179238,0.82719666,9.734824
1587563180478,-1.5658079,1.1312603,9.967062
1587563180490,-1.578976,1.1097125,9.203311
1587563180502,-1.9800048,1.1216835,8.701726
1587563180515,-2.1200657,1.271321,8.63828
1587563180521,-2.0123265,1.4077905,9.103952
1587563180533,-1.8710686,1.3383588,9.0237465
1587563180546,-1.7345991,1.1827357,8.831013
1587563180555,-1.4161704,0.9648633,8.868123
1587563180582,-1.5717934,0.61770403,8.901642
1587563180587,-1.7741034,0.60932434,9.015367
1587563180594,-1.7741034,0.60932434,9.015367
1587563180604,-1.8962077,0.427365,9.7958765
1587563180613,-1.3084313,0.61291564,9.222465
1587563180622,-1.055843,0.38187516,9.354146
1587563180636,-1.3850456,1.1420342,10.1621895
1587563180646,-1.3850456,1.1420342,10.1621895
1587563180656,-1.4664485,1.0259154,9.949105
1587563180669,-1.2330139,0.4429273,10.739192
1587563180678,-1.5334862,1.5023615,8.639477
1587563180693,-1.9740193,1.1348516,10.338163
1587563180703,-2.0961237,0.37110126,11.57836
1587563180714,-2.1140802,-0.076614454,10.332177
1587563180725,-1.8555063,-0.45130703,9.436746
1587563180735,-1.9117701,0.62728083,8.4347725
1587563180747,-1.9117701,0.62728083,8.4347725
1587563180757,-2.1930888,2.3774424,9.3026705
1587563180769,-2.3582888,2.610877,10.078392
1587563180779,-2.3582888,2.610877,10.078392
1587563180791,-2.5761611,2.4277205,9.190144
1587563180801,-2.7629087,1.8303672,8.175002
1587563180814,-2.7952304,1.3862427,7.3789296
1587563180827,-2.8491,1.1767502,7.273585
1587563180837,-2.5893292,0.93732995,7.8170686
1587563180847,-2.5893292,0.93732995,7.8170686
1587563180859,-2.457648,1.2976574,9.634268
1587563180869,-2.6288335,1.3359646,12.156559
1587563180881,-2.4791958,0.94570965,12.472593
1587563180891,-2.110489,0.5410896,9.947908
1587563180903,-2.1200657,0.31124622,8.480263
1587563180913,-2.36188,0.1436521,8.566454
1587563180926,-2.5498247,0.12210429,9.075222
1587563180935,-2.2026656,-0.11372458,9.506178
1587563180947,-1.9273324,0.06344634,8.933964
1587563180957,-1.9237411,0.10534488,8.455123
1587563180970,-2.3822308,0.21308395,7.896077
1587563180980,-2.3822308,0.21308395,7.896077
1587563180990,-3.4883518,0.7386112,8.37013
1587563181002,-3.3913867,0.7637503,10.830172
1587563181013,-2.3403323,0.32920274,12.404359
1587563181024,-0.79966336,0.40581718,11.784261
1587563181033,0.045489833,1.2593501,11.172543
1587563181045,-0.074220255,2.0494366,10.649409
1587563181056,-1.328782,2.4073699,10.824186
1587563181067,-1.4891934,2.0721815,9.999383
1587563181076,-1.4891934,2.0721815,9.999383
1587563181087,-1.210269,0.7326257,8.492233
1587563181098,-1.1599907,0.14844051,8.620323
1587563181108,-1.0426749,-0.17597382,9.113529
1587563181119,-0.89423436,-0.23104046,9.487024
1587563181130,-0.760159,-0.046686932,9.910798
1587563181141,-0.7350199,0.29568392,10.562021
1587563181152,-0.50637364,0.6464345,11.046846
1587563181163,-0.33159694,0.8451532,10.668563
1587563181174,-0.108936176,0.80684596,9.800665
1587563181183,-0.7781156,0.59256494,9.180567
1587563181194,-0.80445176,0.65242,9.143456
1587563181205,-0.79726917,0.8655039,9.928755
1587563181216,-1.0283096,1.0534488,9.762358
1587563181228,-1.0283096,1.0534488,9.762358
1587563181239,-1.7549498,0.7206547,9.050082
1587563181252,-2.243367,0.4381389,8.963891
1587563181262,-2.232593,0.33518824,8.761581
1587563181273,-1.7645266,0.30885202,8.553286
1587563181283,-1.4772224,0.074220255,8.48146
1587563181296,-1.2449849,0.14724341,9.14226
1587563181306,-1.2150574,0.40821138,9.466674
1587563181316,-1.2258313,0.6715736,9.611523
1587563181328,-1.2258313,0.6715736,9.611523
1587563181338,-1.4089876,0.7158663,9.17099
1587563181350,-1.3563153,0.5243302,9.150639
1587563181360,-1.2509704,0.4429273,9.275137
1587563181373,-1.3347675,0.4189853,9.260772
1587563181383,-1.3215994,0.39145198,9.252393
1587563181394,-1.3012487,0.24660277,9.224859
1587563181404,-1.2808979,0.05626374,9.653421
1587563181417,-0.7278373,1.0151415,10.436325
1587563181427,-0.7278373,1.0151415,10.436325
1587563181437,-0.9624691,1.4185646,10.435128
1587563181450,-1.0450691,1.1911154,10.228029
1587563181460,-0.94211835,0.9864111,9.866506
1587563181470,-0.6667852,0.8523358,9.639056
1587563181483,-0.59735334,0.90261406,9.65821
1587563181493,-0.7302315,0.94570965,9.506178
1587563181504,-0.93972415,0.8631097,9.532514
1587563181514,-1.0235212,0.7266402,9.386468
1587563181526,-1.0833763,0.7266402,9.691729
1587563181536,-1.1372458,0.6356605,9.228451
1587563181548,-0.9780314,0.82480246,8.336611
1587563181558,-0.9780314,0.82480246,8.336611
1587563181570,-1.7298107,0.4177882,8.198944
1587563181582,-1.4305356,0.2621651,7.9547353
1587563181592,-1.2509704,-0.22385786,8.135497
1587563181602,-1.3670892,-0.736217,7.78355
1587563181614,-1.377863,-0.7721301,7.589619
1587563181622,-1.0283096,-0.35314476,7.9571295
1587563181634,-0.6655881,0.074220255,9.305065
1587563181646,-0.6452374,0.12569559,9.496601
1587563181656,-0.8762778,0.20949265,9.334992
1587563181668,-0.997185,0.12808979,8.944737
1587563181679,-1.2473791,0.061052144,8.831013
1587563181689,-0.7062895,0.10055647,9.0429
1587563181701,-0.94930094,0.22744916,9.307459
1587563181710,-0.94930094,0.22744916,9.307459
1587563181723,-0.49919105,0.9959879,8.846576
1587563181729,-0.7781156,1.174356,8.475474
1587563181741,-0.37588966,0.45010993,9.1350765
1587563181753,-0.12689269,-0.6356605,9.563639
1587563181766,-0.20949265,0.16519992,10.930728
1587563181775,-0.20949265,0.16519992,10.930728
1587563181788,0.15801731,1.3239936,9.921572
1587563181798,0.44891283,1.1085154,9.925163
1587563181808,0.44891283,1.1085154,9.925163
1587563181824,0.81522566,0.50996494,9.734824
1587563181834,1.186327,0.31124622,9.928755
1587563181845,1.3922282,-0.10055647,9.478644
1587563181856,1.3922282,-0.10055647,9.478644
1587563181867,1.4389153,0.46447513,9.791088
1587563181878,1.7788919,0.6715736,9.497798
1587563181889,1.9201498,0.8559271,9.691729
1587563181899,1.9021933,0.30406362,9.690532
1587563181910,1.8962077,-0.20590134,9.3733
1587563181921,2.0027497,-0.20590134,9.358934
1587563181932,2.2529438,-0.24779987,9.324219
1587563181944,1.6316484,-0.93134445,9.324219
1587563181952,1.6316484,-0.93134445,9.324219
1587563181965,1.4269443,-1.1911154,8.9842415
1587563181975,1.4269443,-1.1911154,8.9842415
1587563181987,2.397793,-0.19871874,9.623494
1587563181997,2.4899697,-0.4333505,10.180145
1587563182009,2.4899697,-0.4333505,10.180145
1587563182019,2.837129,-0.5315128,9.785102
1587563182031,3.2968156,-0.3890578,9.627085
1587563182041,3.775656,-0.24181437,9.392453
1587563182053,4.011485,-0.4201824,9.494206
1587563182061,3.9612067,-0.8619126,9.868899
1587563182073,3.858256,-0.9684546,9.969456
1587563182085,4.4795513,-0.62728083,9.433155
1587563182095,5.3007627,-0.62728083,9.340978
1587563182107,5.3007627,-0.62728083,9.340978
1587563182119,5.2840033,-0.90021986,9.583989
1587563182129,5.249287,-1.0067618,9.728839
1587563182139,5.0146556,-0.8702923,9.716867
1587563182151,4.620809,-0.6859388,10.424355
1587563182161,4.0402155,-0.65242,10.354922
1587563182173,4.1802764,-0.6464345,10.332177
1587563182183,4.510676,-0.4165911,10.251971
1587563182196,5.1223946,-0.7218518,10.010158
1587563182206,5.1223946,-0.7218518,10.010158
1587563182215,5.7185507,-1.3922282,9.412804
1587563182227,5.5725045,-1.9321208,9.175778
1587563182239,5.401319,-2.2481554,8.649054
1587563182249,5.8346696,-2.2134395,9.11712
1587563182261,5.9783216,-2.2218192,8.765172
1587563182271,6.307524,-1.9632454,8.230068
1587563182283,6.55293,-2.2158337,9.060856
1587563182294,6.4416,-3.2716765,9.57561
1587563182304,6.242881,-3.9731777,9.78989
1587563182316,6.2045736,-3.7565024,10.109517
1587563182326,6.3913217,-3.3028011,9.362526
1587563182338,6.683414,-3.0334535,9.156625
1587563182348,6.9467764,-2.8898015,8.801085
1587563182359,7.00304,-3.095703,8.41921
1587563182372,7.0904284,-3.7612908,8.189367
1587563182382,7.073669,-4.1934443,8.617929
1587563182393,7.301118,-4.3981485,7.809886
1587563182406,6.9982514,-4.4639893,7.902063
1587563182416,5.9603653,-4.337096,8.802282
1587563182426,4.6830587,-4.5082817,8.555679
1587563182438,4.4304705,-4.3394904,9.601946
1587563182448,3.6750996,-4.3418846,9.921572
1587563182460,2.5462334,-5.0062757,9.956287
1587563182470,1.9405005,-4.1216183,10.234015
1587563182482,4.7441106,-2.7976246,8.519767
1587563182492,4.0940847,-3.9791632,9.457097
1587563182505,5.4324436,-3.594894,7.374141
1587563182515,5.555745,-4.8518496,6.0836663
1587563182525,5.555745,-4.8518496,6.0836663
1587563182542,4.832696,-4.5046906,5.5401826
1587563182550,4.674679,-3.858256,4.8841715
1587563182561,5.7389016,-3.0789435,3.7720647
1587563182571,5.919664,-3.2620997,3.5326445
1587563182580,5.8107276,-2.9747956,3.4141316
1587563182592,5.98311,-2.3295584,3.0430303
1587563182601,6.2608376,-1.7262194,3.2477345
1587563182614,6.5744777,-1.4867992,3.1615434
1587563182623,6.5744777,-1.4867992,3.1615434
1587563182635,7.4723034,-1.9895816,3.4763808
1587563182647,7.97748,-2.6180596,3.5817258
1587563182657,7.97748,-2.6180596,3.5817258
1587563182669,8.15106,-3.6020765,4.2317514
1587563182679,8.121132,-4.1383777,4.5202527
1587563182691,8.121132,-4.1383777,4.5202527
1587563182701,8.026561,-4.667496,4.96318
1587563182714,8.115147,-4.5860934,5.368997
1587563182719,8.26239,-4.1539397,5.708974
1587563182736,7.9331875,-3.9205053,5.446809
1587563182746,7.801506,-4.1599255,5.366603
1587563182756,7.801506,-4.1599255,5.366603
1587563182766,7.36217,-4.2437224,4.9320555
1587563182778,7.073669,-4.6459484,4.799177
1587563182788,7.073669,-4.6459484,4.799177
1587563182799,5.807136,-5.4300494,3.6858735
1587563182812,5.412093,-5.269638,3.2752678
1587563182822,5.5509567,-4.703409,3.2597055
1587563182834,6.417658,-4.0521865,3.7002387
1587563182845,7.726089,-3.4703953,4.226963
1587563182855,7.726089,-3.4703953,4.226963
1587563182867,8.910022,-3.892972,4.0533834
1587563182877,9.228451,-4.3718123,3.8630445
1587563182889,9.228451,-4.3718123,3.8630445
1587563182899,9.755175,-4.8542438,3.0250738
1587563182912,9.928755,-4.661511,2.870648
1587563182922,9.862914,-4.382586,2.6647465
1587563182932,9.709685,-4.3897686,2.6779146
1587563182945,9.297882,-4.406528,2.3702598
1587563182955,9.297882,-4.406528,2.3702598
1587563182965,8.983045,-4.201824,2.4253263
1587563182978,8.584411,-4.10845,2.2780828
1587563182988,8.584411,-4.10845,2.2780828
1587563182998,8.099585,-3.9396589,2.183512
1587563183010,8.034941,-4.107253,1.958457
1587563183020,7.9583263,-3.6343982,2.5797524
1587563183032,8.043321,-3.1184478,2.930503
1587563183043,8.1642275,-2.6635494,2.896984
1587563183053,8.212111,-2.882619,2.705448
1587563183065,8.301894,-4.250905,1.3431472
1587563183074,8.523358,-4.4903255,0.9864111
1587563183086,8.523358,-4.4903255,0.9864111
1587563183097,9.048885,-4.847061,0.50397944
1587563183109,8.887277,-4.569334,0.5303157
1587563183118,8.639477,-4.4520183,1.1252748
1587563183130,8.161834,-4.0138793,1.8219875
1587563183143,7.643489,-3.822343,2.1080947
1587563183153,7.383718,-3.6008794,2.540248
1587563183166,6.8545995,-3.6343982,2.4779987
1587563183176,7.3430166,-4.8877625,2.1200657
1587563183186,7.3430166,-4.8877625,2.1200657
1587563183198,6.793547,-3.596091,1.3515269
1587563183208,7.309498,-4.0054994,0.82121116
1587563183220,8.421604,-4.7620673,0.34715924
1587563183232,9.372103,-4.699818,-1.4975731
1587563183243,10.660183,-4.8733974,-2.3558946
1587563183253,10.286688,-6.131551,0.93972415
1587563183263,9.248801,-7.511808,1.2138603
1587563183275,4.5058875,-9.309854,2.337938
1587563183285,4.5058875,-9.309854,2.337938
1587563183298,4.554969,-11.532869,-0.9504981
1587563183310,6.283582,-11.21085,2.2637177
1587563183321,7.690176,-9.950302,0.90381116
1587563183331,7.765593,-8.449138,0.6859388
1587563183341,7.32506,-7.547721,0.78888947
1587563183351,6.6391215,-7.714118,1.0989386
1587563183363,6.5349736,-8.461109,1.4927847
1587563183373,6.6103907,-8.608353,1.6519991
1587563183384,6.4667387,-8.503007,0.7278373
1587563183395,6.7564373,-7.299921,-0.88944596
1587563183407,7.4016747,-6.9240313,0.6991069
1587563183417,7.717709,-7.050924,0.51355624
1587563183429,7.583634,-7.007828,0.17238252
1587563183440,7.477092,-7.0700774,0.62249243
1587563183450,7.1993647,-6.9503675,1.1204864
1587563183462,7.5572977,-8.026561,0.011971008
1587563183472,7.109582,-6.757634,3.2836475
1587563183484,5.6922145,-5.4922986,0.23343466
1587563183492,5.8598084,-5.865794,-0.23343466
1587563183504,6.455965,-6.339846,0.22744916
1587563183516,7.171831,-6.1530986,-0.1448492
1587563183526,6.8162923,-5.967548,-0.7398083
1587563183538,6.8162923,-5.967548,-0.7398083
1587563183548,6.915652,-6.528988,-0.34715924
1587563183560,6.931214,-7.0952168,-0.130484
1587563183570,6.6786256,-7.608773,-0.78170687
1587563183583,6.4392056,-8.046912,-1.745373
1587563183593,5.807136,-7.902063,-2.5258827
1587563183605,4.548983,-7.3226657,-1.3084313
1587563183615,-0.47524905,-4.9787426,-0.80924016
1587563183627,-2.4169466,-5.2169657,0.4141969
1587563183637,-2.4169466,-5.2169657,0.4141969
1587563183650,4.602853,-10.044873,1.9536686
1587563183659,6.637924,-11.008539,0.46088383
1587563183671,6.9503675,-11.008539,-0.7326257
1587563183683,5.2325277,-9.885659,-1.6579847
1587563183694,3.9755719,-9.151836,-1.7872716
1587563183704,3.9755719,-9.151836,-1.7872716
1587563183716,3.78643,-9.616311,-0.7290344
1587563183725,3.9516299,-9.192537,0.15682021
1587563183737,3.9516299,-9.192537,0.15682021
1587563183749,5.4863133,-9.021352,1.2521675
1587563183759,5.7520695,-8.977059,0.44771573
1587563183770,5.7520695,-8.977059,0.44771573
1587563183782,4.175488,-7.6494746,-0.2705448
1587563183792,3.6583402,-7.4148426,0.4141969
1587563183804,2.6910827,-6.716933,0.5554548
1587563183815,1.9381063,-6.197391,1.3730747
1587563183825,0.3854665,-4.995502,1.9357121
1587563183838,-0.051475335,-4.8745947,-0.010773907
1587563183848,0.46088383,-5.245696,0.10414778
1587563183858,0.9516952,-5.843049,-0.49320555
1587563183869,0.9516952,-5.843049,-0.49320555
1587563183881,2.2134395,-8.236053,-0.06943185
1587563183891,3.2261868,-11.857284,1.6962919
1587563183903,3.5350387,-16.013618,2.6719291
1587563183913,3.3135753,-18.72984,1.282095
1587563183926,0.7613561,-20.003555,0.90620536
1587563183931,0.7613561,-20.003555,0.90620536
1587563183946,-1.6998832,-10.9343195,-0.9684546
1587563183956,-2.3451207,-8.106767,-1.7178397
1587563183968,-2.3451207,-8.106767,-1.7178397
1587563183977,-3.1986535,-7.189788,-2.4791958
1587563183989,-3.4009635,-7.8769236,-2.4851813
1587563184002,-3.169923,-8.852561,-1.9165585
1587563184012,-2.7760768,-10.127473,-1.2988545
1587563184023,-2.44448,-11.129447,-0.62608373
1587563184034,-1.8626889,-11.722012,0.1328782
1587563184044,-0.79128367,-10.520123,0.8726865
1587563184057,-0.60812724,-9.629479,0.3172317
1587563184067,-0.60812724,-9.629479,0.3172317
1587563184076,-0.8451532,-9.785102,-0.4369418
1587563184087,-1.0486604,-9.828198,-0.49440265
1587563184098,-1.127669,-9.751583,-0.39384618
1587563184109,-1.1061212,-9.582792,-0.34356794
1587563184120,-1.0378864,-9.451111,-0.33399114
1587563184132,-1.1324574,-9.459491,-0.36870706
1587563184143,-0.9804256,-9.417592,-0.29688102
1587563184152,-0.5734113,-9.032125,-0.23942018
1587563184163,-0.36391866,-8.333019,-1.4760253
1587563184176,-1.0654198,-7.587225,-1.4927847
1587563184186,-1.0654198,-7.587225,-1.4927847
1587563184198,-1.3826514,-7.836222,-0.22385786
1587563184207,-1.6376339,-10.360908,1.6938977
1587563184219,-1.6376339,-10.360908,1.6938977
1587563184232,-1.2952632,-12.433089,2.5210943
1587563184241,-1.1719618,-12.666524,1.5167267
1587563184253,-1.1408371,-12.64737,0.7086837
1587563184261,-1.3204023,-12.137405,0.23104046
1587563184275,-1.4664485,-10.989386,0.008379706
1587563184285,-1.4664485,-10.989386,0.008379706
1587563184295,-0.6859388,-9.941922,0.39863458
1587563184308,-0.142455,-9.956287,0.34835634
1587563184318,-0.142455,-9.956287,0.34835634
1587563184328,0.5662287,-9.929952,0.076614454
1587563184341,0.6679823,-9.850943,0.14724341
1587563184351,0.6452374,-9.770737,0.37349546
1587563184361,0.5482722,-9.792285,0.60214174
1587563184373,0.40222588,-9.910798,0.6943185
1587563184384,0.260968,-9.9790325,0.7433996
1587563184394,0.23582886,-9.910798,0.61291564
1587563184407,0.7625532,-9.672575,0.38067806
1587563184417,0.7625532,-9.672575,0.38067806
1587563184427,0.78170687,-9.952697,0.46088383
1587563184440,0.7517793,-10.02572,0.48243165
1587563184450,0.81642276,-9.916783,0.5710171
1587563184461,0.89902276,-9.858126,0.59615624
1587563184471,0.94570965,-9.944317,0.5231331
1587563184485,0.7493851,-9.915586,0.31483752
1587563184493,0.6500258,-9.989806,0.35194764
1587563184506,0.51714754,-10.030508,0.4249708
1587563184516,0.51714754,-10.030508,0.4249708
1587563184526,0.35194764,-9.935937,0.50038815
1587563184538,0.25378537,-9.850943,0.40581718
1587563184547,0.1340753,-9.870096,0.20829555
1587563184558,0.1316811,-9.655815,0.44771573
1587563184569,0.02873042,-9.629479,0.50397944
1587563184581,-0.12330139,-9.801862,0.25617957
1587563184588,-0.2681506,-9.977836,0.015562311
1587563184599,-0.45729253,-10.101137,-0.23104046
1587563184609,-0.58777654,-10.117896,-0.3196259
1587563184620,-0.60693014,-10.115502,-0.18315643
1587563184631,-0.6488287,-9.706094,-0.076614454
1587563184642,-0.7338228,-9.755175,-0.22864626
1587563184655,-1.0247183,-9.877279,-0.02873042
1587563184668,-1.0247183,-9.877279,-0.02873042
1587563184679,-1.1875241,-9.855731,-0.01436521
1587563184689,-1.2018893,-9.773131,-0.14604631
1587563184702,-1.1432313,-9.664195,-0.07182605
1587563184714,-1.0737995,-9.901221,-0.18555063
1587563184724,-1.0510546,-10.014946,-0.37110126
1587563184733,-1.0510546,-10.014946,-0.37110126
1587563184744,-0.9708488,-9.829395,-0.074220255
1587563184756,-0.8690952,-9.812635,-0.19033903
1587563184766,-0.8690952,-9.812635,-0.19033903
1587563184778,-0.60932434,-9.853337,-0.17357962
1587563184789,-0.51714754,-9.925163,-0.055066638
1587563184799,-0.51714754,-9.925163,-0.055066638
1587563184811,-0.11971009,-9.931149,-0.04189853
1587563184820,0.11252748,-9.941922,-0.10534488
1587563184832,0.33279404,-10.042479,-0.1400608
1587563184843,0.4141969,-10.260351,-0.17836803
1587563184854,0.34476504,-10.19092,-0.16759412
1587563184866,0.34476504,-10.19092,-0.16759412
1587563184876,0.24061728,-9.981427,-0.025139118
1587563184888,0.12210429,-9.994595,0.062249243
1587563184898,0.12210429,-9.994595,0.062249243
1587563184910,0.033518825,-10.085575,0.19393034
1587563184918,0.019153614,-10.107122,0.2717419
1587563184930,-0.0035913025,-10.1226845,0.2753332
1587563184942,-0.0047884034,-10.08318,0.29209262
1587563184953,0.023942016,-10.078392,0.320823
1587563184963,0.035913024,-9.96347,0.34596214
1587563184976,0.15801731,-9.704897,0.29328972
1587563184986,0.16160862,-9.668983,0.23223756
1587563184996,0.16160862,-9.668983,0.23223756
1587563185008,-0.005985504,-9.855731,0.48482585
1587563185018,-0.092176765,-9.946711,0.60094464
1587563185030,-0.16759412,-9.865308,0.59855044
1587563185040,-0.19632454,-9.755175,0.6464345
1587563185052,-0.2753332,-9.767146,0.664391
1587563185062,-0.3842694,-9.662998,0.6799533
1587563185074,-0.44651863,-9.642648,0.7673417
1587563185084,-0.47524905,-9.629479,0.81043726
1587563185096,-0.47524905,-9.629479,0.81043726
1587563185106,-0.4333505,-9.753978,0.9504981
1587563185118,-0.4189853,-9.721656,0.9983821
1587563185127,-0.34715924,-9.7324295,1.0307038
1587563185141,-0.29807812,-9.7803135,1.0857705
1587563185152,-0.32321724,-9.827001,1.033098
1587563185163,-0.35913026,-9.940725,1.1073183
1587563185173,-0.29209262,-9.949105,1.055843
1587563185183,-0.23702596,-10.000581,0.866701
1587563185195,-0.2669535,-9.964667,0.7577648
1587563185205,-0.2753332,-9.938332,0.89303726
1587563185217,-0.31124622,-9.961076,0.9636662
1587563185227,-0.32561144,-9.821015,1.1384429
1587563185239,-0.33758244,-9.551667,1.1911154
1587563185246,-0.33758244,-9.551667,1.1911154
1587563185259,-0.16998832,-9.260772,1.0342951
1587563185271,-0.07062895,-9.435549,1.2605472
1587563185281,-0.11133038,-9.85214,1.7274165
1587563185293,-0.11731588,-10.257957,2.1140802
1587563185303,-0.19871874,-10.708067,2.5031378
1587563185316,0.2825158,-11.61547,2.8431146
1587563185326,0.6356605,-11.486182,2.6755204
1587563185336,1.0534488,-11.414356,2.790442
1587563185348,1.0534488,-11.414356,2.790442
1587563185356,1.9117701,-10.6158905,2.409764
1587563185368,1.9129672,-10.248381,1.7405846
1587563185380,1.6304513,-10.19451,1.7310078
1587563185391,1.2773066,-10.141838,2.3989902
1587563185401,1.009156,-10.1621895,3.345897
1587563185413,1.0175357,-10.206482,4.235343
1587563185423,1.0690111,-10.365696,4.4675803
1587563185436,1.0139444,-10.91756,2.979584
1587563185446,1.0139444,-10.91756,2.979584
1587563185456,0.78769237,-10.791864,1.5035586
1587563185468,0.5530606,-10.477027,1.4077905
1587563185478,0.4141969,-10.117896,2.1631613
1587563185491,0.16280572,-9.849746,3.405752
1587563185501,-0.35913026,-9.7084875,4.417302
1587563185511,-0.93972415,-9.464279,4.584896
1587563185523,-1.2485762,-9.172187,4.262876
1587563185534,-0.6919243,-8.582016,3.0873232
1587563185544,-0.6919243,-8.582016,3.0873232
1587563185555,0.50757074,-7.575254,3.5362358
1587563185589,1.7729063,-7.3071036,4.5657425
1587563185600,1.5490485,-7.2927384,4.337096
1587563185611,1.2988545,-6.943185,4.235343
1587563185622,1.1180922,-6.5936313,4.155137
1587563185633,1.2617443,-6.039374,4.3526587
1587563185644,1.2318168,-5.7029886,4.6255975
1587563185648,1.2318168,-5.7029886,4.6255975
1587563185654,1.1492168,-5.410896,4.7046065
1587563185662,1.1959038,-5.046977,4.6004586
1587563185673,1.2785037,-4.6830587,4.2437224
1587563185685,1.9165585,-4.581305,4.614824
1587563185693,1.9165585,-4.581305,4.614824
1587563185705,1.7345991,-4.4723687,4.831499
1587563185717,1.5334862,-4.3837833,4.939238
1587563185727,1.5334862,-4.3837833,4.939238
1587563185739,1.1145009,-4.0904937,4.951209
1587563185748,0.93852705,-4.1156325,4.8159366
1587563185760,0.8283938,-4.4161053,5.0481744
1587563185772,0.59974754,-4.771644,5.7736173
1587563185783,0.6787562,-5.5760956,7.406463
1587563185794,1.0534488,-6.1890116,7.135918
1587563185804,1.1815386,-6.8282633,6.6726403
1587563185816,0.7146692,-8.445546,7.135918
1587563185826,0.7529764,-9.226056,8.389283
1587563185838,1.1444284,-10.068815,9.279925
1587563185848,1.2761095,-11.004948,8.76996
1587563185860,1.3694834,-11.917139,7.788338
1587563185870,0.8463503,-13.200431,7.66384
1587563185882,0.5303157,-12.852075,7.7799582
1587563185892,0.82480246,-11.935096,8.531737
1587563185904,1.1492168,-9.654618,10.172963
1587563185913,1.1492168,-9.654618,10.172963
1587563185925,1.2629414,-9.338584,9.805453
1587563185935,0.1448492,-13.318944,11.178528
1587563185947,0.1448492,-13.318944,11.178528
1587563185957,1.0989386,-19.346346,12.880805
1587563185969,2.834735,-23.433249,13.855246
1587563185979,2.834735,-23.433249,13.855246
1587563185991,3.2249897,-18.525135,2.5151088
1587563186001,-2.456451,-7.5225816,-2.5378537
1587563186014,-12.848483,13.460202,-4.0653543
1587563186020,-12.885593,13.8959465,-1.982399
1587563186032,-8.784326,8.937555,-1.3634979
1587563186044,3.2752678,-0.1364695,-6.9767036
1587563186055,3.8043866,-15.383943,-8.553286
1587563186068,-0.039504327,-23.126791,-0.10175357
1587563186078,-0.039504327,-23.126791,-0.10175357
1587563186088,5.067328,-23.208195,8.737639
1587563186100,7.0712748,-17.176003,5.6156
1587563186111,5.947197,-11.674128,2.3116016
1587563186121,3.7481227,-8.033744,1.887828
1587563186133,1.7992426,-6.015432,2.1152773
1587563186144,0.30765492,-4.9643774,1.9883845
1587563186154,-0.39384618,-4.894945,1.246182
1587563186166,-0.21068975,-6.575675,-0.049081136
1587563186176,-0.21068975,-6.575675,-0.049081136
1587563186188,0.6703765,-8.9602995,1.2737153
1587563186199,0.8750807,-9.31105,1.8231846
1587563186209,1.0079589,-8.902839,1.7489643
1587563186221,1.1563994,-8.465898,0.92176765
1587563186233,1.2904748,-8.371326,0.1316811
1587563186241,2.124854,-9.57561,-0.25977087
1587563186253,2.6527755,-10.5919485,-0.48722005
1587563186266,1.9788077,-10.512939,-3.205836
1587563186276,1.9788077,-10.512939,-3.205836
1587563186285,-0.5446809,-9.451111,-2.4779987
1587563186296,-1.2785037,-8.683769,-1.0259154
1587563186308,-1.8794483,-8.186973,0.34715924
1587563186319,-2.1511903,-8.577228,1.3443443
1587563186330,-2.1057005,-8.9279785,1.9009962
1587563186341,-1.6448165,-9.269152,2.420538
1587563186351,-0.92895025,-9.332599,2.2301989
1587563186363,0.31124622,-9.178172,1.2773066
1587563186374,1.6256629,-9.057265,-0.038307227
1587563186383,2.6013002,-9.168595,-0.81283146
1587563186395,2.882619,-9.696517,-1.4161704
1587563186407,1.5957354,-11.320983,-0.5422867
1587563186417,0.7673417,-11.2132435,1.5143325
1587563186429,0.81163436,-10.74398,2.8455088
1587563186439,1.365892,-10.014946,3.1232362
1587563186452,1.5047557,-9.5385,2.5845408
1587563186458,0.92775315,-9.348161,2.160767
1587563186469,1.2090719,-10.0903635,-0.44891283
1587563186482,2.6551697,-10.581175,-2.542642
1587563186494,4.003105,-10.353725,-3.083732
1587563186504,4.9883194,-9.829395,-1.2808979
1587563186516,4.847061,-10.435128,2.3558946
1587563186527,4.847061,-10.435128,2.3558946
1587563186537,4.56694,-12.418724,2.3582888
1587563186550,4.4939165,-13.854048,0.32441434
1587563186560,4.392163,-14.83208,-0.9864111
1587563186572,4.406528,-15.115792,-3.751714
1587563186582,3.9492357,-15.351622,-4.710592
1587563186594,1.8112136,-15.95496,-3.1651347
1587563186604,-2.8550856,-15.816096,2.5019407
1587563186616,-3.5314474,-14.879964,1.9189527
1587563186626,-3.5314474,-14.879964,1.9189527
1587563186639,-4.8099513,-14.276625,-1.8986019
1587563186649,-5.6539073,-14.699202,-1.9608512
1587563186659,-6.339846,-14.785393,-0.7661445
1587563186671,-6.8761473,-16.106993,-0.47884035
1587563186681,-6.5924344,-16.443377,0.45729253
1587563186692,-5.8466406,-15.7586355,1.3467385
1587563186702,-4.0186677,-15.683218,1.8854338
1587563186714,-1.7178397,-14.386758,5.626374
1587563186724,-1.7178397,-14.386758,5.626374
1587563186736,2.3942018,-11.702858,0.33399114
1587563186747,3.0346506,-12.996924,0.25019407
1587563186757,3.4608185,-13.144167,-0.46686932
1587563186769,2.3139958,-12.119449,-2.111686
1587563186779,0.48362875,-10.514136,-1.4137762
1587563186791,-1.0319009,-9.172187,-0.866701
1587563186801,-2.0530279,-7.747637,-0.62009823
1587563186815,-2.9735985,-4.7524905,-0.7493851
1587563186825,-2.9735985,-4.7524905,-0.7493851
1587563186835,-2.1811178,-3.1268275,-0.33997664
1587563186845,-1.400608,-2.8670566,0.39384618
1587563186857,-1.400608,-2.8670566,0.39384618
1587563186867,-0.2908955,-2.0745757,1.8303672
1587563186879,-0.12808979,-1.9452889,2.4145525
1587563186889,-0.37948096,-2.457648,1.780089
1587563186900,-0.8583213,-2.8119898,1.3084313
1587563186913,-1.5179238,-2.801216,0.7733272
1587563186924,-1.9141643,-2.4708161,0.110133275
1587563186934,-2.0159178,-2.1080947,0.5315128
1587563186945,-2.0159178,-2.1080947,0.5315128
1587563186955,-1.6807296,-2.303222,1.2401965
1587563186967,-0.40462008,-3.2597055,3.064578
1587563186976,-0.40462008,-3.2597055,3.064578
1587563186989,1.198298,-4.9021277,4.7884035
1587563186999,2.0350714,-5.8693852,5.1726727
1587563187011,2.825158,-7.1395097,5.932832
1587563187021,3.70383,-9.228451,7.8386164
1587563187032,3.9612067,-12.129025,11.178528
1587563187043,3.7972038,-15.419856,14.29937
1587563187055,4.301183,-18.691532,15.729905
1587563187064,5.2169657,-22.51627,13.498509
1587563187076,5.2169657,-22.51627,13.498509
1587563187088,2.1703439,-16.013618,7.1347213
1587563187098,0.39264908,-12.734758,6.7684083
1587563187110,0.39264908,-12.734758,6.7684083
1587563187118,-3.1627405,-6.0369797,6.481104
1587563187130,-2.9747956,-2.8886044,5.231331
1587563187142,-1.567005,-1.1827357,5.5701103
1587563187151,-0.034715924,-0.5662287,8.02297
1587563187165,-0.1412579,-7.5070195,6.5110316
1587563187174,-0.1412579,-7.5070195,6.5110316
1587563187186,-4.4520183,-18.26776,-0.62129533
1587563187196,-7.1550717,-25.415648,-8.47308
1587563187208,-7.1550717,-25.415648,-8.47308
1587563187218,-0.6344634,-20.201077,-3.5805287
1587563187230,-1.42455,-6.704962,-4.2676644
1587563187241,-6.531382,-0.34476504,2.6898856
1587563187251,-12.459426,1.9476831,14.399926
1587563187264,-11.382035,2.565387,2.991555
1587563187274,-7.8996687,1.3790601,-7.6243353
1587563187284,-4.235343,-0.8690952,-7.049727
1587563187296,-0.78410107,-7.735666,-5.070919
1587563187306,-0.78410107,-7.735666,-5.070919
1587563187318,3.7780502,-17.413029,-1.3335704
1587563187328,5.875371,-21.411346,-3.2668881
1587563187340,6.682217,-21.272482,-4.370615
1587563187351,6.646304,-18.674774,-4.519056
1587563187362,6.326678,-15.643714,-1.9069817
1587563187371,5.6922145,-13.517663,0.8738836
1587563187383,4.4424415,-10.45069,3.643975
1587563187394,0.6859388,-6.241684,1.8555063
1587563187405,0.6859388,-6.241684,1.8555063
1587563187416,-0.9780314,-6.4631476,-0.8643068
1587563187427,-1.4281414,-5.7377043,-1.6639702
1587563187438,-1.910573,-5.2444987,-1.8543092
1587563187447,-2.7030537,-5.603629,-1.4030021
1587563187458,-2.7030537,-5.603629,-1.4030021
1587563187469,-4.0222588,-8.543709,-0.78769237
1587563187480,-4.3742065,-9.248801,-0.50876784
1587563187490,-4.1515455,-9.287108,0.2669535
1587563187502,-2.9293058,-8.939949,2.2732944
1587563187513,-1.0965444,-9.01417,3.3279405
1587563187524,0.49559975,-8.926781,1.8567034
1587563187535,2.27928,-8.584411,-1.6747441
1587563187546,2.7281928,-8.8884735,-2.432509
1587563187554,2.7281928,-8.8884735,-2.432509
1587563187565,2.4061728,-9.877279,-2.5378537
1587563187576,1.5897499,-10.882844,-0.9648633
1587563187587,0.7254431,-11.979388,1.091756
1587563187598,0.107739076,-12.634202,2.9508536
1587563187610,-0.30765492,-12.861651,3.3530796
1587563187622,-0.14844051,-12.795811,1.2904748
1587563187633,0.9804256,-12.923901,-0.25617957
1587563187647,2.719813,-11.646594,-0.985214
1587563187657,2.719813,-11.646594,-0.985214
1587563187669,2.991555,-11.301829,1.2916719
1587563187679,3.429694,-11.700463,1.7429788
1587563187691,3.7672763,-12.129025,1.6364368
1587563187701,3.8474822,-12.228385,1.5885528
1587563187714,3.8379054,-12.295423,1.2018893
1587563187724,3.7469256,-12.582727,-0.031124622
1587563187740,2.8658595,-13.788208,-0.81761986
1587563187749,2.6779146,-13.421895,-2.1320367
1587563187759,1.9249382,-12.765883,-3.4632127
1587563187768,0.17477672,-13.643358,-2.8658595
1587563187782,-2.791639,-15.085865,-1.3623008
1587563187791,-6.169858,-15.2570505,1.8579005
1587563187802,-8.319851,-15.020024,2.2529438
1587563187813,-9.824607,-15.115792,0.6859388
1587563187824,-9.959879,-15.889119,-1.1145009
1587563187835,-9.194932,-15.98369,-2.3391352
1587563187847,-7.2424603,-16.207548,-0.8834604
1587563187857,-7.2424603,-16.207548,-0.8834604
1587563187869,-4.64116,-14.879964,6.125565
1587563187879,-2.0458453,-13.528437,6.1303535
1587563187891,-2.0458453,-13.528437,6.1303535
1587563187901,1.459266,-14.074315,0.5303157
1587563187913,2.493561,-15.02601,1.2318168
1587563187923,2.7808652,-14.392743,0.8690952
1587563187935,1.5741876,-13.207614,-2.372654
1587563187945,-0.8403648,-7.807492,-1.9117701
1587563187957,-1.9249382,-6.0836663,-1.5813702
1587563187967,-2.5067291,-4.6806645,-0.8750807
1587563187979,-2.8814218,-3.3554738,-0.961272
1587563187989,-2.8814218,-3.3554738,-0.961272
1587563188001,-2.4971523,-1.483208,0.12210429
1587563188012,-1.3946224,-1.2773066,0.90979666
1587563188021,-0.36511576,-1.4437037,1.021127
1587563188035,0.49679685,-1.6867151,0.6679823
1587563188045,1.1228806,-1.721431,0.7553706
1587563188055,1.1228806,-1.721431,0.7553706
1587563188067,-0.5494693,-1.2066777,0.06703765
1587563188077,-2.135628,-0.9911995,-0.25258827
1587563188089,-2.135628,-0.9911995,-0.25258827
1587563188099,-2.1667526,-1.2318168,0.58777654
1587563188111,-1.804031,-1.6663644,1.3946224
1587563188121,-1.2916719,-2.2637177,2.4768016
1587563188134,-0.6380547,-2.9580362,3.9971197
1587563188144,0.62728083,-4.856638,7.153875
1587563188154,0.62728083,-4.856638,7.153875
1587563188166,0.7254431,-9.289502,11.711238
1587563188177,-0.039504327,-13.561955,15.294161
1587563188187,-0.039504327,-13.561955,15.294161
1587563188199,0.7374141,-28.857313,15.5515375
1587563188209,1.9991584,-34.61178,14.689625
1587563188221,2.4516625,-27.746403,12.369643
1587563188232,2.8742392,-16.61217,9.431957
1587563188243,2.542642,-9.288305,8.213309
1587563188253,1.3754689,-4.933253,7.49026
1587563188265,-0.20470424,3.4237084,6.3793507
1587563188276,-0.06464344,2.3786395,4.9188876
1587563188286,-0.06464344,2.3786395,4.9188876
1587563188298,-1.0115502,-5.9124813,0.6679823
1587563188308,-8.043321,-20.975601,-5.7999535
1587563188320,-6.137536,-32.981327,-5.4683566
1587563188328,1.8004397,-34.70515,-2.4480712
1587563188340,3.9911342,-17.814058,-2.9113493
1587563188352,-2.208651,-5.7424927,-1.0785879
1587563188362,-10.662578,-0.6428431,12.308591
1587563188374,-15.589845,4.3394904,9.041702
1587563188384,-12.534843,7.21373,-6.8366427
1587563188396,-6.649895,0.7218518,-6.8127007
1587563188406,-6.649895,0.7218518,-6.8127007
1587563188418,-2.9245174,-12.026075,-0.48123455
1587563188428,-0.533907,-18.041508,2.528277
1587563188440,3.6152446,-21.859062,1.103727
1587563188450,6.7145386,-21.509508,-4.1575313
1587563188462,7.86615,-20.34832,-5.851429
1587563188473,8.0924015,-18.570625,-4.607641
1587563188484,7.3669586,-15.545551,-1.8782512
1587563188493,5.884948,-12.257115,1.578976
1587563188505,3.7684734,-9.485827,3.8486793
1587563188516,0.49559975,-6.554127,3.8510735
1587563188527,-0.46208093,-5.8634,2.1751323
1587563188538,-2.408567,-6.029797,-0.7194576
1587563188547,-2.8514943,-6.1076083,-0.7565677
1587563188558,-2.777274,-6.6403184,-0.7086837
1587563188570,-2.5953147,-7.66384,-0.80205756
1587563188582,-2.2337902,-8.593987,-0.6464345
1587563188593,-1.9692309,-8.884883,-0.63087213
1587563188603,-1.9440918,-8.75799,-0.9816227
1587563188616,-0.8559271,-8.346188,0.19512744
1587563188626,-0.39863458,-7.949947,0.90500826
1587563188635,-0.39863458,-7.949947,0.90500826
1587563188646,-0.36032736,-8.321048,1.6160861
1587563188656,-0.41299978,-8.4108305,1.5897499
1587563188667,-0.31483752,-8.625112,0.41299978
1587563188678,0.073023155,-9.024943,-1.0414777
1587563188690,0.60693014,-9.606734,-1.448492
1587563188699,0.8439561,-10.468647,-0.7793127
1587563188710,0.7433996,-11.15698,0.8619126
1587563188721,0.557849,-11.397597,2.4911668
1587563188732,0.6607997,-11.253945,3.4356794
1587563188743,0.80564886,-11.253945,2.956839
1587563188754,0.94331545,-11.736377,0.33638534
1587563188763,0.94331545,-11.736377,0.33638534
1587563188773,1.3251907,-11.63582,-0.8583213
1587563188784,1.4903905,-11.095928,-0.5494693
1587563188795,2.5246856,-10.964247,0.47884035
1587563188806,2.657564,-11.492168,0.19991584
1587563188818,2.4037786,-12.073959,0.19991584
1587563188830,1.9321208,-12.175713,0.2621651
1587563188845,1.4257472,-12.059594,0.78888947
1587563188854,1.4257472,-12.059594,0.78888947
1587563188864,1.4173675,-12.680889,-0.29927522
1587563188876,0.6392518,-14.917073,0.17238252
1587563188886,0.6392518,-14.917073,0.17238252
1587563188898,1.4065934,-13.357251,-1.8794483
1587563188908,0.30765492,-13.557167,-1.7884687
1587563188920,0.30765492,-13.557167,-1.7884687
1587563188930,-2.7952304,-13.9833355,-0.22984336
1587563188942,-4.5657425,-13.396755,0.17238252
1587563188952,-6.257246,-12.668919,-0.90261406
1587563188964,-7.6375036,-12.731168,-2.184709
1587563188974,-8.746018,-13.503298,-2.3427265
1587563188986,-9.2069025,-14.2862015,-1.602918
1587563188996,-8.512584,-14.015656,0.7182605
1587563189009,-8.074445,-13.933057,2.790442
1587563189019,-8.074445,-13.933057,2.790442
1587563189030,-3.4691982,-12.180501,4.571728
1587563189040,-0.49559975,-12.45344,0.8439561
1587563189053,1.7537527,-13.306973,-0.59735334
1587563189063,3.072958,-14.246697,1.5753847
1587563189074,3.7481227,-14.725537,1.8315643
1587563189084,2.4384944,-13.657723,-1.532289
1587563189096,0.51475334,-9.150639,-3.9671922
1587563189107,-0.5267244,-7.3059063,-3.333926
1587563189117,-0.5267244,-7.3059063,-3.333926
1587563189129,-1.6041151,-4.2185836,-1.2653356
1587563189139,-1.8507179,-3.5625722,0.2657564
1587563189151,-2.0278888,-3.3973722,0.50996494
1587563189161,-2.0123265,-3.0681696,1.0055647
1587563189173,-1.8339585,-2.8646624,1.5286977
1587563189184,-1.555034,-2.837129,1.7549498
1587563189194,-1.5155296,-2.9017725,1.9752164
1587563189207,-1.292869,-2.9855695,1.9285295
1587563189217,-1.292869,-2.9855695,1.9285295
1587563189226,-2.043451,-2.0099323,-0.18195933
1587563189238,-2.220622,-1.7860745,-0.2681506
1587563189249,-2.0973208,-1.5981296,-0.11492168
1587563189260,-1.8974048,-1.5035586,0.19871874
1587563189271,-1.6232687,-1.5478514,0.78170687
1587563189282,-1.3479356,-1.7274165,1.5873557
1587563189293,-1.2186487,-1.9764135,2.6443958
1587563189304,-0.770933,-3.1723173,7.067683
1587563189314,-0.770933,-3.1723173,7.067683
1587563189326,-0.4237737,-7.2352777,13.226768
1587563189336,-0.4237737,-7.2352777,13.226768
1587563189348,1.4030021,-20.221428,19.636045
1587563189357,4.4520183,-34.36757,15.84363
1587563189369,4.4520183,-34.36757,15.84363
1587563189382,-0.8523358,-29.6474,13.369223
1587563189392,-1.5310919,-15.429433,10.160992
1587563189403,-0.93014735,-6.373365,7.7344685
1587563189414,-0.7326257,-1.9548657,6.5361705
1587563189424,-2.541445,1.1827357,4.2521024
1587563189435,-4.8841715,1.6017209,2.1559787
1587563189447,-7.8984714,-8.1163435,6.35062
1587563189457,-9.835381,-25.246857,-3.321955
1587563189469,-1.6292542,-34.439396,-7.608773
1587563189480,4.381389,-23.16031,-4.6339774
1587563189490,2.124854,-7.5908165,-7.1431007
1587563189502,-2.633622,1.2234371,-6.367379
1587563189514,-6.896498,5.4527946,4.736928
1587563189524,-9.43076,7.2664022,9.260772
1587563189536,-4.9105077,0.18914193,-8.438364
1587563189546,-3.5984852,-4.807557,-7.9822683
1587563189559,-3.2190042,-9.269152,-5.839458
1587563189568,-3.2190042,-9.269152,-5.839458
1587563189580,-1.9991584,-17.811663,4.223372
1587563189590,0.15801731,-18.380287,1.8363527
1587563189602,2.1559787,-16.852785,-0.7254431
1587563189613,3.086126,-15.442601,-1.6639702
1587563189623,3.6942532,-14.5567465,-2.1080947
1587563189636,3.9815574,-11.513716,-0.20111294
1587563189642,3.9815574,-11.513716,-0.20111294
1587563189653,3.3315318,-9.589975,1.2234371
1587563189664,2.3702598,-8.124723,2.2182279
1587563189676,0.48602295,-7.277176,1.1145009
1587563189687,-0.82240826,-7.6961613,-1.4101849
1587563189698,-1.0151415,-7.869741,-1.4053963
1587563189709,-0.9876082,-7.6363063,-0.8631097
1587563189720,-0.92296475,-7.615956,-0.11731588
1587563189731,-0.9756372,-8.23366,0.29448682
1587563189741,-1.151611,-9.020155,0.1388637
1587563189752,-1.4999673,-9.764751,-0.4249708
1587563189763,-1.6412252,-10.121488,-0.23582886
1587563189774,-1.5801731,-9.66659,0.6979098
1587563189786,-1.0223241,-8.367735,1.5682021
1587563189796,-0.93732995,-8.093599,1.1204864
1587563189808,-0.91817635,-8.031349,0.4309563
1587563189818,-0.91817635,-8.031349,0.4309563
1587563189830,-0.046686932,-8.661025,-0.90500826
1587563189840,0.48722005,-9.264363,-1.0486604
1587563189853,0.52073884,-10.26514,-0.32441434
1587563189859,0.11971009,-11.479,1.1695676
1587563189873,-0.23942018,-12.473791,3.0107086
1587563189883,-0.11372458,-12.935872,4.0138793
1587563189896,0.59136784,-12.993333,3.4931402
1587563189906,3.7972038,-11.887212,-0.025139118
1587563189916,3.7972038,-11.887212,-0.025139118
1587563189929,4.3837833,-11.335348,-0.8331822
1587563189939,4.321534,-11.511322,0.50996494
1587563189951,3.6296098,-11.896789,2.018312
1587563189960,2.5390508,-12.388797,3.4991257
1587563189975,2.0638018,-13.026852,3.4141316
1587563189982,2.0171149,-13.951014,1.4413095
1587563189993,1.8231846,-15.472528,-0.2693477
1587563190004,0.63206923,-15.528792,-3.7984009
1587563190015,0.63206923,-15.528792,-3.7984009
1587563190026,-4.80636,-14.884752,-2.719813
1587563190038,-7.654263,-14.762648,1.1839328
1587563190049,-7.654263,-14.762648,1.1839328
1587563190061,-10.177752,-13.743915,0.9624691
1587563190071,-10.259154,-13.778631,-0.4249708
1587563190083,-10.612299,-14.775816,-0.6332663
1587563190094,-10.730812,-15.423448,-1.127669
1587563190103,-10.084377,-14.997279,-1.8818425
1587563190115,-8.288726,-13.603854,-1.2270284
1587563190128,-4.1838675,-13.660118,1.1827357
1587563190138,-2.397793,-13.56435,4.3526587
1587563190148,-2.397793,-13.56435,4.3526587
1587563190160,3.3207579,-14.725537,1.3455414
1587563190170,3.654749,-14.772224,1.1216835
1587563190182,3.0873232,-13.81215,-0.48961425
1587563190191,1.8351556,-11.8261595,-2.3391352
1587563190203,0.415394,-9.375694,-2.7940333
1587563190214,-1.5454572,-7.1023993,-2.516306
1587563190223,-3.2213984,-5.627571,-1.7597382
1587563190236,-4.1922474,-4.4436383,-1.4161704
1587563190246,-4.1922474,-4.4436383,-1.4161704
1587563190257,-2.9161377,-3.2501287,-0.7062895
1587563190270,-2.2134395,-2.8263552,-0.6847417
1587563190280,-1.4616601,-2.2421699,-0.6440403
1587563190290,-0.79607207,-1.5406688,-0.50637364
1587563190302,-0.557849,-0.89543146,-0.01436521
1587563190312,-0.7589619,-0.4225766,0.37229836
1587563190324,-0.8702923,-0.095768064,1.1049241
1587563190335,-0.93134445,0.04189853,0.6655881
1587563190344,-1.3575124,0.046686932,0.05267244
1587563190356,-2.232593,-0.32202014,-0.04309563
1587563190368,-2.2301989,-0.58298814,0.33638534
1587563190378,-1.8435353,-1.3718776,2.0733786
1587563190390,-1.5957354,-2.0709844,3.5194764
1587563190400,-1.0259154,-3.180697,5.627571
1587563190412,-0.51116204,-5.1355624,7.6650367
1587563190422,-0.39264908,-7.553706,11.206061
1587563190434,-0.2633622,-18.904617,20.296844
1587563190444,-0.2633622,-18.904617,20.296844
1587563190456,1.0522517,-39.221813,15.239094
1587563190466,0.18794483,-30.32855,12.568362
1587563190478,0.59136784,-17.519571,9.241618
1587563190488,1.5921441,-8.561666,6.015432
1587563190500,2.1906946,-4.259285,4.6100354
1587563190510,1.1695676,-0.6584055,4.238934
1587563190522,-1.1947067,-0.6488287,4.5872903
1587563190532,-4.1683054,-4.865018,5.315128
1587563190544,-7.4268136,-10.957064,7.599196
1587563190554,-13.551182,-31.52206,-1.5622166
1587563190567,-3.0801406,-39.221813,-12.012907
1587563190577,5.3725886,-29.481003,-9.884461
1587563190587,2.9281087,-8.990228,-8.295909
1587563190599,2.9281087,-8.990228,-8.295909
1587563190608,-12.265495,15.115792,12.520478
1587563190621,-10.491392,12.2798605,0.9959879
1587563190627,-7.7452426,5.6299653,-10.748769
1587563190639,-6.2608376,-2.0494366,-12.121843
1587563190652,-5.6060233,-9.251195,-7.799112
1587563190662,-6.039374,-16.566679,-0.5398925
1587563190678,-5.0385976,-21.06658,4.0581717
1587563190687,0.15083471,-17.756598,-1.6998832
1587563190697,0.15083471,-17.756598,-1.6998832
1587563190706,6.658275,-16.976088,-3.870227
1587563190718,9.057265,-15.666459,-1.62686
1587563190726,9.058462,-12.469003,0.9648633
1587563190741,6.767211,-9.166202,2.184709
1587563190750,4.5537715,-7.016208,2.4492683
1587563190761,3.145981,-6.3949127,2.2254105
1587563190772,2.360683,-6.4368114,2.2230163
1587563190783,1.5705963,-6.7025676,0.260968
1587563190796,1.0283096,-6.50744,-0.91458505
1587563190805,0.7505822,-6.2752028,-0.3172317
1587563190817,0.47165772,-7.183802,-0.21547815
1587563190827,-0.25857377,-8.149862,-0.61411273
1587563190839,-1.043872,-9.190144,0.4357447
1587563190848,-1.2078748,-9.502586,2.3906105
1587563190860,-1.2066777,-9.824607,3.502717
1587563190870,-1.0761937,-9.903615,4.0066967
1587563190882,-0.80804306,-9.362526,3.6990416
1587563190892,-0.06943185,-9.228451,1.8962077
1587563190904,0.9995792,-9.251195,-0.5315128
1587563190914,1.745373,-10.16578,-2.055422
1587563190926,1.8375498,-10.764331,-1.7238252
1587563190936,0.031124622,-11.377247,0.9660604
1587563190948,-0.6907272,-11.695675,3.0442274
1587563190956,-0.8343793,-11.704055,4.224569
1587563190968,-0.29209262,-11.632229,3.5757403
1587563190980,-0.29209262,-11.632229,3.5757403
1587563190993,2.0386627,-12.103887,0.19512744
1587563191003,2.5689783,-11.907562,-0.89423436
1587563191012,2.3331497,-11.452663,-1.258153
1587563191024,2.3582888,-11.0935335,-0.8523358
1587563191034,2.9340942,-11.122264,-0.30406362
1587563191046,3.4249055,-11.4837885,0.18435353
1587563191056,2.7341783,-11.780669,2.005144
1587563191068,2.445677,-12.126632,1.3156139
1587563191078,2.445677,-12.126632,1.3156139
1587563191090,2.0757728,-14.050373,-0.08499416
1587563191100,2.0757728,-14.167688,-0.46447513
1587563191113,1.447295,-13.995306,-1.352724
1587563191125,0.08140286,-15.239094,-0.58657944
1587563191135,-3.3961751,-15.695189,2.5701754
1587563191147,-5.161899,-13.455414,2.268506
1587563191157,-5.6431336,-11.968615,-1.4053963
1587563191166,-6.257246,-11.639412,-3.5757403
1587563191180,-7.228095,-12.859258,-3.441665
1587563191189,-7.9248075,-14.334085,-2.8682537
1587563191201,-7.8469963,-15.142129,-1.6783354
1587563191210,-7.1646485,-15.175648,0.38187516
1587563191221,-6.5265937,-15.702372,1.7238252
1587563191232,-5.521029,-15.320497,3.3794158
1587563191243,-3.6056678,-14.626178,5.1223946
1587563191254,0.24540567,-13.269863,1.6747441
1587563191265,1.4329298,-13.797785,-0.51355624
1587563191276,1.4329298,-13.797785,-0.51355624
1587563191286,2.1691468,-13.905523,-1.0630256
1587563191298,0.5542577,-10.184934,-2.682703
1587563191308,-0.6655881,-8.043321,-2.4289176
1587563191319,-1.7250223,-6.4044895,-1.6089035
1587563191332,-2.4301147,-5.0002904,-0.9552865
1587563191342,-2.6647465,-3.8642416,-0.6428431
1587563191351,-2.6300306,-3.1543608,-0.40581718
1587563191363,-2.4277205,-2.5354595,0.005985504
1587563191375,-2.0482395,-2.3068132,0.3184288
1587563191385,-0.8463503,-2.0961237,0.676362
1587563191397,-0.22385786,-1.8746599,0.78170687
1587563191408,0.010773907,-1.5263035,0.5638345
1587563191417,-0.06823475,-1.3754689,0.4141969
1587563191429,-0.6500258,-1.1492168,-0.11851298
1587563191440,-1.4053963,-0.8295909,-0.748188
1587563191452,-1.9333179,-0.7086837,-0.61650693
1587563191461,-2.0805612,-0.7493851,-0.37469256
1587563191473,-2.0254946,-0.7457938,0.090979666
1587563191485,-1.4377182,-1.2449849,1.5885528
1587563191495,-1.4377182,-1.2449849,1.5885528
1587563191507,-0.6607997,-2.8299465,4.38498
1587563191517,-0.21188685,-4.167108,7.1993647
1587563191529,-0.21188685,-4.167108,7.1993647
1587563191539,0.2669535,-14.29937,16.932991
1587563191552,1.6687586,-24.112005,19.977219
1587563191562,2.9412768,-38.39701,18.428171
1587563191573,1.2725182,-39.21463,15.47612
1587563191583,-0.022744916,-25.067291,12.334928
1587563191595,0.16759412,-12.13142,9.599552
1587563191605,0.9864111,-0.07182605,4.474763
1587563191617,-0.45729253,2.870648,3.3626564
1587563191627,-0.45729253,2.870648,3.3626564
1587563191639,-7.135918,-6.0477533,6.63553
1587563191649,-9.539697,-13.90313,8.819042
1587563191661,-11.426328,-23.836672,3.0023289
1587563191671,-7.345411,-35.938164,-10.949882
1587563191684,5.7149596,-37.46806,-12.51569
1587563191694,8.201338,-19.276915,-6.6846113
1587563191705,1.8579005,-3.1304188,-9.006987
1587563191715,-11.3880205,10.2735195,12.49893
1587563191727,-11.3880205,10.2735195,12.49893
1587563191737,-10.56681,9.736021,-2.2936451
1587563191750,-6.815095,3.9743748,-10.881647
1587563191761,-3.9612067,-9.386468,-5.955577
1587563191771,-4.320337,-15.620969,0.11372458
1587563191781,-2.622848,-19.902998,3.264494
1587563191793,0.22864626,-21.001938,-1.7082629
1587563191803,3.6140475,-20.793642,-4.331111
1587563191815,10.111911,-18.739416,-4.1706996
1587563191825,10.111911,-18.739416,-4.1706996
1587563191838,7.1490865,-10.286688,3.2321723
1587563191855,1.9644425,-6.8809357,2.4636335
1587563191862,1.9644425,-6.8809357,2.4636335
1587563191872,0.8391677,-7.1143703,2.896984
1587563191882,0.18195933,-6.83784,1.8136078
1587563191892,-0.19752164,-6.3793507,0.4141969
1587563191903,-0.5279215,-6.364985,-0.50517654
1587563191913,-0.7110779,-6.3901243,-1.3120226
1587563191925,-0.8283938,-6.691794,-1.3814543
1587563191935,-0.90979666,-8.59279,0.2705448
1587563191947,-1.1899183,-9.44752,0.23463176
1587563191957,-1.1899183,-9.44752,0.23463176
1587563191969,-1.2162545,-10.177752,0.19991584
1587563191979,-1.0007763,-9.7719345,0.91697925
1587563191991,-0.88944596,-8.901642,2.15957
1587563192001,-0.91458505,-8.805874,2.2768857
1587563192014,-0.6500258,-8.983045,1.7860745
1587563192024,0.04189853,-9.491813,0.7529764
1587563192034,0.8523358,-10.327389,-0.5638345
1587563192045,1.6627731,-10.67814,0.1340753
1587563192055,1.6627731,-10.67814,0.1340753
1587563192067,1.4041992,-9.94312,3.359065
1587563192077,1.578976,-10.03769,3.8534677
1587563192089,2.2397757,-10.650606,1.9764135
1587563192099,2.9376855,-11.031284,-0.17477672
1587563192111,3.144784,-11.08276,-0.866701
1587563192125,2.8754363,-10.8624935,-0.51954174
1587563192136,2.858677,-11.062409,0.15801731
1587563192147,3.0813377,-11.532869,0.06584055
1587563192157,3.0813377,-11.532869,0.06584055
1587563192168,2.3247697,-12.3516865,1.7944542
1587563192179,2.1380222,-12.480973,2.4396915
1587563192192,2.2278047,-12.958616,1.3575124
1587563192201,2.2014685,-13.907918,0.31483752
1587563192212,2.195483,-14.541184,-0.4381389
1587563192222,1.1707647,-15.320497,-2.1571758
1587563192234,-0.25378537,-16.7642,-0.8810662
1587563192246,-5.4168816,-15.300146,1.9572599
1587563192256,-5.4168816,-15.300146,1.9572599
1587563192268,-7.9990277,-13.6732855,-2.5833437
1587563192276,-7.9990277,-13.6732855,-2.5833437
1587563192288,-10.259154,-17.0946,-1.8255788
1587563192300,-10.283096,-16.255432,-1.2258313
1587563192310,-9.394848,-13.901932,-0.1412579
1587563192322,-7.7919292,-12.265495,1.1731589
1587563192332,-6.0321913,-12.609063,1.8590976
1587563192344,-4.249708,-12.674904,3.6954503
1587563192354,-2.585738,-12.417527,5.3965306
1587563192366,1.6484078,-12.443863,1.3156139
1587563192376,1.6484078,-12.443863,1.3156139
1587563192388,4.277241,-14.033613,-0.3172317
1587563192398,3.751714,-13.5930805,-2.1811178
1587563192410,3.751714,-13.5930805,-2.1811178
1587563192420,0.8690952,-9.662998,-0.9911995
1587563192432,-1.0223241,-7.656657,-0.5638345
1587563192442,-2.4396915,-6.143522,-0.30885202
1587563192454,-3.2836475,-4.7620673,-0.17836803
1587563192464,-2.882619,-3.9935284,-0.046686932
1587563192476,-1.8974048,-3.252523,0.007182605
1587563192486,-1.2401965,-2.8670566,0.06703765
1587563192498,-0.6584055,-2.0386627,-0.1448492
1587563192508,-0.6584055,-2.0386627,-0.1448492
1587563192520,-0.320823,-0.5530606,0.20111294
1587563192530,-0.40342298,-0.16400282,0.3890578
1587563192543,-0.60453594,0.022744916,0.31603462
1587563192555,-0.91458505,0.075417355,0.10175357
1587563192565,-1.520318,-0.31124622,-0.11851298
1587563192575,-1.520318,-0.31124622,-0.11851298
1587563192585,-1.2521675,-1.2545617,0.6823475
1587563192597,-1.009156,-1.9369092,1.6400281
1587563192605,-1.009156,-1.9369092,1.6400281
1587563192617,-0.21787235,-3.8259344,5.3019595
1587563192629,0.21787235,-6.129156,7.8984714
1587563192639,0.62368953,-8.865729,11.432313
1587563192651,0.5805939,-13.463793,17.308882
1587563192662,1.769315,-20.157982,21.41374
1587563192673,3.1723173,-31.43108,16.170439
1587563192684,-1.685518,-27.757177,14.415488
1587563192694,-2.1631613,-16.270994,11.6190605
1587563192706,-1.3251907,-9.221268,8.678981
1587563192714,-0.40102878,-3.1675289,3.5793316
1587563192725,-1.7477672,0.12090719,1.4449008
1587563192736,-4.26527,1.590947,2.123657
1587563192747,-6.269217,-0.50517654,5.1487308
1587563192758,-6.767211,-5.00867,7.0449386
1587563192769,-7.264008,-10.760739,9.712079
1587563192780,-8.00621,-18.914194,5.1822495
1587563192791,-6.5445504,-28.295874,-5.4085016
1587563192802,-1.1264719,-35.059494,-10.493786
1587563192813,2.7688942,-24.213758,-5.805939
1587563192822,1.151611,-7.237672,-7.4387846
1587563192834,-3.4811692,1.8818425,-6.609194
1587563192846,-12.85806,7.680599,11.129447
1587563192856,-12.85806,7.680599,11.129447
1587563192869,-6.099229,1.7561469,-6.9407907
1587563192879,-2.8167782,-3.4380736,-8.488642
1587563192888,-1.757344,-8.2037325,-7.1023993
1587563192900,-1.163582,-12.316971,-3.1064768
1587563192912,2.2230163,-21.89258,1.7429788
1587563192924,4.951209,-22.518663,-2.765303
1587563192931,7.0245876,-20.819979,-5.1080294
1587563192942,8.420407,-18.330008,-5.233725
1587563192954,9.050082,-14.925453,-2.480393
1587563192966,6.05733,-9.494206,1.7753005
1587563192978,3.8833952,-8.300697,3.21661
1587563192988,3.8833952,-8.300697,3.21661
1587563193000,1.2593501,-6.9527617,2.8886044
1587563193011,0.44771573,-6.244078,0.7757214
1587563193022,-0.19991584,-5.729325,-0.7218518
1587563193032,-0.5398925,-5.4384294,-1.5933412
1587563193046,-1.5298948,-6.7719994,-2.0685902
1587563193054,-1.5298948,-6.7719994,-2.0685902
1587563193066,-3.643975,-8.324639,-0.48722005
1587563193076,-4.214992,-8.708909,1.0103531
1587563193088,-4.214992,-8.708909,1.0103531
1587563193098,-4.7201686,-8.938752,2.2182279
1587563193110,-4.473566,-8.422802,2.4001873
1587563193121,-3.205836,-8.336611,1.8770541
1587563193131,-0.7302315,-8.445546,1.448492
1587563193143,4.1132383,-8.668207,-2.7102363
1587563193151,5.5820813,-10.067618,-1.9057846
1587563193163,5.8705826,-10.801441,-0.91817635
1587563193175,2.815581,-11.444284,1.9285295
1587563193185,2.815581,-11.444284,1.9285295
1587563193197,0.6572084,-12.559982,2.9592333
1587563193207,0.19393034,-12.571953,1.9656396
1587563193219,0.2908955,-12.140997,0.8822633
1587563193229,0.9840169,-11.538856,-0.011971008
1587563193241,1.9512744,-10.994174,-0.5614403
1587563193252,2.9101522,-10.488997,-0.58657944
1587563193262,3.4620156,-10.308235,-0.5518635
1587563193274,3.525462,-10.662578,-0.46447513
1587563193284,3.3375173,-11.3880205,-0.10295067
1587563193296,1.555034,-12.302606,1.7046716
1587563193306,1.555034,-12.302606,1.7046716
1587563193318,0.94810385,-12.101493,1.9967642
1587563193328,1.4041992,-12.355278,0.7254431
1587563193340,1.4041992,-12.355278,0.7254431
1587563193350,1.5885528,-13.022063,1.0283096
1587563193362,1.8686744,-12.636597,-0.3172317
1587563193370,1.2270284,-14.008474,-0.4321534
1587563193382,-0.15083471,-14.322115,-0.47764325
1587563193394,-1.958457,-14.06354,-1.5598224
1587563193404,-3.952827,-14.015656,-3.181894
1587563193417,-8.34499,-16.104597,-2.585738
1587563193427,-9.831789,-17.66801,-0.46327803
1587563193437,-9.831789,-17.66801,-0.46327803
1587563193449,-8.608353,-16.186,0.6811504
1587563193460,-6.7827735,-14.754268,0.90859956
1587563193470,-4.8374844,-14.0072775,2.5737667
1587563193482,-3.252523,-14.295778,5.8502316
1587563193492,-1.3730747,-14.927848,8.554482
1587563193504,1.899799,-13.972561,5.0254292
1587563193514,4.6399627,-15.137341,-2.195483
1587563193527,4.9188876,-14.808138,-0.9864111
1587563193537,4.9188876,-14.808138,-0.9864111
1587563193547,1.8806454,-11.070788,-2.7234044
1587563193559,0.22266077,-9.066842,-3.3063924
1587563193570,-1.2677298,-7.28795,-2.9616275
1587563193580,-2.4887726,-6.0022635,-2.7808652
1587563193593,-3.3387144,-4.638766,-2.372654
1587563193604,-3.5781345,-3.1387985,-0.90141696
1587563193615,-1.9955671,-3.1352072,0.1328782
1587563193625,-0.91458505,-3.3075895,0.06584055
1587563193634,-0.91458505,-3.3075895,0.06584055
1587563193646,0.9959879,-2.9831753,-0.23463176
1587563193657,1.1204864,-2.2888567,-0.5770026
1587563193668,0.49679685,-1.62686,-1.2150574
1587563193679,-0.60693014,-1.234211,-1.8339585
1587563193691,-1.8363527,-0.89184016,-2.2996306
1587563193699,-2.7736826,-0.4381389,-2.1559787
1587563193712,-3.3865983,-0.04070143,-1.4449008
1587563193722,-3.3303347,0.06344634,-0.36391866
1587563193733,-2.907758,-0.39264908,0.48362875
1587563193745,-1.448492,-1.9979613,3.50152
1587563193754,-1.448492,-1.9979613,3.50152
1587563193765,-0.19512744,-5.3678,9.782708
1587563193776,-0.8774749,-9.817424,17.669209
1587563193788,-0.8774749,-9.817424,17.669209
1587563193800,4.0785227,-30.503326,18.819622
1587563193808,5.2421045,-39.221813,15.296555
1587563193820,1.9261353,-36.680367,15.771804
1587563193832,-1.6819267,-9.121908,6.862979
1587563193842,-2.3259668,-2.3092074,4.9440265
1587563193854,-4.7261543,0.36750996,1.7788919
1587563193864,-8.780735,0.2777274,1.2401965
1587563193876,-9.645041,-2.847903,5.1259856
1587563193886,-9.645041,-2.847903,5.1259856
1587563193898,-9.339781,-16.104597,7.2927384
1587563193908,-4.697424,-26.777948,5.410896
1587563193920,2.2864625,-31.893162,-0.93972415
1587563193930,6.2404866,-20.705057,-6.6486983
1587563193943,3.0298622,-7.323863,-9.995792
1587563193953,-2.3343468,-0.24899697,-7.3549876
1587563193964,-6.4858923,2.6503813,-1.0510546
1587563193974,-8.465898,3.560178,3.6044707
1587563193986,-7.1885905,1.8734628,-0.4417302
1587563193996,-1.1336545,-5.3199162,-7.275979
1587563194008,0.260968,-8.761581,-5.5856724
1587563194018,0.260968,-8.761581,-5.5856724
1587563194030,2.134431,-15.570691,1.7166426
1587563194041,3.5936968,-17.71829,2.7102363
1587563194051,4.7884035,-17.513586,0.59136784
1587563194063,4.644751,-15.904682,-2.6252422
1587563194074,3.6846764,-12.034455,-1.555034
1587563194084,3.2369606,-10.831368,0.62967503
1587563194096,1.1611878,-7.2699933,3.6379895
1587563194106,-0.20350714,-6.692991,3.0298622
1587563194118,-0.20350714,-6.692991,3.0298622
1587563194128,-1.5610195,-7.466318,0.82121116
1587563194141,-1.7441759,-8.189367,-0.5542577
1587563194151,-1.6699557,-8.6574335,-1.4939818
1587563194161,-1.389834,-8.532935,-1.5011644
1587563194173,-1.30484,-8.439561,-0.9744401
1587563194184,-1.3515269,-8.330625,-0.47644615
1587563194194,-1.3395559,-8.236053,-0.62608373
1587563194206,-1.1025299,-8.176199,-1.9524715
1587563194216,-1.1025299,-8.176199,-1.9524715
1587563194228,-0.5734113,-8.403648,-0.62728083
1587563194238,-0.2693477,-9.038112,1.1001357
1587563194249,-0.12210429,-9.7240505,2.1021092
1587563194261,-0.02873042,-10.05445,2.087744
1587563194272,0.41060558,-10.029311,0.7493851
1587563194282,1.1312603,-9.952697,-1.2545617
1587563194294,1.9835961,-10.110714,-1.9668367
1587563194304,2.1918917,-11.882423,0.094570965
1587563194316,1.5466543,-13.132196,2.0733786
1587563194326,1.0905589,-12.765883,4.429273
1587563194338,1.1432313,-11.915942,3.4931402
1587563194348,1.5682021,-11.7303915,2.1499932
1587563194360,2.528277,-11.9614315,1.5502456
1587563194371,3.503914,-11.716026,0.7697359
1587563194380,4.3287168,-11.134235,0.08020575
1587563194391,4.960786,-10.605117,0.33877954
1587563194402,5.3007627,-10.860099,1.0115502
1587563194414,4.9943047,-11.836933,1.6400281
1587563194425,3.5230677,-12.94066,2.6252422
1587563194437,2.8167782,-13.632585,1.8950106
1587563194447,1.9333179,-14.459781,0.48841715
1587563194459,0.9911995,-14.812926,0.062249243
1587563194467,0.9911995,-14.812926,0.062249243
1587563194479,0.11851298,-14.611813,-0.6476316
1587563194491,-0.038307227,-15.033193,-1.3563153
1587563194502,-0.60094464,-14.720749,-0.4285621
1587563194512,-1.721431,-13.5775175,0.45010993
1587563194524,-6.066907,-10.742783,-2.2577322
1587563194534,-6.066907,-10.742783,-2.2577322
1587563194547,-8.595184,-13.371616,-1.4077905
1587563194557,-8.423999,-15.209167,-0.9600749
1587563194566,-8.423999,-15.209167,-0.9600749
1587563194580,-7.0700774,-15.862783,2.6288335
1587563194591,-5.583278,-15.2331085,3.0561984
1587563194601,-3.2561142,-13.893553,1.7369933
1587563194611,-1.3634979,-13.183672,0.1592144
1587563194623,-0.12090719,-13.618219,-0.094570965
1587563194634,0.7015011,-14.239514,1.1959038
1587563194644,1.3204023,-14.841657,1.4736311
1587563194656,1.2868834,-12.811374,-2.6312277
1587563194666,1.2868834,-12.811374,-2.6312277
1587563194679,0.7697359,-8.796297,-2.5725696
1587563194686,0.11372458,-6.9264255,-3.072958
1587563194698,-0.51355624,-5.2887917,-2.0123265
1587563194710,-1.1324574,-4.220978,-1.0977415
1587563194722,-1.7848774,-3.4955344,-0.8331822
1587563194732,-2.2062569,-2.8383262,-0.015562311
1587563194741,-2.409764,-2.5761611,0.7170634
1587563194753,-2.3104045,-2.4277205,1.1504139
1587563194764,-1.6472107,-2.0231004,1.7968484
1587563194776,-1.364695,-1.970428,1.4041992
1587563194785,-1.4556746,-1.8411411,0.78290397
1587563194798,-1.5610195,-1.8734628,0.21547815
1587563194808,-1.5777789,-1.887828,-0.4309563
1587563194819,-1.6328455,-1.5813702,-0.7098808
1587563194830,-1.7381904,-1.1911154,-0.4189853
1587563194842,-1.9991584,-0.878672,0.2896984
1587563194853,-2.303222,-0.81642276,1.3227965
1587563194864,-2.337938,-1.0977415,2.895787
1587563194874,-2.0733786,-1.7381904,4.7070007
1587563194885,-0.19512744,-4.8745947,8.714894
1587563194897,0.35194764,-7.9116397,11.219229
1587563194905,-0.0023942017,-12.556391,17.611748
1587563194917,-0.0023942017,-12.556391,17.611748
1587563194929,0.40462008,-36.261383,17.920599
1587563194940,-0.81522566,-39.059006,16.411055
1587563194950,-2.2170308,-26.816256,11.622652
1587563194962,-1.1073183,-14.435839,7.952341
1587563194973,0.033518825,-6.6606693,5.306748
1587563194983,-0.18076223,-2.955642,4.4639893
1587563194996,-7.0329676,-6.0357823,4.667496
1587563195006,-7.9236107,-12.282255,9.372103
1587563195018,-8.016984,-20.050241,5.801151
1587563195028,-2.4875755,-29.131449,-3.4045548
1587563195040,8.197746,-31.974564,-11.720815
1587563195050,8.197746,-31.974564,-11.720815
1587563195063,1.9656396,-3.6355953,-11.077971
1587563195073,-3.0466216,3.122039,-6.8282633
1587563195083,-8.009802,7.3106947,12.89517
1587563195095,-7.1287355,4.871003,-3.9911342
1587563195105,-4.9105077,-0.6500258,-10.984597
1587563195116,-4.9105077,-0.6500258,-10.984597
1587563195125,-3.6631286,-9.834184,-5.589264
1587563195136,-4.5537715,-15.06312,0.4357447
1587563195148,-4.5537715,-15.06312,0.4357447
1587563195160,-0.16280572,-17.964893,1.2808979
1587563195172,1.8854338,-17.174807,-1.1168951
1587563195182,3.6128504,-16.806099,-2.9173348
1587563195191,5.7245364,-15.775395,-3.1016884
1587563195203,7.4208283,-14.111424,-2.457648
1587563195214,7.5644803,-11.622652,-0.8690952
1587563195226,2.7724855,-7.327454,1.745373
1587563195235,1.8315643,-7.219715,1.62686
1587563195246,1.8315643,-7.219715,1.62686
1587563195257,0.073023155,-7.358579,-0.50397944
1587563195268,-0.7410054,-7.183802,-1.3826514
1587563195279,-1.4329298,-6.9264255,-0.8798691
1587563195290,-1.8567034,-7.3310456,-0.427365
1587563195301,-2.1212628,-8.312668,-0.9672575
1587563195312,-2.337938,-8.684967,-1.4209588
1587563195323,-2.3798366,-8.579621,-0.8643068
1587563195333,-2.3834279,-7.9607205,0.22984336
1587563195344,-2.4037786,-7.4974427,1.5263035
1587563195356,-2.0003555,-9.083601,2.56419
1587563195366,-2.0003555,-9.083601,2.56419
1587563195378,0.16639702,-9.707291,-0.029927522
1587563195388,1.435324,-10.351331,-1.271321
1587563195400,2.3774424,-10.996569,-1.6328455
1587563195410,2.6791117,-11.052833,-0.8726865
1587563195422,2.3774424,-11.081563,0.94331545
1587563195432,1.8207904,-11.188105,2.8790276
1587563195445,1.5442601,-11.44189,3.7600937
1587563195451,1.7525556,-11.912351,1.8303672
1587563195463,1.7908629,-12.029667,0.6368576
1587563195475,1.9153614,-11.839328,0.49799395
1587563195487,2.2014685,-11.601105,0.46447513
1587563195497,2.2014685,-11.601105,0.46447513
1587563195509,4.1515455,-11.305421,0.6548142
1587563195519,4.9799395,-11.857284,-0.1340753
1587563195532,4.97156,-12.637794,-0.23223756
1587563195541,4.280833,-13.393165,0.973243
1587563195554,3.6212301,-14.18325,1.3838485
1587563195560,2.847903,-14.987702,0.79726917
1587563195572,2.2002714,-15.276204,0.7769185
1587563195586,2.7030537,-13.579912,-0.91697925
1587563195596,2.7030537,-13.579912,-0.91697925
1587563195606,1.6915035,-13.700819,-1.6915035
1587563195618,0.094570965,-14.123396,-1.4281414
1587563195628,-1.7896658,-14.146141,-0.46806642
1587563195639,-3.70383,-13.798982,-0.5805939
1587563195651,-5.2804117,-13.093889,-1.5442601
1587563195661,-6.745663,-12.5504055,-2.9604304
1587563195673,-8.007407,-13.186066,-3.6762967
1587563195684,-8.250419,-14.294581,1.2054806
1587563195694,-8.250419,-14.294581,1.2054806
1587563195706,-6.6056023,-13.989321,5.0146556
1587563195717,-4.7919946,-13.543999,3.095703
1587563195727,-3.1124623,-13.365631,-1.460463
1587563195738,-1.7118542,-13.244724,-2.9317
1587563195749,-0.10055647,-13.136985,-0.93373865
1587563195760,1.3551182,-13.972561,1.4030021
1587563195772,1.5442601,-14.05995,-0.037110128
1587563195779,1.3814543,-12.504915,-1.9476831
1587563195791,1.3395559,-10.487801,-2.2840683
1587563195805,1.0247183,-7.6650367,-2.0219033
1587563195815,0.724246,-6.005855,-3.0765493
1587563195825,0.10295067,-4.497508,-2.360683
1587563195837,-0.36631286,-3.8534677,-0.51475334
1587563195846,-0.36631286,-3.8534677,-0.51475334
1587563195858,-1.2880806,-3.549404,1.1611878
1587563195869,-1.401805,-3.5877113,1.8363527
1587563195880,-1.2892777,-3.513491,1.9608512
1587563195890,-1.1216835,-3.1280246,1.8866309
1587563195901,-0.9624691,-2.791639,1.4496891
1587563195913,-0.94092125,-2.1990743,0.15322891
1587563195924,-1.1480197,-1.8136078,-0.521936
1587563195934,-1.4257472,-1.448492,-0.8451532
1587563195946,-1.7788919,-1.1528081,-0.7577648
1587563195956,-2.0374656,-0.9672575,0.38187516
1587563195969,-1.8136078,-1.1563994,1.2270284
1587563195979,-1.4616601,-1.5861586,2.3463178
1587563195988,-1.0283096,-2.2709002,3.8151605
1587563196002,-0.3184288,-3.2453403,5.470751
1587563196012,0.79487497,-4.631583,7.845799
1587563196023,1.7537527,-7.2927384,8.554482
1587563196034,2.0590134,-11.235989,11.247959
1587563196044,0.7206547,-16.540342,17.529148
1587563196056,0.142455,-31.244331,18.237831
1587563196067,-0.2873042,-28.520927,14.820108
1587563196077,-0.2873042,-28.520927,14.820108
1587563196089,-0.4381389,-12.385205,6.244078
1587563196099,0.11971009,-8.456321,4.413711
1587563196112,0.130484,-6.143522,3.608062
1587563196121,-0.82480246,-3.7241807,3.5541923
1587563196133,-2.895787,-2.0458453,4.2760444
1587563196144,-4.9404354,-4.795586,9.824607
1587563196154,-6.6044054,-10.3226,9.810242
1587563196167,-4.249708,-27.171795,2.5378537
1587563196176,-4.249708,-27.171795,2.5378537
1587563196188,0.15562311,-24.71774,-11.617864
1587563196200,-0.19273324,-9.423578,-10.984597
1587563196210,-3.7732618,-1.0666169,-8.451532
1587563196221,-7.8829093,2.9041667,-4.0653543
1587563196232,-11.7627125,5.9651537,6.669049
1587563196243,-10.769119,5.5341973,1.5382746
1587563196254,-3.0095115,-2.9352913,-6.9623384
1587563196265,-1.3599066,-7.6650367,-7.1407065
1587563196276,-1.3599066,-7.6650367,-7.1407065
1587563196287,0.93014735,-13.388376,-1.9297266
1587563196298,2.0590134,-16.369158,-2.4301147
1587563196308,3.8845923,-18.381483,-4.3023806
1587563196319,6.2740054,-18.7873,-3.4213142
1587563196328,6.2740054,-18.7873,-3.4213142
1587563196339,8.962694,-14.97214,-0.5374983
1587563196350,7.680599,-11.818976,1.2725182
1587563196361,4.0653543,-9.41879,3.9803603
1587563196372,0.80684596,-7.1993647,3.2465374
1587563196384,0.5303157,-6.6103907,0.85473
1587563196394,0.24420857,-6.9371996,-0.33159694
1587563196405,-0.33279404,-6.895301,-2.480393
1587563196417,-0.2765303,-7.076063,-2.432509
1587563196427,-0.2765303,-7.076063,-2.432509
1587563196438,-0.40342298,-9.392453,-1.9201498
1587563196449,-0.94211835,-9.900024,-1.0295067
1587563196460,-1.0390835,-9.870096,0.16280572
1587563196470,-0.58897364,-9.696517,1.2892777
1587563196483,-0.18435353,-9.223662,2.0338743
1587563196493,-0.089782566,-8.7053175,2.3702598
1587563196505,-0.2861071,-8.121132,2.695871
1587563196516,-0.6332663,-8.379706,1.3467385
1587563196526,-0.6332663,-8.379706,1.3467385
1587563196538,0.39264908,-10.245986,-1.4652514
1587563196547,1.0271125,-11.584345,-1.3072342
1587563196559,1.1552023,-11.761516,-0.39624038
1587563196569,0.94092125,-11.107899,1.2533646
1587563196580,0.8403648,-10.358514,3.537433
1587563196593,1.3910311,-10.187328,5.2516813
1587563196602,3.727772,-10.172963,2.1164744
1587563196613,4.429273,-10.013748,0.06344634
1587563196624,4.1156325,-10.049662,-0.6979098
1587563196636,2.7377696,-10.9822035,-1.2856863
1587563196647,2.7581203,-11.137826,-1.4449008
1587563196657,3.1172507,-10.876859,-0.6392518
1587563196669,3.0538042,-10.851719,0.50876784
1587563196681,2.2732944,-11.329363,1.8914193
1587563196691,1.8387469,-11.992557,2.7712884
1587563196702,2.3930047,-12.571953,0.8319851
1587563196712,2.980781,-13.821727,-1.6005238
1587563196724,3.0753522,-15.620969,-2.9831753
1587563196733,2.64679,-16.44218,-4.0282445
1587563196744,1.0414777,-17.098192,-3.1783028
1587563196756,-3.7205894,-18.315643,0.7182605
1587563196763,-3.7205894,-18.315643,0.7182605
1587563196775,-4.602853,-17.06108,0.59495914
1587563196786,-5.2421045,-15.057135,-2.349909
1587563196798,-6.5720835,-14.4849205,-3.6212301
1587563196809,-7.896077,-14.526819,-4.1335893
1587563196820,-8.723274,-14.579492,-3.1759086
1587563196833,-8.202535,-12.522872,-1.6867151
1587563196842,-7.479486,-12.241553,0.5662287
1587563196853,-6.649895,-12.471396,3.4081461
1587563196865,-2.5318682,-12.063186,4.975151
1587563196872,-2.5318682,-12.063186,4.975151
1587563196883,-0.10295067,-12.21402,1.5059528
1587563196894,1.6220716,-13.158532,-2.0817583
1587563196906,3.1435869,-14.403518,-0.59615624
1587563196917,2.267309,-13.623008,-1.62686
1587563196929,1.1240777,-11.60709,-2.3523033
1587563196941,0.45968673,-9.572019,-4.0545807
1587563196951,-0.20111294,-7.575254,-4.033033
1587563196963,-0.7793127,-6.0369797,-3.321955
1587563196973,-1.2186487,-4.6016555,-2.6408045
1587563196985,-1.7429788,-2.9616275,-0.59974754
1587563196996,-1.7788919,-2.6922798,0.47285482
1587563197006,-1.7788919,-2.6922798,0.47285482
1587563197018,-1.2916719,-2.7150247,2.146402
1587563197028,-0.8355764,-2.6839,2.2888567
1587563197040,-0.40940848,-2.6120741,1.8100165
1587563197050,-0.11252748,-2.420538,0.6703765
1587563197063,-0.3890578,-2.0446482,-0.07062895
1587563197073,-0.89064306,-1.5933412,-0.7062895
1587563197084,-1.3491327,-1.2545617,-0.9648633
1587563197094,-1.4293385,-1.0319009,-0.80564886
1587563197106,-1.3084313,-0.7649474,-0.51714754
1587563197116,-1.0702082,-0.5351041,0.45130703
1587563197127,-1.0702082,-0.5351041,0.45130703
1587563197139,-0.37708676,-1.8171991,3.9217024
1587563197150,0.36631286,-2.9484594,7.303512
1587563197160,0.36631286,-2.9484594,7.303512
1587563197172,2.2337902,-6.3745623,13.600263
1587563197182,2.6264393,-11.153389,16.911444
1587563197195,4.259285,-35.628117,15.757439
1587563197201,4.259285,-35.628117,15.757439
1587563197213,1.5466543,-39.221813,14.449007
1587563197225,-2.4181437,-32.626984,10.959458
1587563197237,-2.822764,-7.7943234,7.338228
1587563197247,-3.8307228,-3.6296098,4.9224787
1587563197259,-3.8307228,-3.6296098,4.9224787
1587563197271,-10.184934,-7.0425444,4.3993454
1587563197282,-11.844116,-22.646753,8.716091
1587563197291,-2.7617116,-30.230389,-0.7625532
1587563197302,10.217256,-27.092787,-11.134235
1587563197313,8.907627,-14.367604,-7.881712
1587563197322,1.411382,-1.4161704,-11.115082
1587563197333,-4.876989,6.7085533,-12.344504
1587563197344,-13.26268,11.148601,14.7315235
1587563197355,-13.26268,11.148601,14.7315235
1587563197365,-5.222951,2.3391352,-8.277952
1587563197376,-2.598906,-4.796783,-8.959103
1587563197387,-2.597709,-12.164939,-6.721721
1587563197399,-3.0693667,-17.669209,0.12808979
1587563197411,-1.851915,-19.74139,2.8802247
1587563197420,1.127669,-19.643229,-0.79607207
1587563197432,4.617218,-19.25417,-3.9827545
1587563197443,8.0445175,-18.45331,-4.8865657
1587563197454,10.075998,-16.798916,-3.5362358
1587563197464,10.522516,-13.3943615,-0.1448492
1587563197476,8.428787,-9.55047,2.1739352
1587563197486,2.9293058,-7.6135616,4.050989
1587563197498,1.7250223,-8.09719,2.873042
1587563197508,1.7250223,-8.09719,2.873042
1587563197520,-0.3878607,-7.916428,-1.389834
1587563197528,-0.6655881,-7.583634,-2.088941
1587563197540,-0.6859388,-7.4687123,-2.099715
1587563197552,-0.5614403,-7.7919292,-2.0290859
1587563197563,-0.62249243,-7.8589673,-1.5634137
1587563197573,-1.1851299,-7.5788455,-0.545878
1587563197587,-2.6288335,-7.6123643,0.25258827
1587563197597,-3.120842,-7.5106106,1.0702082
1587563197607,-3.120842,-7.5106106,1.0702082
1587563197617,-3.657143,-8.080431,3.810372
1587563197629,-3.6966474,-9.173384,2.9843724
1587563197637,-2.6611552,-9.742006,0.6835446
1587563197649,-0.59495914,-9.576807,-2.3475149
1587563197661,1.7753005,-9.941922,-3.4751837
1587563197671,3.5098996,-10.431537,-2.2014685
1587563197683,4.284424,-10.782288,-0.23822308
1587563197695,3.0681696,-10.990582,3.1387985
1587563197705,3.0681696,-10.990582,3.1387985
1587563197715,3.205836,-11.808203,2.3702598
1587563197727,3.0969,-11.947066,1.0498575
1587563197736,2.598906,-11.98298,0.7565677
1587563197749,3.277662,-11.931504,0.4357447
1587563197758,4.406528,-11.668142,-0.36990416
1587563197769,4.8039656,-11.398794,-0.8774749
1587563197780,4.3155484,-11.332953,-0.22625206
1587563197792,3.333926,-11.876437,0.8367735
1587563197805,2.1859062,-12.427104,1.5837644
1587563197814,2.3798366,-12.190078,1.8423382
1587563197826,2.9951463,-12.785037,0.077811554
1587563197836,2.873042,-14.1425495,-0.5722142
1587563197848,2.5941176,-14.760254,-0.5446809
1587563197856,2.5941176,-14.760254,-0.5446809
1587563197868,0.7015011,-14.258668,-0.5590461
1587563197881,-0.8367735,-15.021221,0.50757074
1587563197891,-2.6312277,-14.55555,1.6484078
1587563197901,-4.357447,-13.651738,1.5047557
1587563197914,-5.321113,-12.79222,-1.7860745
1587563197923,-6.147113,-12.712014,-4.7919946
1587563197936,-8.848969,-14.669273,-3.9516299
1587563197946,-9.442732,-15.371972,-2.110489
1587563197956,-9.442732,-15.371972,-2.110489
1587563197967,-5.779603,-13.979744,2.397793
1587563197980,-3.928885,-14.116213,3.1364043
1587563197990,-1.9728222,-14.833277,3.5218706
1587563198000,0.6380547,-14.792575,1.9752164
1587563198012,2.2218192,-15.02601,0.46088383
1587563198023,3.4249055,-15.045163,0.1316811
1587563198033,4.104859,-15.124172,0.088585466
1587563198044,2.5031378,-13.67568,-1.4856021
1587563198055,2.5031378,-13.67568,-1.4856021
1587563198066,0.05865794,-9.630676,-2.6874914
1587563198076,-1.0307038,-8.037335,-2.4552538
1587563198087,-1.9608512,-6.271611,-2.5677812
1587563198099,-2.3355439,-4.4077253,-1.6986861
1587563198109,-2.6611552,-2.9855695,-1.0319009
1587563198121,-2.753332,-2.0099323,-0.36272156
1587563198131,-2.504335,-1.1324574,0.32441434
1587563198143,-2.123657,-0.58418524,0.89662856
1587563198153,-1.5346833,-0.29209262,1.0714053
1587563198165,-0.18794483,-0.51116204,0.05746084
1587563198179,0.04189853,-1.1001357,-0.39025488
1587563198183,0.04189853,-1.1001357,-0.39025488
1587563198196,-0.90740246,-1.8088194,-1.3467385
1587563198208,-1.365892,-1.7621324,-1.2641385
1587563198219,-1.9524715,-1.388637,-0.93373865
1587563198230,-2.5079262,-0.9947908,-0.1388637
1587563198241,-2.6431987,-1.1623849,1.0534488
1587563198253,-2.3942018,-1.8962077,2.4241292
1587563198263,-1.5586253,-2.6767175,4.559757
1587563198275,-0.28491,-5.568913,9.865308
1587563198285,-0.28491,-5.568913,9.865308
1587563198297,-0.7266402,-17.135302,19.454086
1587563198307,-0.7266402,-17.135302,19.454086
1587563198319,4.249708,-39.221813,15.494077
1587563198329,0.59974754,-39.196674,14.929045
1587563198341,-0.8559271,-22.882584,12.097901
1587563198351,-0.81761986,-9.295488,8.323442
1587563198363,-1.0067618,-0.6584055,6.5361705
1587563198373,-1.70946,3.311181,4.593276
1587563198386,-3.4620156,2.3750482,1.448492
1587563198396,-8.8777,-5.434838,2.7150247
1587563198407,-9.937134,-11.920731,4.0653543
1587563198419,-8.850166,-20.497957,1.2018893
1587563198430,5.813122,-28.218061,-7.1107793
1587563198439,5.813122,-28.218061,-7.1107793
1587563198452,2.7509377,-4.3239284,-7.180211
1587563198462,-1.3826514,1.043872,-4.7656584
1587563198475,-7.714118,3.5673606,4.2461166
1587563198485,-7.714118,3.5673606,4.2461166
1587563198495,-4.140772,-2.633622,-7.3071036
1587563198507,-3.0621839,-6.4978633,-4.6710877
1587563198515,-2.8455088,-10.785878,-0.6691794
1587563198527,-2.5725696,-14.945804,3.3051953
1587563198539,-2.5725696,-14.945804,3.3051953
1587563198552,1.7441759,-15.394717,-1.6005238
1587563198563,3.879804,-15.97172,-2.5103204
1587563198573,5.685032,-16.207548,-2.5773582
1587563198583,7.3885064,-15.377957,-1.8902222
1587563198593,7.6027875,-12.722788,-1.0354922
1587563198606,6.278794,-9.895236,-0.047884032
1587563198616,3.2692823,-7.1490865,2.1559787
1587563198628,2.2948422,-7.3286514,2.8060043
1587563198638,2.2948422,-7.3286514,2.8060043
1587563198650,0.46567222,-7.3178773,0.7134721
1587563198660,-1.1133038,-7.5213847,-0.45968673
1587563198672,-1.555034,-7.937976,-0.5470751
1587563198683,-1.9309237,-8.871715,-1.2785037
1587563198694,-1.9117701,-9.099164,-1.3132197
1587563198705,-1.8938135,-8.65025,-0.18674773
1587563198717,-1.99437,-7.9152308,2.100912
1587563198727,-1.8986019,-8.690952,2.585738
1587563198738,-1.8986019,-8.690952,2.585738
1587563198749,-0.47524905,-9.320627,2.019509
1587563198760,0.7410054,-9.566033,0.81761986
1587563198772,1.9452889,-9.9550905,-0.45489833
1587563198781,2.6922798,-10.433931,-1.1133038
1587563198792,2.9712043,-10.770316,-0.9600749
1587563198803,2.6192567,-10.87207,0.5674258
1587563198814,1.2401965,-11.463438,4.5801077
1587563198826,1.2509704,-11.154586,4.462792
1587563198838,1.2509704,-11.154586,4.462792
1587563198847,2.89459,-11.547235,1.8734628
1587563198859,3.429694,-11.597513,0.260968
1587563198870,3.5637693,-11.632229,-0.4165911
1587563198880,3.678691,-11.558009,-0.5231331
1587563198893,4.2940006,-11.741165,0.3854665
1587563198904,3.83192,-12.040441,1.1228806
1587563198914,3.241749,-12.143391,2.5318682
1587563198924,2.7712884,-12.174516,3.6248214
1587563198936,2.4672248,-12.503718,2.8754363
1587563198946,1.827973,-14.164097,-0.15801731
1587563198958,1.5059528,-14.502877,-0.34955344
1587563198969,1.0319009,-14.194025,-1.1887212
1587563198979,0.33399114,-14.387955,-1.1228806
1587563198991,-0.5351041,-15.142129,-0.866701
1587563199001,-1.9045875,-14.738706,0.20709845
1587563199013,-3.7134068,-13.024457,0.8463503
1587563199023,-5.057751,-12.014104,-0.9504981
1587563199036,-6.1123967,-12.166136,-3.0226796
1587563199046,-8.441956,-14.863204,-1.5310919
1587563199055,-8.36175,-15.34803,-0.29568392
1587563199070,-7.657854,-14.9889,0.37110126
1587563199078,-6.847417,-15.482105,1.5143325
1587563199090,-5.1475334,-14.749479,2.8407204
1587563199100,-3.1280246,-14.275428,2.328361
1587563199112,-0.82480246,-13.545197,1.377863
1587563199123,2.4349031,-14.205996,0.61530983
1587563199133,3.3973722,-14.323312,1.9021933
1587563199146,2.4744074,-13.189657,-1.2030864
1587563199156,1.934515,-11.542446,-1.9249382
1587563199166,1.934515,-11.542446,-1.9249382
1587563199178,0.25857377,-8.244433,-2.8802247
1587563199188,-0.7146692,-6.3901243,-1.9800048
1587563199200,-1.4053963,-4.757279,-1.1252748
1587563199210,-2.0326772,-3.5218706,-0.93373865
1587563199222,-2.3056161,-2.5833437,0.17836803
1587563199232,-2.5486276,-2.1332338,0.33039984
1587563199244,-2.4720132,-1.7992426,0.6452374
1587563199254,-2.123657,-1.3192052,1.1360487
1587563199266,-1.6759412,-0.90261406,1.1300632
1587563199276,-0.9911995,-0.7374141,-0.36391866
1587563199288,-0.9720459,-0.93254155,-0.7577648
1587563199298,-1.0893618,-0.89423436,-0.93254155
1587563199310,-1.2653356,-0.7673417,-1.0378864
1587563199320,-1.2653356,-0.7673417,-1.0378864
1587563199332,-1.8064252,-0.5674258,-0.8810662
1587563199342,-2.1152773,-0.5518635,-0.47644615
1587563199354,-1.3587095,-2.4851813,2.823961
1587563199365,-1.3587095,-2.4851813,2.823961
1587563199375,-0.077811554,-5.803545,7.9128366
1587563199387,-0.077811554,-5.803545,7.9128366
1587563199394,1.7381904,-14.894329,20.329166
1587563199407,5.140351,-30.386011,22.911314
1587563199419,5.140351,-30.386011,22.911314
1587563199429,2.1667526,-39.161957,13.036428
1587563199442,-0.22744916,-23.688232,11.998542
1587563199453,-0.46447513,-10.56681,9.267955
1587563199464,-0.38067806,-2.421735,7.2807674
1587563199474,-2.753332,1.4808137,4.2317514
1587563199484,-2.753332,1.4808137,4.2317514
1587563199497,-9.0716305,-8.789114,3.9851487
1587563199502,-9.0716305,-8.789114,3.9851487
1587563199515,-10.301053,-15.9417925,4.6483426
1587563199527,-1.9788077,-32.213985,-9.115923
1587563199538,8.91481,-28.013357,-9.9550905
1587563199549,8.100781,-13.968969,-6.1519012
1587563199560,2.421735,-2.8191724,-8.147469
1587563199573,-2.823961,2.8311436,-4.8781857
1587563199584,-10.222044,8.110358,5.7389016
1587563199594,-7.368156,3.927688,-7.565677
1587563199604,-4.820725,-1.578976,-9.344569
1587563199616,-3.7481227,-6.0525417,-6.283582
1587563199626,-3.8881836,-17.050308,0.9564836
1587563199638,-2.0266917,-18.617311,0.78170687
1587563199648,1.376666,-18.292898,-1.8938135
1587563199660,4.2676644,-18.606539,-3.739743
1587563199671,7.171831,-18.34557,-4.355053
1587563199681,9.277532,-16.43859,-2.6312277
1587563199693,8.798691,-12.492945,-0.46208093
1587563199704,4.0138793,-8.054094,1.3970166
1587563199715,4.0138793,-8.054094,1.3970166
1587563199725,1.0546459,-6.9623384,1.8171991
1587563199737,0.17597382,-6.742072,0.24420857
1587563199746,-0.30645782,-6.4368114,-0.82480246
1587563199757,-0.6464345,-6.4416,-1.8614918
1587563199768,-0.8559271,-6.9767036,-2.147599
1587563199780,-1.4508862,-7.4986396,-2.079364
1587563199791,-1.8363527,-8.348581,-1.2210429
1587563199804,-2.565387,-9.051279,-0.0047884034
1587563199814,-3.5410242,-9.068039,1.9632454
1587563199824,-3.3243492,-8.686164,2.7162218
1587563199836,-2.5366566,-8.552089,2.6408045
1587563199846,0.7589619,-8.962694,0.095768064
1587563199858,2.6599581,-9.251195,-1.4796166
1587563199868,2.6599581,-9.251195,-1.4796166
1587563199881,4.642357,-10.752359,-1.5011644
1587563199891,3.6894648,-10.284293,-0.8702923
1587563199901,2.1775265,-10.1226845,0.58897364
1587563199913,0.90141696,-10.844537,2.0015526
1587563199922,0.1352724,-11.74715,3.1160536
1587563199934,-0.08020575,-12.356475,3.7301662
1587563199942,0.011971008,-12.413936,3.6463692
1587563199956,1.9297266,-12.2559185,1.8291701
1587563199966,1.9297266,-12.2559185,1.8291701
1587563199976,4.177882,-11.518504,-0.93493575
1587563199988,4.590882,-11.032481,-0.2681506
1587563199998,4.7919946,-10.868479,0.6536171
1587563200010,4.8817773,-11.21444,1.1360487
1587563200021,4.39336,-11.597513,1.411382
1587563200031,3.7660792,-11.872847,2.4468741
1587563200043,3.2692823,-13.02326,1.1480197
1587563200052,3.0585926,-14.019248,0.5470751
1587563200064,2.7497406,-14.237121,0.46567222
1587563200074,2.3870192,-13.65533,0.075417355
1587563200085,0.06344634,-14.701595,0.21787235
1587563200097,0.06344634,-14.701595,0.21787235
1587563200107,-3.819949,-13.378799,2.1631613
1587563200119,-5.029021,-11.52449,0.40940848
1587563200130,-5.530606,-11.279084,-3.0430303
1587563200140,-6.5481415,-12.26789,-4.5525746
1587563200152,-7.7093296,-14.239514,-3.7948096
1587563200160,-8.283937,-16.468517,-2.4361002
1587563200173,-7.9942393,-17.171215,-0.7110779
1587563200183,-6.68102,-16.24466,1.0857705
1587563200196,-2.873042,-14.138958,3.618836
1587563200206,-1.6424223,-14.478935,4.176685
1587563200216,-1.6424223,-14.478935,4.176685
1587563200229,0.79966336,-13.693637,3.1040826
1587563200238,1.5167267,-13.455414,-0.4225766
1587563200250,2.0649989,-13.816938,-1.8602947
1587563200259,2.432509,-13.636176,-1.472434
1587563200274,-0.027533319,-9.181764,-1.7549498
1587563200281,-0.027533319,-9.181764,-1.7549498
1587563200293,-0.91937345,-7.7799582,-1.1264719
1587563200304,-2.2146366,-5.2169657,-0.7266402
1587563200315,-2.2146366,-5.2169657,-0.7266402
1587563200326,-2.3439236,-3.513491,-0.46686932
1587563200336,-1.8842367,-3.1435869,0.17118542
1587563200347,-1.8842367,-3.1435869,0.17118542
1587563200358,-0.8822633,-2.244564,-0.5422867
1587563200369,-0.5734113,-1.4568717,-1.0295067
1587563200377,-0.62847793,-0.5231331,-0.7637503
1587563200388,-0.88944596,-0.08619126,-0.35553896
1587563200400,-1.2617443,-0.11731588,-0.23343466
1587563200412,-1.7764976,0.01436521,-0.36391866
1587563200424,-2.3582888,0.11372458,-0.49081135
1587563200434,-2.2170308,-0.079008654,-0.2705448
1587563200446,-2.2170308,-0.079008654,-0.2705448
1587563200456,-1.3874398,-1.2761095,0.9828198
1587563200468,-0.8499416,-2.1631613,1.9249382
1587563200478,-0.23942018,-3.5110967,3.9815574
1587563200490,0.7302315,-5.4767365,8.810662
1587563200500,0.7302315,-5.4767365,8.810662
1587563200512,1.2785037,-20.585346,23.787592
1587563200522,4.0677485,-35.93936,19.042284
1587563200534,-0.7781156,-30.917524,14.29937
1587563200545,-0.7781156,-30.917524,14.29937
1587563200555,-1.115698,-7.595605,7.551312
1587563200591,-4.3275194,-0.11611878,0.7793127
1587563200598,-4.3275194,-0.11611878,0.7793127
1587563200604,-6.9946604,-3.2357635,1.567005
1587563200624,-9.404425,-14.979323,6.232107
1587563200630,-9.642648,-23.66429,4.381389
1587563200642,-2.9867666,-32.825703,-3.0825348
1587563200654,8.349778,-30.62184,-7.642292
1587563200664,7.821857,-14.853627,-7.007828
1587563200675,-3.6355953,3.4943373,-7.0808516
1587563200685,-8.98903,7.0425444,7.0090256
1587563200697,-8.98903,7.0425444,7.0090256
1587563200708,-7.315483,5.175067,-5.3235073
1587563200719,-1.8100165,0.33039984,-8.695741
1587563200731,-1.2090719,-11.197681,-5.7867856
1587563200740,-1.0079589,-16.988058,1.9476831
1587563200751,0.46088383,-19.48521,4.3275194
1587563200762,2.7509377,-18.446127,0.16759412
1587563200774,4.799177,-17.460913,-1.9512744
1587563200783,6.3985043,-16.60738,-3.3327289
1587563200795,7.4088573,-14.942213,-2.184709
1587563200808,5.3737855,-9.653421,1.42455
1587563200818,3.513491,-8.219295,2.8622682
1587563200829,2.0913353,-8.321048,3.5087025
1587563200838,1.1324574,-8.191761,2.7030537
1587563200849,0.1376666,-7.785944,1.1336545
1587563200861,-0.61052144,-7.529764,-0.8643068
1587563200873,-0.9600749,-7.3609734,-2.2361844
1587563200881,-0.90500826,-7.5082164,-1.8698715
1587563200892,-0.6607997,-7.9032598,-1.3754689
1587563200904,-1.1791444,-8.118738,0.58777654
1587563200915,-1.590947,-8.268375,0.8415619
1587563200925,-1.8986019,-8.462306,0.8535329
1587563200936,-2.2709002,-8.905233,0.61890113
1587563200945,-2.2709002,-8.905233,0.61890113
1587563200956,-2.0506337,-8.512584,1.3802572
1587563200968,-0.78769237,-8.724471,1.9476831
1587563200979,0.5781997,-9.233239,0.8678981
1587563200990,1.875857,-9.574412,-0.760159
1587563201001,2.8862102,-10.269928,-1.5897499
1587563201012,3.2980127,-10.87207,-0.93254155
1587563201023,2.8981812,-11.0935335,0.37349546
1587563201034,2.2828712,-10.936713,2.9005754
1587563201046,1.9800048,-11.063606,5.129577
1587563201054,2.1894975,-11.896789,4.76925
1587563201065,4.2197804,-12.963405,0.6799533
1587563201077,4.2197804,-12.963405,0.6799533
1587563201089,4.26527,-11.914744,-0.5542577
1587563201100,3.727772,-11.476605,0.5315128
1587563201110,3.478775,-11.723208,1.5682021
1587563201122,3.1794999,-12.258312,2.2290018
1587563201133,2.813187,-12.606669,2.7808652
1587563201143,2.3355439,-12.367249,3.3147724
1587563201156,1.1575965,-12.477382,2.373851
1587563201162,1.1575965,-12.477382,2.373851
1587563201175,0.7541735,-13.540408,1.2126632
1587563201186,1.3323733,-14.7159605,-0.81881696
1587563201198,0.712275,-14.3975315,-0.29927522
1587563201209,-0.40821138,-14.359224,0.39025488
1587563201220,-1.8710686,-13.636176,1.3874398
1587563201230,-1.8710686,-13.636176,1.3874398
1587563201242,-4.3287168,-12.850878,-2.3008277
1587563201252,-5.5641246,-13.854048,-2.9317
1587563201263,-6.566098,-15.278598,-1.9333179
1587563201273,-7.076063,-15.790957,-0.0023942017
1587563201285,-7.3633676,-16.33444,2.268506
1587563201294,-7.3633676,-16.33444,2.268506
1587563201305,-4.703409,-15.370775,2.0099323
1587563201317,-2.5737667,-14.308947,1.9069817
1587563201328,-2.5737667,-14.308947,1.9069817
1587563201339,0.81522566,-13.676877,-0.15322891
1587563201350,1.7405846,-13.54759,-0.10175357
1587563201361,2.2780828,-13.379996,0.15203181
1587563201372,2.1978772,-12.697649,-0.724246
1587563201383,1.459266,-11.583148,-0.9516952
1587563201393,0.7637503,-10.412383,-0.59495914
1587563201405,-0.82001406,-7.2747817,-0.33997664
1587563201415,-1.5693992,-5.0278234,0.031124622
1587563201427,-1.5693992,-5.0278234,0.031124622
1587563201440,-0.9995792,-3.4488475,-0.008379706
1587563201450,-0.62488663,-2.6503813,-0.47405192
1587563201460,-0.37948096,-1.6819267,-0.6572084
1587563201471,-0.5530606,-0.8499416,-0.6476316
1587563201483,-1.0618285,-0.47046062,-0.6895301
1587563201492,-1.5167267,-0.037110128,-1.0271125
1587563201505,-2.219425,-0.016759412,-0.80804306
1587563201516,-2.067393,-0.4333505,-0.15682021
1587563201526,-2.067393,-0.4333505,-0.15682021
1587563201536,-1.0666169,-1.851915,1.2437878
1587563201547,-0.63206923,-2.7844565,2.0446482
1587563201560,-0.49559975,-3.7122097,3.807978
1587563201570,-0.5518635,-5.104438,6.172252
1587563201581,-0.46327803,-6.8869214,8.7532015
1587563201591,0.4213795,-9.190144,10.770316
1587563201603,1.4867992,-12.48217,11.750742
1587563201613,1.6927006,-16.333244,12.477382
1587563201626,0.7266402,-19.491196,15.057135
1587563201635,-1.3802572,-19.437326,15.964537
1587563201647,-0.20111294,-9.967062,10.150218
1587563201658,0.5674258,-6.241684,5.767632
1587563201668,1.5035586,-3.9360676,3.7193923
1587563201680,1.827973,-2.4361002,3.1519666
1587563201689,0.50397944,-2.2026656,2.516306
1587563201701,-3.0238767,-4.6244006,3.596091
1587563201708,-6.591237,-10.380061,5.0757074
1587563201719,-9.114726,-18.699913,4.8027687
1587563201730,-10.280702,-28.427553,1.5286977
1587563201741,-1.2330139,-34.073082,-0.02873042
1587563201752,8.900445,-27.117926,-1.1695676
1587563201764,7.273585,-11.777079,-4.368221
1587563201775,0.48961425,-1.2449849,-9.768343
1587563201786,-12.254722,4.751293,15.2809925
1587563201797,-13.309367,3.6846764,8.846576
1587563201808,-9.545682,1.3335704,-3.7720647
1587563201817,-5.1822495,-2.0949266,-6.0920463
1587563201829,-5.1822495,-2.0949266,-6.0920463
1587563201841,-2.6886885,-10.4171715,-5.955577
1587563201851,-1.5179238,-13.208811,-1.9129672
1587563201863,0.30885202,-15.337256,1.0809821
1587563201873,2.1511903,-15.569493,0.21787235
1587563201885,7.410054,-15.726314,-1.1994951
1587563201895,7.410054,-15.726314,-1.1994951
1587563201907,8.2276745,-11.208455,-0.09816227
1587563201917,6.408081,-9.321824,0.7326257
1587563201929,4.3287168,-8.149862,1.1312603
1587563201939,2.870648,-7.303512,1.2485762
1587563201951,2.1631613,-6.5828576,0.9648633
1587563201961,1.5610195,-6.435614,0.2657564
1587563201973,1.1935096,-6.525397,-0.33997664
1587563201983,0.6871359,-6.715736,-0.61890113
1587563202000,-2.3415294,-7.368156,-0.91099375
1587563202010,-3.157952,-8.191761,-0.7015011
1587563202020,-3.027468,-9.02614,0.22505496
1587563202031,-2.9472623,-9.187749,1.1145009
1587563202041,-2.6731262,-8.887277,1.79206
1587563202053,-2.1571758,-8.595184,1.5298948
1587563202064,-1.2964603,-8.384495,1.401805
1587563202074,-0.5614403,-8.1642275,1.0295067
1587563202085,0.5734113,-9.983821,-0.92057055
1587563202098,1.186327,-11.009736,-0.92296475
1587563202108,1.638831,-11.499351,-0.074220255
1587563202118,1.7489643,-11.044453,1.1061212
1587563202130,1.8447324,-10.647015,2.6060886
1587563202140,2.1080947,-10.475829,3.8546648
1587563202152,2.6156654,-10.55005,3.738546
1587563202164,3.3435028,-10.972627,2.005144
1587563202174,3.9600096,-11.461043,0.4357447
1587563202184,3.90614,-11.565191,-0.50397944
1587563202196,2.8754363,-11.453861,-0.29688102
1587563202206,2.7665,-11.417948,-0.29688102
1587563202218,2.9017725,-11.35929,-0.11731588
1587563202229,2.5617957,-11.481394,0.50637364
1587563202239,1.9680338,-11.731588,1.5466543
1587563202252,1.5011644,-11.924321,2.6408045
1587563202259,1.5011644,-11.924321,2.6408045
1587563202271,1.4915876,-12.419921,3.2812533
1587563202283,1.7477672,-13.001713,1.7621324
1587563202294,1.7250223,-13.869611,1.0151415
1587563202304,1.7585411,-14.624981,0.6500258
1587563202316,0.8331822,-13.986926,-2.3774424
1587563202326,0.8331822,-13.986926,-2.3774424
1587563202338,-3.6212301,-13.090298,1.1803415
1587563202348,-4.7548847,-12.191275,-0.8571242
1587563202360,-4.7548847,-12.191275,-0.8571242
1587563202368,-7.451953,-13.973758,-2.742558
1587563202381,-8.771158,-16.238672,-1.2282255
1587563202391,-9.044097,-17.24783,-0.51355624
1587563202405,-7.9571295,-15.946581,0.37229836
1587563202414,-4.4005427,-13.494918,3.1196449
1587563202424,-4.4005427,-13.494918,3.1196449
1587563202435,-0.8343793,-13.219584,3.7122097
1587563202447,0.712275,-13.627796,0.32321724
1587563202456,0.712275,-13.627796,0.32321724
1587563202467,2.610877,-13.579912,0.2908955
1587563202476,2.8502972,-13.462596,0.7457938
1587563202488,2.3762453,-13.18008,-0.17597382
1587563202498,1.1923125,-11.60709,-1.8315643
1587563202509,0.2885013,-9.853337,-2.0901382
1587563202521,-0.6488287,-8.117541,-2.0111294
1587563202533,-1.3192052,-6.6247563,-1.5921441
1587563202543,-1.5191209,-5.5497594,-0.90261406
1587563202556,-1.7764976,-4.381389,-0.94092125
1587563202565,-1.1061212,-2.1978772,0.055066638
1587563202577,-0.78769237,-1.6089035,-0.18435353
1587563202587,-0.5351041,-0.9756372,-0.23463176
1587563202597,-0.50397944,-0.59017074,-0.320823
1587563202610,-0.50397944,-0.59017074,-0.320823
1587563202620,-1.0115502,-0.9588778,-0.60932434
1587563202630,-1.4161704,-1.1049241,-0.9840169
1587563202642,-1.7980455,-1.1228806,-1.2557588
1587563202654,-1.9692309,-1.1432313,-1.0833763
1587563202664,-1.946486,-1.1791444,-0.62249243
1587563202674,-1.8842367,-1.0714053,-0.11372458
1587563202686,-1.6077064,-1.6795325,0.9792285
1587563202694,-1.2785037,-2.5246856,2.2266076
1587563202706,-1.2785037,-2.5246856,2.2266076
1587563202718,-0.25378537,-5.4025164,7.216124
1587563202730,0.2621651,-7.4746976,10.189722
1587563202740,0.24660277,-11.282676,15.138537
1587563202750,2.1547816,-19.448101,23.321918
1587563202761,5.7867856,-34.17244,20.45965
1587563202772,4.892551,-39.221813,15.06312
1587563202784,0.14724341,-19.232622,11.811794
1587563202794,0.14724341,-19.232622,11.811794
1587563202805,0.17238252,-2.5246856,7.0221934
1587563202817,-3.6020765,-3.277662,1.9979613
1587563202827,-7.4974427,-8.823831,3.952827
1587563202839,-9.424775,-15.412673,2.303222
1587563202849,-9.788693,-23.636757,-0.50637364
1587563202862,-4.9643774,-30.845697,-8.486248
1587563202873,6.731298,-28.888437,-8.617929
1587563202884,8.495825,-14.871584,-7.681796
1587563202894,2.6803088,-2.9340942,-8.842984
1587563202904,-2.088941,3.7960067,-7.914034
1587563202916,-10.69849,11.299435,11.1893015
1587563202927,-7.7584105,6.017826,-4.947618
1587563202937,-5.1020436,-0.4201824,-9.659407
1587563202949,-3.8833952,-6.1279593,-7.439982
1587563202960,-4.272453,-12.688072,-3.752911
1587563202970,-3.8546648,-17.809269,1.9668367
1587563202982,-1.4748282,-18.12291,3.0705638
1587563202992,0.8367735,-17.228676,0.40701428
1587563203004,3.394978,-17.095797,-1.5406688
1587563203014,6.2728086,-16.510414,-1.8195933
1587563203026,6.9731126,-8.541314,0.51954174
1587563203037,4.711789,-7.5441294,1.4951789
1587563203048,3.0083144,-7.548918,2.184709
1587563203058,3.0083144,-7.548918,2.184709
1587563203069,1.13964,-7.6027875,-0.055066638
1587563203082,0.6751649,-7.398083,-0.4201824
1587563203093,0.34237084,-7.1993647,-0.7769185
1587563203103,0.073023155,-7.243657,-0.5722142
1587563203113,-0.045489833,-7.541735,-0.46806642
1587563203126,-0.7015011,-8.08881,0.6871359
1587563203132,-0.7015011,-8.08881,0.6871359
1587563203147,-1.6496049,-8.287529,1.3850456
1587563203157,-1.6496049,-8.287529,1.3850456
1587563203168,-1.7597382,-8.461109,0.39983168
1587563203177,-1.3239936,-8.200141,0.7278373
1587563203188,-0.8523358,-8.100781,1.9201498
1587563203200,-0.5805939,-8.365341,1.6567876
1587563203211,-0.108936176,-8.746018,0.31364042
1587563203222,0.6500258,-9.500193,-1.1695676
1587563203235,1.364695,-10.298658,-1.5358804
1587563203241,1.364695,-10.298658,-1.5358804
1587563203253,1.4987702,-10.739192,0.80205756
1587563203265,1.6316484,-10.135853,3.822343
1587563203278,2.111686,-10.371682,1.9440918
1587563203288,2.111686,-10.371682,1.9440918
1587563203298,3.0358477,-10.858902,0.41299978
1587563203311,3.4117374,-10.751163,0.33997664
1587563203322,3.8989575,-10.43034,0.19512744
1587563203334,4.44723,-10.223241,0.3878607
1587563203344,4.879383,-10.192117,1.0283096
1587563203356,4.8973393,-10.368091,1.721431
1587563203366,4.2700586,-11.617864,1.0821792
1587563203378,3.9935284,-12.02009,0.36152446
1587563203388,3.9935284,-12.02009,0.36152446
1587563203400,2.9005754,-14.9386215,0.62009823
1587563203410,2.6719291,-15.689203,-0.545878
1587563203423,2.2038627,-17.130512,-1.2378023
1587563203434,0.9600749,-19.303251,-0.23822308
1587563203444,-1.5310919,-18.851944,0.6619968
1587563203455,-3.6978445,-16.328455,1.3144168
1587563203465,-6.4416,-13.54759,-2.89459
1587563203477,-8.190564,-14.55555,-3.6391866
1587563203487,-8.190564,-14.55555,-3.6391866
1587563203499,-9.010578,-14.718355,0.50158525
1587563203510,-7.7464395,-13.5296335,2.3223755
1587563203520,-6.649895,-14.045585,3.2920272
1587563203532,-4.5166616,-14.083892,3.7337575
1587563203543,-2.2948422,-13.663709,2.2768857
1587563203554,0.32800564,-13.054385,-0.11731588
1587563203564,3.9025488,-14.322115,-0.12330139
1587563203577,4.011485,-14.196419,0.35075054
1587563203586,4.011485,-14.196419,0.35075054
1587563203598,1.9919758,-11.720815,-1.0486604
1587563203609,0.557849,-9.89763,-1.7465701
1587563203619,-0.63206923,-8.191761,-2.64679
1587563203631,-1.4544775,-6.4380083,-1.388637
1587563203642,-2.147599,-5.0864816,-1.1228806
1587563203652,-2.4396915,-3.8642416,-1.3479356
1587563203665,-2.4528596,-2.9149406,-1.0402806
1587563203675,-1.6579847,-2.1440077,0.049081136
1587563203688,-1.6579847,-2.1440077,0.049081136
1587563203698,-1.0989386,-1.6723499,-0.075417355
1587563203708,-1.0139444,-1.2749124,-0.1604115
1587563203725,-1.3814543,-1.1971009,-0.25498247
1587563203732,-1.3814543,-1.1971009,-0.25498247
1587563203742,-1.4987702,-1.2090719,-0.48722005
1587563203751,-1.6316484,-1.0881647,-0.5722142
1587563203763,-1.7417817,-0.8295909,-0.50038815
1587563203776,-1.9141643,-0.40701428,0.16400282
1587563203786,-1.9141643,-0.40701428,0.16400282
1587563203797,-1.0654198,-1.6591818,2.6515784
1587563203811,-0.3890578,-2.6862943,5.2887917
1587563203821,0.35793316,-4.2580876,7.8206596
1587563203831,1.1611878,-6.5265937,11.812991
1587563203842,1.3491327,-11.678916,17.699137
1587563203853,3.1747115,-23.228544,22.497116
1587563203863,5.497087,-39.221813,16.604986
1587563203876,-2.5246856,-32.099064,13.39077
1587563203887,-2.5246856,-32.099064,13.39077
1587563203899,-1.6591818,-4.465186,6.597223
1587563203908,-0.90141696,2.420538,5.756858
1587563203919,-1.1911154,5.070919,3.8786068
1587563203931,-3.2022448,2.9903579,2.018312
1587563203941,-5.3259015,-1.4401124,5.1642933
1587563203952,-8.0684595,-15.950171,2.1871033
1587563203964,-6.3889275,-26.889278,-5.765238
1587563203973,-0.1388637,-31.312567,-14.138958
1587563203984,4.522647,-23.734919,-8.588001
1587563203995,1.3431472,-4.1635165,-3.0442274
1587563204006,-2.384625,-2.1655555,-0.4225766
1587563204016,-4.1036615,-2.6001031,-1.3862427
1587563204028,-4.289212,-4.283227,-6.3566055
1587563204038,-4.289212,-4.283227,-6.3566055
1587563204050,-3.5410242,-7.2723875,-5.9998693
1587563204060,-4.1958385,-9.43914,-1.4532804
1587563204072,-4.9284644,-12.155362,2.7700913
1587563204082,-4.51307,-14.016854,1.3850456
1587563204095,-0.39145198,-13.9917145,-2.1739352
1587563204105,-0.39145198,-13.9917145,-2.1739352
1587563204115,2.7102363,-14.012066,-2.2493525
1587563204127,4.2580876,-13.310564,-1.7489643
1587563204137,4.2580876,-13.310564,-1.7489643
1587563204149,5.6527104,-10.188525,-0.46208093
1587563204159,4.8386817,-8.283937,-0.5315128
1587563204171,4.8386817,-8.283937,-0.5315128
1587563204181,1.4820108,-6.423643,-1.508347
1587563204193,0.6703765,-5.8813562,-2.7222073
1587563204203,0.15442601,-6.1447186,-2.5390508
1587563204215,-0.32800564,-7.1873937,-1.3862427
1587563204225,-1.9033904,-8.972271,0.2777274
1587563204237,-1.9033904,-8.972271,0.2777274
1587563204249,-2.6001031,-8.702923,1.9967642
1587563204258,-2.315193,-8.74123,2.6850972
1587563204269,-2.315193,-8.74123,2.6850972
1587563204281,-0.24779987,-9.029732,1.3718776
1587563204291,1.7010803,-9.3182335,-0.48961425
1587563204302,3.539827,-9.816227,-1.4449008
1587563204314,4.6004586,-10.418368,-1.5885528
1587563204324,4.2221746,-10.702082,-0.78649527
1587563204335,2.6779146,-11.046846,1.2473791
1587563204346,0.8619126,-11.348516,4.0186677
1587563204356,1.1204864,-11.376049,3.867833
1587563204368,1.1204864,-11.376049,3.867833
1587563204378,1.8626889,-12.151771,1.411382
1587563204390,1.9812019,-12.360066,0.7445967
1587563204401,2.3104045,-12.026075,0.7110779
1587563204411,3.9552212,-10.879252,0.61052144
1587563204425,4.9164934,-11.416751,1.5442601
1587563204435,4.9164934,-11.416751,1.5442601
1587563204445,4.6160207,-12.263102,1.7525556
1587563204458,4.187459,-12.0967045,1.7393875
1587563204468,4.187459,-12.0967045,1.7393875
1587563204478,3.074155,-13.344083,-0.15562311
1587563204491,2.243367,-14.263456,0.59136784
1587563204501,1.8195933,-14.463372,0.9768343
1587563204511,1.5275006,-14.839262,-0.053869538
1587563204523,1.2880806,-15.914259,-1.033098
1587563204534,-0.075417355,-16.06629,-0.40701428
1587563204544,-3.0969,-14.534001,0.15203181
1587563204556,-7.079654,-12.302606,-1.5801731
1587563204564,-7.079654,-12.302606,-1.5801731
1587563204576,-8.8645315,-14.797363,-4.0533834
1587563204588,-9.454702,-16.565481,-1.8375498
1587563204598,-9.097966,-16.639702,0.16280572
1587563204610,-7.7943234,-15.245079,1.2916719
1587563204620,-7.7943234,-15.245079,1.2916719
1587563204632,-4.286818,-14.184448,2.1523874
1587563204642,-0.5722142,-14.1664915,5.8502316
1587563204653,1.6879122,-13.782222,3.1890767
1587563204665,2.9855695,-14.185645,-1.5598224
1587563204672,3.788824,-14.727932,-2.2122424
1587563204683,4.1695023,-14.20001,-0.15682021
1587563204695,2.0925324,-12.065579,-2.0398598
1587563204706,0.6572084,-10.0748005,-2.3355439
1587563204718,0.6572084,-10.0748005,-2.3355439
1587563204730,-1.9273324,-6.2823853,-1.7992426
1587563204740,-2.3092074,-5.005079,-0.6596026
1587563204751,-2.517503,-4.086902,-0.6703765
1587563204763,-2.598906,-3.1962593,-0.89902276
1587563204772,-2.5893292,-2.3247697,-0.32680854
1587563204786,-1.4065934,-1.5215151,0.23822308
1587563204794,-0.8726865,-1.1540052,-0.15801731
1587563204805,-0.5758055,-0.7589619,-0.22026655
1587563204816,-0.5758055,-0.7589619,-0.22026655
1587563204827,-0.93014735,-0.5781997,-0.6847417
1587563204838,-1.4437037,-0.4189853,-1.0175357
1587563204849,-1.8028339,-0.4225766,-1.1228806
1587563204860,-2.0087352,-0.39384618,-1.1360487
1587563204870,-2.268506,-0.18674773,-0.59136784
1587563204881,-2.1930888,-0.39384618,0.23582886
1587563204890,-1.887828,-0.9840169,1.2294226
1587563204901,-1.2162545,-1.7058687,3.2261868
1587563204912,-0.49320555,-2.9005754,6.027403
1587563204923,0.15682021,-4.578911,8.805874
1587563204934,0.4309563,-7.1646485,13.516466
1587563204945,3.1196449,-25.777172,21.45923
1587563204956,5.378574,-39.221813,12.905944
1587563204967,5.378574,-39.221813,12.905944
1587563204978,-1.8770541,-30.755915,13.482946
1587563204989,-2.1308396,-15.737088,9.36492
1587563204998,-1.2773066,-5.542577,6.7504516
1587563205008,-0.6332663,-0.074220255,5.755661
1587563205019,-1.1623849,3.277662,3.1064768
1587563205030,-2.6539726,3.5230677,2.055422
1587563205041,-4.757279,1.5155296,3.2022448
1587563205052,-6.269217,-2.4037786,6.2763996
1587563205063,-6.9958572,-8.459911,6.8318543
1587563205074,-4.8781857,-26.441563,-7.819463
1587563205085,1.174356,-34.861973,-7.835025
1587563205096,4.663905,-28.780699,-2.0207062
1587563205104,-0.2741361,-2.4899697,-6.2728086
1587563205115,-0.2741361,-2.4899697,-6.2728086
1587563205126,-11.099519,4.355053,9.015367
1587563205137,-10.9343195,7.1610575,2.64679
1587563205148,-7.371747,4.8494554,-4.5382094
1587563205158,-3.7852328,-1.0319009,-6.882133
1587563205169,-2.2732944,-6.465542,-5.183447
1587563205180,-1.328782,-11.536461,-2.598906
1587563205191,-1.0474633,-16.455349,-0.7745243
1587563205202,0.93732995,-17.946936,-1.7381904
1587563205211,3.6499605,-17.808073,-3.8163576
1587563205221,6.042965,-18.206707,-4.2293572
1587563205232,8.061277,-18.000805,-3.5781345
1587563205243,9.101558,-15.999253,-0.4225766
1587563205254,5.5282116,-9.31943,2.669535
1587563205265,5.5282116,-9.31943,2.669535
1587563205276,2.0386627,-8.403648,2.5725696
1587563205287,0.9959879,-7.7799582,0.25737667
1587563205298,0.9959879,-7.7799582,0.25737667
1587563205309,-0.2741361,-6.9024835,-2.4588451
1587563205320,-0.521936,-6.851008,-2.3918076
1587563205338,-2.56419,-7.9954367,-0.82001406
1587563205352,-2.9496565,-8.628703,1.4903905
1587563205357,-3.2836475,-9.033323,2.669535
1587563205367,-3.6152446,-9.358934,2.3295584
1587563205376,-3.5972881,-9.36492,0.46447513
1587563205387,-2.8215668,-8.836999,0.05626374
1587563205396,-2.8215668,-8.836999,0.05626374
1587563205407,1.4891934,-8.258799,0.45968673
1587563205418,1.4891934,-8.258799,0.45968673
1587563205427,4.957195,-9.271546,-1.8710686
1587563205438,5.589264,-10.474632,-1.6460136
1587563205449,5.589264,-10.474632,-1.6460136
1587563205460,3.4823663,-11.009736,0.9696517
1587563205471,2.6743233,-10.971429,3.691859
1587563205482,2.3810337,-10.990582,5.439626
1587563205493,2.2816741,-11.304223,5.366603
1587563205503,2.4744074,-11.546038,3.4512417
1587563205514,2.9735985,-11.543644,1.4413095
1587563205525,2.6192567,-11.402386,-0.4177882
1587563205534,2.3702598,-11.178528,0.24301147
1587563205545,2.3702598,-11.178528,0.24301147
1587563205556,2.4073699,-10.91756,1.7082629
1587563205592,1.6579847,-12.972981,0.6943185
1587563205604,1.1109096,-13.930662,-0.029927522
1587563205616,0.8678981,-15.053543,0.427365
1587563205621,1.0941502,-15.613787,0.031124622
1587563205627,1.4089876,-16.130934,-0.7457938
1587563205636,1.3323733,-16.798916,-1.174356
1587563205644,1.3323733,-16.798916,-1.174356
1587563205660,-0.439336,-15.377957,-0.4309563
1587563205669,-1.8567034,-13.961787,-0.58777654
1587563205679,-3.430891,-13.113043,-1.9991584
1587563205691,-5.3438582,-13.435062,-2.597709
