@ HyperIMU -ianovir - 2018
@ Date:Wed Apr 15 15:04:21 GMT+02:00 2020, Sampling Rate:50ms

timestamp,K6DS3TR_Accelerometer.x,K6DS3TR_Accelerometer.y,K6DS3TR_Accelerometer.z
1586955861059,-1.5023615,1.7262194,9.664195
1586955861109,-1.3479356,1.7429788,9.609129
1586955861161,-1.1420342,1.769315,9.269152
1586955861211,-0.9576807,1.5466543,9.792285
1586955861262,-1.1432313,1.9835961,9.55047
1586955861314,-1.0127473,1.8195933,9.605537
1586955861364,-0.9588778,1.8782512,9.507375
1586955861415,-1.0893618,1.8219875,9.443929
1586955861466,-1.0390835,1.899799,9.417592
1586955861518,-1.009156,1.8148049,9.65821
1586955861570,-0.8391677,2.0458453,9.090784
1586955861617,-0.9552865,1.7405846,9.592369
1586955861668,-0.89902276,1.827973,9.460688
1586955861719,-1.0163386,1.804031,9.41879
1586955861771,-1.127669,1.7082629,9.16261
1586955861822,-0.61770403,1.7082629,9.685743
1586955861874,-0.2621651,1.5490485,9.39365
1586955861925,-0.830788,1.62686,9.757569
1586955861978,-0.81283146,1.7848774,9.872491
1586955862026,-0.8702923,1.5035586,9.43076
1586955862077,-1.0486604,1.6579847,9.818622
1586955862126,-0.5386954,1.3515269,9.595961
1586955862177,-0.6775591,1.6053122,9.419987
1586955862228,-1.1085154,1.8363527,10.156203
1586955862280,-0.3184288,1.316811,9.460688
1586955862332,-0.7781156,0.9995792,9.861717
1586955862381,-0.9983821,1.3120226,9.458294
1586955862432,-1.1575965,1.2892777,9.467871
1586955862483,-0.91099375,1.1492168,9.514558
1586955862535,-1.1168951,1.1180922,9.625888
1586955862587,-1.1025299,1.2677298,9.527725
1586955862636,-1.151611,1.365892,9.835381
1586955862688,-0.88944596,1.3814543,9.563639
1586955862739,-1.1719618,1.2605472,9.667787
1586955862789,-1.1073183,1.4879963,9.660604
1586955862841,-1.3479356,1.5705963,9.609129
1586955862891,-1.2018893,1.5095441,9.441534
1586955862943,-1.2078748,1.5454572,9.522937
1586955862993,-1.1324574,1.5969325,9.3661175
1586955863045,-1.4975731,1.6328455,9.396045
1586955863097,-1.13964,1.7322049,9.757569
1586955863145,-1.1563994,1.6136919,9.27394
1586955863198,-0.94331545,1.5897499,9.406818
1586955863248,-0.9923966,1.5861586,9.586384
1586955863301,-0.79607207,1.2916719,9.661801
1586955863351,-0.4417302,1.1971009,9.932345
1586955863401,-0.5327099,1.7549498,9.919178
1586955863453,-0.4345476,1.3515269,9.654618
1586955863503,-0.49559975,1.2042835,9.718064
1586955863554,-0.23702596,1.1959038,9.514558
1586955863606,-0.61291564,1.459266,9.288305
1586955863653,-0.45370123,1.3275849,9.654618
1586955863705,-0.4213795,1.4317327,9.457097
1586955863758,-0.7062895,1.4149733,9.647436
1586955863808,-0.82360536,1.4748282,9.551667
1586955863859,-1.2545617,0.8631097,10.437522
1586955863911,-0.8367735,1.292869,9.941922
1586955863961,-1.2318168,1.553837,9.324219
1586955864012,-1.2473791,0.5530606,9.325416
1586955864064,-1.5047557,0.60693014,9.841366
1586955864114,-0.82121116,0.5662287,10.08318
1586955864166,-0.4249708,0.48243165,9.561244
1586955864215,-0.8559271,0.35553896,9.616311
1586955864267,-0.061052144,0.51595044,9.849746
1586955864318,-0.91338795,1.0690111,9.374496
1586955864369,0.2645593,0.9552865,10.451887
1586955864421,-1.6124948,1.8974048,9.030929
1586955864470,-3.2357635,3.8019924,8.865729
1586955864521,-1.4161704,1.3383588,9.8437605
1586955864572,-2.9771898,1.4317327,8.929175
1586955864624,-3.0298622,2.6803088,9.442732
1586955864671,-3.0705638,1.1935096,8.8884735
1586955864722,-3.406949,2.1823149,9.338584
1586955864772,-3.5853171,2.6120741,7.8493905
1586955864837,-4.080917,1.3814543,6.9527617
1586955864883,-2.695871,-0.38067806,9.634268
1586955864933,-1.7274165,-0.47405192,9.563639
1586955864982,-0.10175357,0.17597382,10.305841
1586955865032,-3.6092591,3.8307228,8.669404
1586955865081,-2.634819,1.0139444,9.31105
1586955865133,-4.4675803,0.1364695,5.3402667
1586955865180,-3.6942532,1.3575124,7.953538
1586955865232,-2.7126305,0.58657944,12.032061
1586955865283,-2.4229321,2.505532,8.596381
1586955865334,-2.2900538,3.2728736,8.050503
1586955865385,-1.4437037,-0.077811554,11.383232
1586955865435,-2.043451,1.7202339,8.541314
1586955865487,-1.5885528,1.3275849,8.980651
1586955865539,-1.0582372,1.6711528,10.350134
1586955865591,-0.45609543,2.1787236,9.581595
1586955865641,-0.62728083,1.3862427,9.323022
1586955865693,-1.021127,0.9959879,9.96347
1586955865742,-0.9911995,0.6799533,10.3932295
1586955865793,-0.712275,0.40222588,9.3733
1586955865845,-1.0785879,0.40222588,8.870518
1586955865896,-0.8355764,0.25258827,8.7771435
1586955865947,3.074155,3.0430303,10.261548
1586955865998,-1.4077905,-2.6276364,8.094796
1586955866049,2.7377696,-0.24301147,7.964312
1586955866111,0.7733272,-2.552219,9.436746
1586955866159,3.086126,-1.1240777,8.7053175
1586955866214,2.5677812,-8.289924,4.19105
1586955866263,5.221754,-6.2249246,4.4819455
1586955866314,9.022549,-7.3466077,4.924873
1586955866364,11.10311,-8.65025,1.1324574
1586955866415,8.851364,-9.069236,2.0231004
1586955866466,11.73518,-9.552865,-6.385336
1586955866517,7.338228,-10.376471,-3.5446155
1586955866568,7.8146744,-9.655815,-4.951209
1586955866619,8.421604,-9.19972,0.5506664
1586955866669,3.867833,-11.298238,-3.1663318
1586955866720,3.8486793,-9.841366,-2.328361
1586955866772,2.0159178,-9.156625,-2.5941176
1586955866821,2.0853498,-8.325836,-4.068946
1586955866873,1.2090719,-5.197812,0.075417355
1586955866925,0.7721301,-7.1227503,-1.1851299
1586955866975,0.60573304,-5.9878983,-1.1779473
1586955867026,-0.6380547,-12.215217,-2.420538
1586955867077,1.2988545,-7.0593038,-0.022744916
1586955867128,2.9640217,-3.7912183,-3.4009635
1586955867179,1.3826514,-17.3424,-3.2106245
1586955867245,-0.0047884034,-10.739192,-0.044292733
1586955867287,1.5622166,-9.045294,-1.9716251
1586955867333,2.2337902,-9.202114,-4.402937
1586955867383,1.1575965,-12.956223,-2.054225
1586955867432,0.92535895,-10.921151,0.45489833
1586955867484,0.11971009,-9.873688,1.0785879
1586955867536,0.58538234,-8.497022,0.18914193
1586955867586,1.0079589,-9.059659,-0.047884032
1586955867639,1.6687586,-9.247604,1.13964
1586955867689,0.7206547,-9.812635,-0.82001406
1586955867741,-1.34195,-10.535685,-0.5758055
1586955867790,0.19393034,-7.441179,-0.09696517
1586955867842,0.12090719,-8.277952,-0.29568392
1586955867894,-0.51475334,-10.344149,-0.688333
1586955867944,-1.6041151,-11.332953,-0.2825158
1586955867996,-0.11731588,-11.639412,-2.244564
1586955868047,-2.743755,-10.540473,-1.4065934
1586955868097,-1.0283096,-11.366472,-0.82001406
1586955868148,-1.4496891,-7.053318,-0.34237084
1586955868200,-1.721431,-9.740809,-2.0147207
1586955868248,-1.0785879,-10.250774,-0.8655039
1586955868300,-1.2294226,-9.652225,-1.3024458
1586955868352,-0.91937345,-8.425196,-1.3970166
1586955868402,-1.4796166,-8.905233,-2.4468741
1586955868454,-0.8523358,-9.024943,-1.6017209
1586955868504,0.08619126,-7.431602,-2.1823149
1586955868555,0.24660277,-7.4375877,-2.7605145
1586955868608,2.0829554,-9.491813,-2.2840683
1586955868657,1.9021933,-11.371261,-1.8136078
1586955868708,0.41060558,-11.565191,-3.369839
1586955868757,0.35553896,-11.836933,-1.6136919
1586955868808,-0.39624038,-11.269507,-2.5031378
1586955868881,-1.2605472,-4.7201686,-2.4468741
1586955868921,-2.3822308,-7.7105265,-1.8064252
1586955868969,-0.46567222,-9.672575,-2.1416135
1586955869017,0.36511576,-10.437522,-1.376666
1586955869067,-0.9768343,-9.722853,-1.7537527
1586955869117,-1.0582372,-9.671378,-2.4181437
1586955869166,-0.8643068,-9.94312,-2.1894975
1586955869218,-0.90859956,-9.621099,-2.030283
1586955869266,-0.9959879,-9.629479,-2.1152773
1586955869318,-1.0582372,-9.7084875,-1.9752164
1586955869370,-1.4640543,-9.580399,-1.8243817
1586955869420,-1.2114661,-9.631873,-1.8590976
1586955869472,-1.1025299,-9.527725,-1.8914193
1586955869522,-1.3682863,-10.047267,-2.1320367
1586955869573,-1.0546459,-9.414001,-2.0159178
1586955869625,-0.8631097,-9.61272,-2.0482395
1586955869675,-1.0019734,-9.753978,-1.9189527
1586955869726,-1.3204023,-9.610326,-1.9297266
1586955869776,-1.3958195,-9.607931,-1.9213469
1586955869828,-1.2737153,-9.67856,-1.8387469
1586955869878,-1.3754689,-9.654618,-1.9548657
1586955869930,-1.401805,-9.557653,-2.0446482
1586955869980,-1.365892,-9.704897,-2.0470424
1586955870032,-1.2797008,-9.595961,-2.1547816
1586955870081,-1.1192893,-9.598354,-2.1416135
1586955870132,-1.1336545,-9.606734,-2.134431
1586955870184,-1.1432313,-9.691729,-2.1140802
1586955870236,-1.1623849,-9.604341,-2.1811178
1586955870283,-1.246182,-9.599552,-2.160767
1586955870334,-1.2473791,-9.623494,-2.1416135
1586955870386,-1.2330139,-9.5971575,-2.1775265
1586955870437,-1.2066777,-9.598354,-2.1380222
1586955870488,-1.3180081,-9.630676,-2.1080947
1586955870539,-1.2545617,-9.628283,-2.1811178
1586955870591,-1.246182,-9.583989,-2.1152773
1586955870642,-1.2737153,-9.631873,-2.1416135
1586955870694,-1.2605472,-9.600749,-2.1272483
1586955870744,-1.1875241,-9.634268,-2.1057005
1586955870796,-1.2162545,-9.634268,-2.1080947
1586955870846,-1.2892777,-9.627085,-2.1260512
1586955871015,-1.2665327,-9.622296,-2.1068976
1586955871067,-1.2330139,-9.606734,-2.1667526
1586955871118,-1.1791444,-9.613917,-2.135628
1586955871169,-1.0785879,-9.617508,-2.1021092
1586955871221,-0.9804256,-9.659407,-2.1667526
1586955871270,-1.091756,-9.697714,-2.1703439
1586955871321,-1.3347675,-9.657013,-2.2218192
1586955871372,-1.1647792,-9.455899,-2.3523033
1586955871421,-1.1336545,-9.727641,-2.2254105
1586955871472,-1.127669,-9.610326,-2.2505496
1586955871523,-0.94451255,-9.662998,-2.1799207
1586955871575,-0.92296475,-9.627085,-2.3295584
1586955871627,-1.0857705,-9.636662,-2.2864625
1586955871677,-1.1444284,-9.579201,-2.3187842
1586955871730,-1.2916719,-9.543288,-2.2876596
1586955871779,-1.3227965,-9.469068,-2.3199813
1586955871831,-1.6005238,-9.451111,-2.1583729
1586955871881,-1.5239093,-9.205706,-2.597709
1586955871933,-1.3467385,-9.2907,-2.4588451
1586955871983,-0.961272,-9.740809,-2.4265234
1586955872035,-0.7218518,-9.928755,-2.9939492
1586955872085,-2.3139958,-9.94312,-3.5805287
1586955872136,-3.0693667,-8.367735,-3.4225113
1586955872188,-1.9907787,-9.118318,-3.3758245
1586955872239,-0.7194576,-9.314642,-3.4320881
1586955872321,-1.4341269,-9.040505,-2.790442
1586955872364,-1.70946,-9.264363,-2.9831753
1586955872410,-1.816002,-9.044097,-2.6898856
1586955872470,-2.0518308,-8.640674,-3.0226796
1586955872516,-2.3906105,-8.962694,-2.8682537
1586955872568,-2.517503,-9.056067,-2.9101522
1586955872618,-3.5972881,-10.163386,-3.4823663
1586955872669,-2.360683,-9.621099,-4.396951
1586955872720,0.736217,-8.670602,-1.210269
1586955872772,1.7753005,-12.151771,-1.8459295
1586955872822,-2.2122424,-7.073669,-1.9093759
1586955872873,-2.5713725,-6.671443,2.2254105
1586955872925,0.31603462,-23.580492,-7.6829934
1586955872973,4.607641,-7.9236107,0.022744916
1586955873025,0.4285621,-7.0461354,0.60094464
1586955873094,-1.7118542,-8.295909,-3.681085
1586955873136,-0.8439561,-8.158242,-2.4265234
1586955873184,1.3862427,-7.171831,-3.8977604
1586955873234,2.4133554,-6.0860605,-4.6579194
1586955873284,5.5701103,-6.5230026,-6.2584434
1586955873334,8.437167,-10.371682,-4.531027
1586955873384,4.7201686,-10.079589,-6.8689647
1586955873433,-0.58298814,-20.936096,-7.32506
1586955873487,-4.5657425,-8.26239,-3.513491
1586955873537,0.48482585,-15.065515,-3.8893807
1586955874011,0.29807812,-7.5884223,-3.8486793
1586955874063,-4.027047,-13.189657,2.3594859
1586955874112,4.5860934,-13.885173,-5.3007627
1586955874163,-1.353921,-6.2524576,-2.2110453
1586955874215,0.4225766,-6.5122285,-3.930082
1586955874267,-1.0785879,-6.7348895,-3.4560301
1586955874316,0.1340753,-7.577648,-2.8778305
1586955874367,0.6871359,-9.90601,-2.2840683
1586955874418,0.62488663,-11.420342,-3.9097314
1586955874467,-0.15203181,-6.757634,-4.9763484
1586955874519,-0.48362875,-7.4483614,-4.3287168
1586955874571,0.22744916,-7.2783732,-0.49919105
1586955874621,2.896984,-7.369353,2.0769699
1586955874673,-5.542577,-18.4988,-5.4563856
1586955874723,4.497508,-16.504429,-2.5306711
1586955874775,5.4432178,-6.669049,3.4524388
1586955874825,2.1320367,-6.5960255,-2.7234044
1586955874876,-0.01436521,-7.374141,-3.764882
1586955874926,-0.3866636,-6.3362546,-2.098518
1586955874978,1.5813702,-7.0126166,-2.9771898
1586955875028,5.9244523,-8.149862,-5.140351
1586955877016,-0.80804306,-12.245145,-2.7832594
1586955877068,8.139089,-17.636887,-1.5861586
1586955877119,3.9480386,-6.5936313,-0.60333884
1586955877170,1.6639702,-7.1969705,-2.815581
1586955877222,0.005985504,-8.597578,-3.1507695
1586955877272,1.3120226,-6.7959414,-2.2266076
1586955877343,5.5868697,-5.589264,-4.295198
1586955877353,6.8462195,-5.4384294,-5.0637364
1586955877423,8.507795,-9.904813,-4.5022964
1586955877474,5.8837504,-6.3745623,-4.948815
1586955877525,2.789245,-23.390154,-1.5682021
1586955877577,-4.796783,-8.917204,-7.406463
1586955877629,1.0642227,-17.855957,-2.1499932
1586955877679,5.153519,-8.774749,-6.4667387
1586955877731,0.9923966,-6.6067996,-3.2812533
1586955877780,-0.1592144,-7.517793,-2.670732
1586955880010,-1.0726024,-7.141904,-3.288436
1586955880063,1.067814,-7.513005,-1.8674773
1586955880112,-0.45729253,-7.759608,-3.25372
1586955880163,-0.30406362,-7.0545154,-2.882619
1586955880215,2.3798366,-8.286332,-2.8898015
1586955880265,3.3842041,-9.609129,-2.0829554
1586955880316,2.3953989,-8.792706,-4.9440265
1586955880367,0.8798691,-6.1040173,-4.056975
1586955880419,1.1827357,-11.060015,-4.5537715
1586955880469,5.067328,-6.622362,1.4077905
1586955880521,-0.044292733,-9.509769,0.3196259
1586955880568,-2.0721815,-15.574282,-3.4440591
1586955880620,11.5616,-17.159243,-1.5454572
1586955880672,5.755661,-5.7400985,4.2521024
1586955880724,2.633622,-8.240842,-4.4113164
1586955880774,0.4417302,-7.049727,-2.4061728
1586955883009,0.9935937,-6.1123967,-2.135628
1586955883061,1.7046716,-7.860164,-4.933253
1586955883112,2.0111294,-5.840655,-2.5893292
1586955883163,5.023035,-6.041768,-2.0350714
1586955883215,6.233304,-5.3223104,-3.0621839
1586955883262,9.075222,-4.817134,-7.4208283
1586955883314,7.9511437,-6.9024835,-5.1559134
1586955883365,8.6299,-6.5816603,-5.019444
1586955883416,8.334216,-19.317616,-0.36631286
1586955883468,-2.790442,-10.269928,-5.5605335
1586955883520,8.39048,-18.971655,1.4676456
1586955883570,5.2852,-6.029797,-6.1890116
1586955883622,2.7581203,-5.837064,-2.0362685
1586955883671,1.7956513,-8.374918,-3.7469256
1586955883723,2.834735,-7.93199,-2.9101522
1586955883771,3.6511576,-7.86615,-1.8890251
1586955887010,3.4237084,-9.752781,-2.540248
1586955887062,2.456451,-6.907272,-2.7820623
1586955887112,4.4113164,-8.811859,-2.4241292
1586955887163,3.2106245,-8.74961,-4.098873
1586955887215,2.2457612,-7.1873937,-4.9404354
1586955887267,1.1899183,-9.497798,-4.6938324
1586955887319,2.4169466,-5.861006,-3.66672
1586955887368,4.220978,-4.2880154,1.1887212
1586955887420,0.4141969,-16.315287,-0.7673417
1586955887468,7.301118,-16.346413,-3.6248214
1586955887520,9.625888,-7.991845,3.8510735
1586955887571,4.2425256,-4.9703627,-4.8973393
1586955887622,1.2150574,-7.2544312,-4.3287168
1586955887674,1.1408371,-6.609194,-2.5330653
1586955887724,3.8774097,-6.3925185,-2.6659436
1586955887776,10.965444,-1.4305356,-7.1754227
1586955887825,9.289502,-7.789535,-5.7029886
1586955887877,7.339425,-5.6539073,-7.4471645
1586955887929,6.6534867,-14.597447,-1.8854338
1586955887977,-4.382586,-11.810597,-2.858677
1586955890011,-1.4257472,-10.2735195,-2.0590134
1586955890062,-0.4441244,-6.7708025,-3.8786068
1586955890113,1.2689269,-6.290765,-2.2062569
1586955890164,6.8761473,-4.367024,-4.642357
1586955890216,15.415068,-5.106832,-6.223727
1586955890268,13.339294,-6.956353,-8.147469
1586955890320,7.4806833,-3.5745432,-5.5270147
1586955890370,6.2225304,-6.2740054,-10.606314
1586955890422,-1.3455414,-9.415198,-8.554482
1586955890470,10.150218,-15.874754,-4.8374844
1586955890522,5.6527104,-8.186973,-5.997475
1586955890573,5.8562174,-6.707356,-4.9021277
1586955890625,5.571307,-6.3362546,-3.4392707
1586955890675,2.6491842,-5.0613422,-2.542642
1586955890727,1.5095441,-6.602011,-2.8862102
1586955890777,2.4145525,-7.2939353,-2.9831753
1586955893008,2.136825,-7.8446016,-3.6966474
1586955893059,3.6894648,-6.6666546,-1.7753005
1586955893110,4.332308,-7.7488337,-1.6136919
1586955893159,4.3861775,-8.761581,-5.4911017
1586955893211,2.3870192,-8.098388,-3.2022448
1586955893262,3.9552212,-10.348937,-4.2437224
1586955893314,4.414908,-6.716933,0.93493575
1586955893364,4.4220905,-6.752846,-0.8738836
1586955893416,0.5805939,-16.571466,-5.590461
1586955893466,3.204639,-9.630676,-4.6339774
1586955893517,9.144653,-11.058818,2.1200657
1586955893569,4.1742907,-5.898116,-0.85473
1586955893620,3.915717,-7.714118,-5.767632
1586955893670,3.05141,-6.71813,-2.146402
1586955893722,2.598906,-6.6044054,-1.1815386
1586955893772,5.0745106,-4.489128,-3.7481227
1586955896009,9.281123,-4.0497923,-8.074445
1586955896061,2.4349031,-5.7903767,-2.4384944
1586955896112,1.6184803,-7.7129207,-4.9320555
1586955896163,3.0621839,-7.074866,-1.8902222
1586955896215,4.1742907,-5.841852,-2.7976246
1586955896264,6.5146227,-3.4404678,-5.1906295
1586955896315,11.415554,-5.828684,-6.2991447
1586955896365,8.210915,-7.5920134,-4.332308
1586955896416,8.748413,-5.651513,-6.655881
1586955896468,2.5127146,-14.074315,-3.2836475
1586955896519,-3.277662,-9.625888,-4.9907136
1586955896568,9.485827,-17.753006,-6.9288197
1586955896620,4.7046065,-5.279215,-3.9013517
1586955896671,2.457648,-3.7612908,-3.2345665
1586955896723,2.2361844,-8.160637,-3.7924154
1586955896772,2.755726,-4.617218,-2.779668
1586955897012,6.331466,-7.349002,2.1499932
1586955897063,1.376666,-9.520543,-0.38067806
1586955897114,0.8595184,-13.461399,-2.885013
1586955897165,9.941922,-15.121778,-5.058948
1586955897216,5.0266266,-4.509479,1.6364368
1586955897267,3.7062242,-6.64391,-4.128801
1586955897319,1.7250223,-7.7823524,-3.7337575
1586955897368,2.0506337,-5.0481744,-1.9572599
1586955897421,5.3139305,-4.0581717,-4.128801
1586955897470,10.573992,-0.4177882,-5.947197
1586955897521,8.734048,-9.459491,-8.051701
1586955897570,10.340557,-11.659762,-3.5972881
1586955897621,2.4971523,-7.180211,-0.59376204
1586955897671,-2.9628246,-10.680533,-4.6112323
1586955897722,11.471817,-15.73589,-1.6172832
1586955897773,3.5577838,-5.8442464,-4.0342298
1586955897825,2.7281928,-5.6084175,-2.3475149
1586955897877,1.4377182,-6.9826894,-3.1376014
1586955897929,0.91458505,-5.4444146,-3.8247373
1586955897999,5.0781016,-9.48463,-2.871845
1586955898047,5.163096,-11.318588,-3.0825348
1586955898102,0.58657944,-4.4424415,-4.4184995
1586955898152,-0.29209262,-10.222044,-6.685808
1586955898201,3.5685577,-5.368997,-2.5570073
1586955898253,5.8717794,-6.5589156,1.9369092
1586955898305,1.6759412,-16.117765,-1.6244658
1586955898354,5.294777,-13.51886,-4.0043025
1586955898406,7.9631147,-8.526949,2.7605145
1586955898458,4.7644615,-7.133524,-1.2844892
1586955899010,4.158728,-7.5082164,-2.4408886
1586955899062,0.40222588,-7.6865845,-4.3358994
1586955899109,1.4520833,-7.117962,-3.654749
1586955899159,3.6391866,-6.3422403,-4.1276035
1586955899211,5.2421045,-8.991425,-2.6204538
1586955899263,4.1862617,-8.034941,-4.144363
1586955899314,0.4261679,-7.192182,-3.5697548
1586955899366,1.7381904,-8.034941,-4.1335893
1586955899418,5.4168816,-6.793547,-0.39624038
1586955899468,0.427365,-15.245079,-1.3551182
1586955899519,3.9360676,-13.323732,-2.754529
1586955899571,9.932345,-8.23366,1.0953473
1586955899619,4.345476,-5.115212,3.3303347
1586955899671,2.4528596,-8.043321,-4.975151
1586955899723,1.5406688,-6.7600284,-2.0254946
1586955899773,3.7002387,-6.256049,-2.0015526
1586955899824,7.338228,-4.2341456,-5.1666875
1586955899875,14.223952,-6.1183825,-10.102334
1586955899927,8.143877,-5.1942205,-8.732851
1586955899977,9.864111,-19.58457,-2.6839
1586955900029,-2.516306,-10.451887,-2.8455088
1586955900079,0.94930094,-15.510836,-1.6819267
1586955900131,6.0597243,-7.66384,-5.9878983
1586955900180,2.1045034,-6.2524576,-3.2573113
1586955902010,2.4109612,-7.597999,-4.1359835
1586955902062,2.4241292,-8.707711,-4.631583
1586955902113,2.8263552,-7.004237,-1.5945383
1586955902164,4.5154643,-6.908469,-2.7281928
1586955902215,7.8050976,-3.870227,-4.4520183
1586955902267,11.300632,-5.2480903,-3.9372647
1586955902318,8.2037325,-6.363788,-6.133945
1586955902370,10.727221,-21.944056,-4.787206
1586955902418,1.5394717,-8.3629465,-0.7158663
1586955902470,-0.30047232,-12.615048,-0.055066638
1586955902522,7.169437,-8.237251,-5.985504
1586955902572,2.292448,-6.5122285,-2.2613235
1586955902624,2.517503,-6.4164605,-3.1280246
1586955902674,1.2174516,-6.9360023,-3.7349546
1586955902725,3.0095115,-7.6602483,-2.8921957
1586955902777,4.19105,-9.131485,-3.1316159
1586955902827,4.132392,-8.50181,-3.4117374
1586955905017,2.31639,-6.021417,-3.2082303
1586955905068,2.0362685,-5.895722,-3.679888
1586955905119,4.4639893,-8.84059,-2.825158
1586955905170,4.173094,-8.865729,-3.2704794
1586955905222,1.2761095,-7.6494746,-3.8654387
1586955905272,-0.78769237,-6.697779,-3.775656
1586955905323,1.2904748,-10.94629,-5.7065797
1586955905375,4.7764325,-9.032125,-4.655525
1586955905425,4.677073,-6.603208,0.4249708
1586955905477,0.2777274,-10.500969,-0.866701
1586955905526,3.2225955,-13.113043,-3.5553896
1586955905581,13.056779,-12.712014,1.271321
1586955905628,5.5030727,-2.7042508,4.915296
1586955905681,2.8742392,-7.067683,-5.1918263
1586955905731,1.3156139,-7.8170686,-3.3506854
1586955905782,2.859874,-5.7748146,-2.7569232
1586955908010,6.68102,-4.938041,-3.3650506
1586955908062,4.519056,-4.4903255,-1.3204023
1586955908113,3.513491,-8.661025,-4.8255134
1586955908164,1.5346833,-7.313089,-2.2349873
1586955908216,3.5350387,-5.7616463,-2.7688942
1586955908263,5.756858,-4.793192,-3.4141316
1586955908315,9.315839,-3.5194764,-8.298303
1586955908367,9.234436,-4.119224,-2.7246015
1586955908418,7.3047094,-2.814384,-5.29358
1586955908470,8.021772,-27.746403,-9.423578
1586955908520,7.2352777,-17.307684,2.4181437
1586955908571,-2.0949266,-10.724827,-4.0665517
1586955908622,4.1575313,-12.619837,-7.4962454
1586955908673,3.2477345,-7.7344685,-1.1252748
1586955908724,4.8626237,-5.1223946,-4.88058
1586955908774,5.020641,-6.8222775,-2.554613
1586955908826,5.357026,-7.860164,-2.3511062
1586955908875,4.10845,-9.168595,-2.327164
1586955908927,2.954445,-8.590396,-2.4600422
1586955908979,3.5051112,-8.718486,-2.967613
1586955909029,2.1440077,-9.781511,-3.1244333
1586955911009,1.448492,-8.665813,-2.742558
1586955911061,3.0909145,-9.344569,-1.2509704
1586955911112,3.0765493,-9.411607,-1.3239936
1586955911163,3.0382419,-9.303867,-1.2378023
1586955911213,3.0346506,-9.415198,-1.2785037
1586955911265,3.098097,-9.404425,-1.3012487
1586955911314,3.1890767,-9.266758,-1.3096284
1586955911365,3.204639,-9.267955,-1.3108255
1586955911416,3.1364043,-9.323022,-1.3347675
1586955911467,3.1040826,-9.367314,-1.3587095
1586955911519,3.1890767,-9.296685,-1.3467385
1586955911571,3.2034419,-9.320627,-1.3862427
1586955911624,3.1890767,-9.320627,-1.364695
1586955911674,3.193865,-9.312247,-1.3503298
1586955911725,3.289633,-9.258378,-1.3347675
1586955911776,3.2908301,-9.255983,-1.3180081
1586955911827,3.2357635,-9.296685,-1.3682863
1586955912008,3.1962593,-9.289502,-1.3455414
1586955912059,3.301604,-9.244013,-1.3239936
1586955912110,3.301604,-9.313444,-1.389834
1586955912161,3.1148565,-9.269152,-1.2892777
1586955912213,3.039439,-9.360131,-1.3359646
1586955912265,3.107674,-9.43076,-1.3156139
1586955912314,3.1747115,-9.252393,-1.2425907
1586955912368,3.2261868,-9.382876,-1.2868834
1586955912417,-4.361038,-10.032902,-2.0518308
1586955912469,1.8686744,-9.372103,-1.5478514
1586955912519,2.445677,-9.7084875,-1.6017209
1586955912571,3.156755,-9.452309,-1.1216835
1586955912621,3.1244333,-8.860941,-1.1468226
1586955912673,3.2752678,-9.478644,-1.2401965
1586955912723,3.4272997,-9.372103,-1.4580688
1586955912775,3.2309752,-9.233239,-1.353921
1586955912825,2.8921957,-8.793902,-0.5279215
1586955912877,2.8874073,-9.252393,-1.4065934
1586955912926,3.2309752,-9.308656,-1.4341269
1586955912978,3.252523,-9.3182335,-1.3802572
1586955914009,3.3028011,-9.2787285,-1.4317327
1586955914063,3.0825348,-10.66976,-0.93732995
1586955914111,3.2082303,-10.559627,-1.1599907
1586955914162,3.1675289,-13.663709,0.91817635
1586955914213,4.8039656,-10.747571,-4.519056
1586955914265,2.1655555,-12.999318,-2.2625206
1586955914316,1.7657237,-10.680533,-1.7788919
1586955914365,1.9716251,-8.711303,-0.22026655
1586955914417,1.2557588,-9.623494,-0.62847793
1586955914469,2.078167,-7.0221934,-0.93373865
1586955914519,2.9891608,-6.007052,-2.5151088
1586955914572,3.7110126,-5.865794,-3.4871547
1586955914621,3.882198,-6.915652,-5.269638
1586955914673,4.677073,-8.334216,-4.607641
1586955914723,4.4280763,-10.2974615,-4.72376
1586955914775,4.501099,-10.617087,-3.7205894
1586955917010,4.417302,-10.58716,-2.2409728
1586955917062,5.6096144,2.9951463,7.2245035
1586955917111,4.951209,3.2321723,5.957971
1586955917162,5.0385976,1.8614918,8.37013
1586955917214,5.813122,3.1543608,7.4615297
1586955917265,6.0369797,3.6966474,6.8103065
1586955917317,5.8095303,2.6443958,6.803124
1586955917367,5.7496753,2.6635494,7.559692
1586955917419,5.2037973,2.1080947,8.152257
1586955917468,4.674679,2.0649989,9.583989
1586955917519,3.8379054,1.8770541,8.491036
1586955917568,4.0174704,1.4030021,10.681731
1586955917618,2.086547,2.1883004,8.429984
1586955917669,1.3862427,1.5334862,9.041702
1586955917720,1.4137762,0.6488287,10.316615
1586955917771,0.21667525,1.5825673,8.045714
1586955917822,0.4369418,0.82719666,9.757569
1586955917873,0.005985504,2.3953989,5.923255
1586955917924,0.8631097,1.1264719,9.659407
1586955917975,0.59855044,0.3854665,10.912771
1586955918026,-0.37110126,2.2122424,9.168595
1586955918075,0.45489833,1.2078748,10.807426
1586955918125,2.0709844,2.0410569,9.01417
1586955918176,0.22505496,0.089782566,6.59004
1586955918227,1.3263878,0.61770403,14.680048
1586955918278,-0.2873042,1.0666169,9.753978
1586955918329,-0.59256494,1.6256629,9.028535
1586955918380,-0.4297592,1.3455414,10.304645
1586955918430,0.48003745,0.23822308,9.297882
1586955918481,0.9864111,-0.39264908,10.164583
1586955918532,0.12330139,1.067814,9.291897
1586955918581,0.0023942017,1.3180081,9.338584
1586955918631,0.22505496,1.1552023,9.844957
1586955918682,0.2765303,1.2557588,9.293094
1586955918734,-0.41180268,1.4975731,9.270349
1586955918785,-0.31004912,1.5478514,9.522937
1586955918835,-0.676362,2.3295584,9.100361
1586955918886,-0.79726917,1.7286136,9.987412
1586955918937,-0.92775315,2.1320367,9.415198
1586955918988,-0.9540894,1.9919758,9.496601
1586955919049,-0.8846575,1.9405005,9.676167
1586955919092,-0.6619968,2.0578163,9.1350765
1586955919139,-1.0295067,2.0254946,9.384073
1586955919190,-1.0450691,2.1332338,9.524135
1586955919241,-0.78649527,2.303222,9.640253
1586955919292,-0.89902276,1.8303672,9.768343
1586955919343,-0.81043726,1.8914193,9.427169
1586955919393,-0.65242,1.839944,9.173384
1586955919444,-0.45729253,1.7884687,9.257181
1586955919496,-0.16160862,1.5753847,9.671378
1586955919549,-0.36631286,1.7226281,9.657013
1586955919595,-0.29448682,1.9524715,9.4774475
1586955919646,-0.31483752,2.0087352,9.582792
1586955919705,-0.23104046,1.7872716,9.736021
1586955919751,-0.3890578,2.0362685,9.516952
1586955919802,-0.4285621,2.0147207,9.48463
1586955919851,-0.37229836,1.970428,9.455899
1586955919902,-0.37229836,1.970428,9.455899
1586955919954,-0.37229836,1.970428,9.455899
1586955920010,-0.37229836,1.970428,9.455899
1586955920066,-0.37229836,1.970428,9.455899
1586955920105,-0.37229836,1.970428,9.455899
1586955920160,-0.37229836,1.970428,9.455899
1586955920211,-0.37229836,1.970428,9.455899
1586955920262,-0.37229836,1.970428,9.455899
1586955920313,-0.37229836,1.970428,9.455899
1586955920363,-0.37229836,1.970428,9.455899
1586955920414,-0.37229836,1.970428,9.455899
1586955920465,-0.37229836,1.970428,9.455899
1586955920516,-0.37229836,1.970428,9.455899
1586955920567,-0.37229836,1.970428,9.455899
1586955920616,-0.37229836,1.970428,9.455899
1586955920667,-0.37229836,1.970428,9.455899
1586955920718,-0.37229836,1.970428,9.455899
1586955920769,-0.37229836,1.970428,9.455899
1586955920820,-0.37229836,1.970428,9.455899
1586955920871,-0.37229836,1.970428,9.455899
1586955920921,-0.37229836,1.970428,9.455899
