@ HyperIMU -ianovir - 2018
@ Date:Wed Apr 15 15:00:16 GMT+02:00 2020, Sampling Rate:50ms

timestamp,K6DS3TR_Accelerometer.x,K6DS3TR_Accelerometer.y,K6DS3TR_Accelerometer.z
1586955616210,0.0,0.0,0.0
1586955616262,-2.0254946,1.3204023,9.546879
1586955616311,-2.0159178,1.3455414,9.400833
1586955616362,-1.9476831,1.079785,9.563639
1586955616413,-2.2218192,1.7034745,9.375694
1586955616464,-2.1308396,1.2940661,9.266758
1586955616515,-1.6843209,0.9911995,9.209297
1586955616566,-2.0231004,1.0845734,9.465476
1586955616617,-1.685518,1.3431472,9.896433
1586955616668,-2.3175871,1.2066777,8.957906
1586955616720,-2.421735,1.5191209,9.264363
1586955616768,-3.0909145,-0.50278234,7.97748
1586955616818,-1.9752164,0.78410107,9.742006
1586955616870,-2.1918917,0.9744401,9.598354
1586955616921,-2.3415294,1.3910311,9.727641
1586955616973,-1.9524715,0.985214,9.536105
1586955617025,-1.9835961,1.0905589,9.545682
1586955617081,-1.8339585,1.0941502,9.587581
1586955617132,-1.9812019,0.9792285,9.372103
1586955617182,-1.9740193,1.0498575,9.634268
1586955617232,-2.0578163,1.1456255,9.349358
1586955617284,-1.9835961,1.0295067,9.487024
1586955617334,-2.0458453,1.043872,9.363723
1586955617390,-1.8914193,1.0594343,9.455899
1586955617439,-1.8028339,1.0546459,9.487024
1586955617494,-1.733402,1.0354922,9.5492735
1586955617541,-1.79206,1.151611,9.372103
1586955617590,-1.460463,1.1875241,9.1255
1586955617640,-1.2473791,0.93134445,9.175778
1586955617692,-0.7589619,1.1013328,9.985018
1586955617743,-0.50757074,1.198298,10.020931
1586955617793,-0.48722005,1.1252748,9.489418
1586955617844,-0.7170634,1.1336545,9.762358
1586955617896,-0.7577648,1.1264719,9.76954
1586955617947,-0.6667852,1.0151415,9.488221
1586955617996,-0.6919243,1.0283096,9.566033
1586955618048,-0.760159,1.0737995,9.655815
1586955618099,-0.688333,1.033098,9.595961
1586955618150,-0.6811504,1.1061212,9.701305
1586955618201,-0.6572084,1.0462662,9.557653
1586955618252,-0.7673417,1.0247183,9.466674
1586955618301,-0.7685388,1.1324574,9.38168
1586955618352,-0.7505822,1.0199299,9.864111
1586955618403,-0.49200845,1.1168951,10.030508
1586955618454,-0.21188685,0.7098808,9.539697
1586955618505,-0.37229836,0.8487445,10.149021
1586955618556,0.053869538,1.0402806,9.759963
1586955618607,-0.52073884,1.0031705,9.19134
1586955618658,-0.32561144,0.92296475,9.646238
1586955618710,-0.4333505,0.8379706,9.635465
1586955618761,-0.2693477,0.82480246,9.762358
1586955618810,-0.39504328,0.89184016,9.661801
1586955618861,-0.30166942,0.80325466,9.473856
1586955618912,-0.49799395,1.0570401,9.544485
1586955618963,-0.2908955,0.7386112,9.712079
1586955619014,-0.08140286,1.0426749,10.350134
1586955619065,-0.5638345,0.63206923,9.151836
1586955619116,-0.15562311,0.30526072,9.712079
1586955619167,-0.4333505,1.7992426,10.354922
1586955619218,-1.5765818,0.61171854,10.463859
1586955619268,-2.2732944,0.7769185,9.502586
1586955619319,-1.4616601,0.32680854,9.5385
1586955619371,-2.5270798,1.4927847,8.797494
1586955619421,-1.4425066,1.0175357,9.232041
1586955619473,-1.4053963,1.4389153,10.111911
1586955619523,-1.2210429,0.878672,8.706514
1586955619576,-2.3774424,1.34195,9.368511
1586955619626,-2.183512,1.7992426,9.496601
1586955619676,-2.1045034,0.2813187,8.49343
1586955619728,-1.1372458,0.80205756,10.108319
1586955619777,-2.4911668,0.78050977,9.651027
1586955619831,-2.4528596,0.93972415,9.398438
1586955619882,-1.4796166,0.007182605,9.679757
1586955619933,-2.0518308,0.2633622,9.750386
1586955619983,-2.5330653,0.48123455,9.642648
1586955620033,-2.136825,-0.415394,9.617508
1586955620085,-1.910573,1.2425907,7.3083005
1586955620134,-2.767697,0.51834464,7.777564
1586955620185,-1.970428,0.016759412,10.718841
1586955620235,-3.4632127,0.4237737,9.1590185
1586955620287,-2.3331497,0.14963761,10.356119
1586955620337,-2.2744915,0.91338795,10.121488
1586955620389,-2.0685902,1.2689269,9.283517
1586955620440,-1.8614918,1.0031705,10.597934
1586955620490,-2.2134395,0.5315128,10.245986
1586955620541,-2.291251,-0.2705448,8.136695
1586955620591,-2.3223755,1.2437878,9.15423
1586955620643,-0.8367735,1.5849615,7.9846625
1586955620693,-1.270124,1.2761095,10.931925
1586955620744,-1.7896658,1.2497733,9.836577
1586955620795,-2.4911668,2.03148,8.845378
1586955620844,-0.37110126,-0.09696517,11.032481
1586955620895,-1.3467385,0.9516952,9.576807
1586955620946,-1.7956513,1.2366052,9.354146
1586955620998,-1.7501614,1.174356,9.865308
1586955621051,-1.638831,1.0307038,9.93474
1586955621102,-1.8710686,1.5526398,9.941922
1586955621152,-1.091756,0.56982,9.374496
1586955621202,-1.6591818,-0.2789245,9.793482
1586955621253,-1.3994108,0.7290344,7.633912
1586955621304,-1.0809821,1.5478514,9.576807
1586955621352,-1.0809821,1.5478514,9.576807
1586955621404,-1.0809821,1.5478514,9.576807
1586955621454,-0.6823475,-0.4333505,7.1969705
1586955621505,1.3060371,-2.9951463,8.455123
1586955621556,-0.09696517,-5.1642933,7.1191587
1586955621607,2.1452048,-5.4420204,7.181408
1586955621658,3.4739866,-8.327033,6.9467764
1586955621709,5.6347537,-8.522161,8.0924015
1586955621760,6.8785415,-9.41041,7.240066
1586955621811,9.174581,-9.222465,5.566519
1586955621859,9.445126,-9.362526,3.655946
1586955621910,8.974665,-9.685743,1.8459295
1586955621961,7.0006456,-8.195353,0.8619126
1586955622012,4.84347,-8.256405,4.26527
1586955622063,5.115212,-9.805453,0.107739076
1586955622114,4.9559975,-10.7356,-1.1803415
1586955622166,4.0761285,-8.038532,1.3982137
1586955622217,5.0493712,-10.081984,-3.0502129
1586955622268,4.1695023,-10.03769,0.10534488
1586955622318,3.3889925,-9.305065,-1.5191209
1586955622369,2.492364,-6.4152637,-0.04070143
1586955622420,1.875857,-7.726089,-3.4081461
1586955622471,0.60214174,-7.526173,-3.7600937
1586955622522,0.93014735,-6.870162,-2.6264393
1586955622573,1.1839328,-7.639898,-4.223372
1586955622624,0.4237737,-9.266758,-2.920926
1586955622675,-0.03232172,-10.166978,-1.7046716
1586955622727,0.34117374,-10.618284,-2.5773582
1586955622776,0.63087213,-8.828619,-0.260968
1586955622828,4.355053,-13.196839,-2.8095956
1586955622876,3.1172507,-13.329718,0.60094464
1586955622928,2.2756886,-12.130223,1.2354081
1586955622980,1.1611878,-10.275913,1.2677298
1586955623030,2.292448,-10.808623,0.8834604
1586955623082,0.22744916,-8.232463,0.45370123
1586955623132,0.39983168,-8.730456,1.447295
1586955623183,1.8567034,-10.451887,0.41180268
1586955623234,-0.94690675,-7.6590514,-0.2801216
1586955623285,-0.11133038,-12.739547,-0.49200845
1586955623336,0.9828198,-8.941146,-1.0390835
1586955623385,0.6356605,-7.4268136,1.3515269
1586955623437,-0.4189853,-9.028535,0.6895301
1586955623489,2.5905263,-9.404425,-1.198298
1586955623538,3.7445314,-14.662091,0.93852705
1586955623590,1.3108255,-11.146206,0.7673417
1586955623642,0.4261679,-9.405622,-0.130484
1586955623692,0.6871359,-12.287044,-0.34715924
1586955623743,1.6017209,-10.058042,-1.2569559
1586955623795,1.1587936,-8.525752,-0.9564836
1586955623843,0.2681506,-10.472239,-0.11492168
1586955623899,0.4213795,-9.8437605,-0.09935937
1586955623947,1.2689269,-8.497022,-1.2749124
1586955623999,0.3866636,-7.7967176,0.05865794
1586955624049,0.22864626,-8.220491,-0.6607997
1586955624102,0.23822308,-12.069171,-0.7074866
1586955624151,0.15203181,-11.617864,0.1436521
1586955624203,-0.30645782,-11.4119625,0.02873042
1586955624253,-0.23582886,-10.121488,-0.90261406
1586955624305,1.6077064,-10.692505,-1.9321208
1586955624355,2.2900538,-9.01776,-1.9117701
1586955624407,5.294777,-10.500969,-1.3180081
1586955624457,3.405752,-9.896433,-0.038307227
1586955624508,3.6236243,-9.6845455,-0.60453594
1586955624560,3.669114,-10.21127,-0.9959879
1586955624610,2.9352913,-7.967903,-0.581791
1586955624662,2.384625,-9.094376,-1.970428
1586955624712,3.2357635,-9.027337,-0.8846575
1586955624764,3.359065,-9.616311,-0.24061728
1586955624813,3.406949,-10.079589,0.020350715
1586955624865,3.551798,-11.708843,0.038307227
1586955624913,1.7238252,-6.0645127,-1.5610195
1586955624965,1.9680338,-9.878476,-1.5310919
1586955625017,2.493561,-9.483433,-1.1061212
1586955625066,2.5558102,-9.595961,-0.9504981
1586955625118,2.5258827,-9.568427,-1.2258313
1586955625170,2.4313118,-9.515755,-1.2485762
1586955625220,2.480393,-9.619903,-1.34195
1586955625272,2.4516625,-9.4295635,-1.5993267
1586955625322,2.5809495,-9.489418,-1.3754689
1586955625374,2.504335,-9.570822,-1.365892
1586955625422,2.3834279,-9.361329,-1.4532804
1586955625474,2.565387,-9.519346,-1.3958195
1586955625525,2.859874,-9.572019,-1.567005
1586955625576,3.2034419,-9.269152,-1.6065093
1586955625627,3.490746,-8.542512,-1.8614918
1586955625679,3.903746,-7.156269,-2.6240451
1586955625729,4.1276035,-6.5816603,-3.3662477
1586955625781,6.7504516,-11.918336,-3.0992942
1586955625831,4.5154643,-7.8709383,-1.9393034
1586955625883,3.9707835,-7.062895,-3.241749
1586955625931,5.294777,-7.513005,-3.1639376
1586955625982,5.0122614,-6.9826894,-3.0909145
1586955626034,5.5976434,-5.270835,-3.7193923
1586955626086,6.0944405,-5.631162,-3.5098996
1586955626136,6.4044895,-6.0369797,-3.807978
1586955626187,7.563283,-6.495469,-4.253299
1586955626238,8.615535,-7.323863,-4.0066967
1586955626289,7.904457,-11.060015,-3.3554738
1586955626340,8.871715,-10.201694,-3.2788591
1586955626391,-1.2725182,-5.711368,-3.1783028
1586955626440,4.9404354,-13.898341,-3.3602622
1586955626491,3.9731777,-4.72376,-3.5745432
1586955626541,1.3754689,-8.573636,-2.7700913
1586955626592,3.9624038,-7.7548194,-2.7162218
1586955626643,3.5901055,-8.145074,-1.7525556
1586955626694,1.2892777,-8.27077,-3.4931402
1586955626745,1.5813702,-8.969876,-2.7976246
1586955626796,1.9261353,-8.158242,-1.7657237
1586955626847,1.875857,-10.169372,-3.228581
1586955626899,1.5873557,-8.9519205,-4.0665517
1586955626955,1.1109096,-9.66659,-5.130774
1586955626998,2.8862102,-8.452729,-2.907758
1586955627050,5.7245364,-7.9595237,0.92416185
1586955627102,-0.90141696,-13.357251,-1.2378023
1586955627151,2.0614076,-10.848128,-2.4313118
1586955627203,13.437457,-15.879542,2.706645
1586955627255,5.115212,-5.2863975,-2.541445
1586955627329,2.2122424,-9.091981,-5.0876784
1586955627376,2.574964,-7.076063,-1.1109096
1586955627424,3.7421372,-4.7548847,-3.9372647
1586955627480,5.722142,-3.1172507,-5.01705
1586955627528,10.388441,-6.1866174,-6.757634
1586955627580,8.871715,-6.9886746,-6.9970546
1586955627630,8.559271,-15.825673,-1.5095441
1586955627682,1.8148049,-8.196549,2.871845
1586955627731,-1.9261353,-4.1659107,-5.5509567
1586955627782,10.593145,-21.560984,-3.8271315
1586955627834,1.8327614,-6.3805475,-3.6284127
1586955627886,2.598906,-6.7480574,-2.5342624
1586955627936,0.688333,-7.800309,-3.50152
1586955627987,1.661576,-7.9786773,-2.541445
1586955628039,3.8738184,-8.191761,-3.6954503
1586955628090,2.9281087,-7.5201874,-2.8862102
1586955628140,2.5378537,-10.551247,-5.5389857
1586955628192,1.9117701,-7.441179,-3.0119057
1586955628242,1.3299791,-9.604341,-2.8909986
1586955628294,5.470751,-5.722142,0.007182605
1586955628343,0.8870517,-9.121908,-1.8243817
1586955628395,1.1492168,-15.077485,-4.6124296
1586955628447,9.673772,-15.726314,-0.9552865
1586955630010,7.941567,-6.8869214,2.0171149
1586955630060,0.8487445,-6.956353,-2.5318682
1586955630111,1.8914193,-9.053674,-5.813122
1586955630162,4.570531,-6.799533,-0.48243165
1586955630214,1.1252748,-7.219715,0.58418524
1586955630263,2.885013,-14.550761,-3.2908301
1586955630315,19.750967,-16.23987,-2.3762453
1586955630366,4.209007,-3.6008794,5.6215854
1586955630418,2.1871033,-6.295553,-4.3981485
1586955630468,0.89064306,-9.027337,-3.9025488
1586955630519,2.5797524,-6.975507,-2.5127146
1586955630571,7.1622543,-5.197812,-3.1040826
1586955630620,9.5385,-3.7433343,-6.0082493
1586955630672,11.121067,-5.092467,-3.3423057
1586955630723,7.8876977,-9.53012,-3.5936968
1586955630774,4.8027687,-12.649765,0.23582886
1586955630826,-1.0354922,-9.720459,-5.2564697
1586955630876,7.422025,-17.645266,-0.7733272
1586955630927,2.8921957,-6.4260373,-3.7433343
1586955630980,2.7018566,-7.0820484,-2.765303
1586955631025,1.0307038,-7.7667904,-3.7972038
1586955631080,1.8387469,-6.885724,-1.8710686
1586955631152,2.9388826,-8.349778,-2.6671407
1586955631192,3.5781345,-10.3214035,-5.279215
1586955631238,5.603629,-9.503783,-5.707777
1586955631288,2.1045034,-6.757634,-3.0454245
1586955631338,-1.863886,-7.03177,-5.0601454
1586955631388,3.0083144,-5.354632,0.50038815
1586955631438,1.4281414,-12.233173,-0.027533319
1586955631488,5.7724204,-18.41261,-3.0346506
1586955631539,14.909891,-8.980651,-1.4879963
1586955631592,2.2709002,-5.222951,1.7525556
1586955631642,1.2306197,-7.04015,-4.4963107
1586955631692,1.4927847,-7.8290396,-1.6723499
1586955631743,4.758476,-7.153875,-1.9871874
1586955631794,7.606379,-4.9344497,-4.3538556
1586955631846,11.184513,-3.8259344,-7.349002
1586955631896,10.2974615,-6.5924344,-5.255273
1586955631948,5.368997,-5.717354,-2.7820623
1586955631998,7.7248917,-21.013908,-4.7177744
1586955632050,-1.5346833,-10.41358,-3.8762126
1586955632100,8.680179,-16.127342,-0.8870517
1586955632152,3.0933087,-9.1350765,-3.6655228
1586955634010,0.6500258,-6.5230026,-3.028665
1586955634062,9.763555,-6.373365,-3.9671922
1586955634111,9.751583,-15.68681,-3.558981
1586955634162,4.722563,-4.5501804,-1.1923125
1586955634214,-2.8095956,-9.818622,-5.9639564
1586955634265,6.6846113,-12.348095,-3.4045548
1586955634317,2.100912,-7.5405383,-3.4129345
1586955634364,1.8100165,-6.7612257,-2.682703
1586955634415,2.0326772,-6.319495,-2.4995465
1586955634467,4.1299977,-7.515399,-2.0530279
1586955634519,4.8219223,-9.315839,-2.2709002
1586955634571,2.3175871,-8.085219,-3.807978
1586955634621,2.1906946,-8.080431,-4.542998
1586955634673,0.6536171,-6.3123126,-3.8283286
1586955634723,1.5251064,-8.942344,-4.5657425
1586955634774,5.5246205,-6.2943563,0.8283938
1586955635007,1.6915035,-7.60997,0.075417355
1586955635058,10.676943,-17.976864,-0.39624038
1586955635109,3.0550013,-6.5565214,-4.158728
1586955635160,2.6671407,-6.7588315,-3.2932243
1586955635211,2.2278047,-7.3657618,-3.7361517
1586955635263,3.5087025,-8.037335,-2.2601264
1586955635313,3.903746,-8.479065,-2.670732
1586955635364,2.529474,-9.176975,-1.9752164
1586955635416,2.2828712,-7.2484455,-5.4527946
1586955635466,1.2737153,-7.6626425,-3.6966474
1586955635518,2.030283,-9.712079,-4.368221
1586955635566,5.731719,-7.94037,-0.06823475
1586955635617,2.2828712,-6.884527,-0.47884035
1586955635669,0.51355624,-14.375984,0.08140286
1586955635722,16.591818,-19.112911,-2.4612393
1586955635771,4.8985367,-3.715801,3.2118216
1586955635823,3.405752,-6.493075,-4.3873744
1586955637010,1.9021933,-7.8613615,-3.7852328
1586955637061,0.6512229,-4.805163,-3.5529952
1586955637112,1.6998832,-10.295067,-3.90614
1586955637163,5.7245364,-8.098388,1.30484
1586955637213,1.2761095,-9.072827,-0.1328782
1586955637265,1.7489643,-12.641385,-2.8311436
1586955637314,16.649279,-16.683994,-4.829105
1586955637366,5.2863975,-5.6922145,3.2573113
1586955637417,3.9480386,-7.183802,-3.669114
1586955637468,1.6376339,-7.565677,-2.8263552
1586955637520,1.8914193,-5.2660465,-2.7461493
1586955637570,5.5497594,-4.4663835,-3.277662
1586955637622,12.015302,-2.8179753,-5.9843073
1586955637672,9.868899,-5.507861,-3.9875429
1586955637724,7.967903,-7.394492,-2.5893292
1586955637773,9.197326,-17.336414,-3.9947255
1586955638008,-2.942474,-10.152613,-4.209007
1586955638059,5.09127,-11.227609,-4.404134
1586955638111,7.2472486,-7.350199,3.2213984
1586955638161,4.2904096,-5.2852,-2.5941176
1586955638213,2.5210943,-8.090008,-4.685453
1586955638265,2.147599,-6.939594,-1.9057846
1586955638316,3.752911,-6.501455,-2.456451
1586955638368,6.9228344,-4.1036615,-3.9360676
1586955638416,13.091495,-4.0665517,-8.098388
1586955638468,8.945934,-6.5086374,-4.584896
1586955638521,11.445481,-21.66992,-2.777274
1586955638570,4.201824,-2.7964275,-2.2996306
1586955638622,-1.7178397,-13.54759,-1.6627731
1586955638672,8.535329,-10.674548,-4.405331
1586955638723,1.6579847,-7.4723034,-2.3199813
1586955638774,2.337938,-7.1395097,-3.2632968
1586955638824,1.9716251,-8.064868,-3.9731777
1586955638875,3.8379054,-7.3322425,-0.7589619
1586955638925,2.8323407,-8.117541,-1.8914193
1586955638977,2.445677,-8.554482,-3.335123
1586955639027,3.1040826,-10.248381,-4.5992613
1586955639079,1.5945383,-7.0904284,-3.5793316
1586955640010,1.5813702,-6.695385,-2.9029696
1586955640062,12.263102,-3.2429461,-7.666234
1586955640112,7.848193,-6.9743094,-3.9983168
1586955640163,9.3421755,-3.6762967,-6.537368
1586955640214,11.190498,-22.005108,-3.3722332
1586955640266,-2.8263552,-8.009802,-7.165846
1586955640313,2.944868,-15.399506,1.5263035
1586955640364,7.3059063,-6.88333,-6.4978633
1586955640416,1.3395559,-5.886145,-3.1184478
1586955640468,2.3008277,-8.1319065,-3.086126
1586955640520,1.7992426,-6.7384806,-3.4165258
1586955640570,3.845088,-8.380903,-1.7130513
1586955640622,3.086126,-9.119514,-2.80361
1586955640672,2.018312,-8.39048,-4.3382936
1586955640723,1.3742718,-5.6060233,-3.8642416
1586955640775,1.5622166,-10.14543,-3.821146
1586955640823,3.4620156,-8.647857,-2.1092918
1586955640874,3.5972881,-7.1107793,0.1436521
1586955640926,-0.36391866,-13.397953,0.11731588
1586955640977,5.1678843,-11.915942,-4.950012
1586955641029,10.486604,-9.953894,1.4640543
1586955641079,4.213795,-6.421249,1.4089876
1586955641131,3.039439,-8.328231,-4.3957543
1586955641180,1.7549498,-5.7604494,-2.4145525
1586955641231,3.1268275,-5.142745,-2.7401638
1586955641283,6.9503675,-4.405331,-4.8973393
1586955641330,14.129381,-5.117606,-6.5684924
1586955641382,9.109938,-5.720945,-5.088876
1586955641434,9.841366,-18.428171,-2.3546975
1586955641486,3.1376014,-3.0945058,-3.9552212
1586955641536,-3.406949,-7.398083,-1.7178397
1586955641588,10.359711,-18.254591,-2.292448
1586955641637,1.5251064,-6.494272,-4.1359835
1586955641689,2.6324248,-7.2819643,-2.5366566
1586955641741,1.5574282,-7.3549876,-3.525462
1586955641791,2.542642,-8.48146,-1.9033904
1586955641843,3.8714242,-8.234857,-2.8814218
1586955641892,2.837129,-8.243237,-2.837129
1586955643010,2.8993783,-8.124723,-4.796783
1586955643062,3.122039,-8.89805,-3.5865142
1586955643113,2.944868,-7.6051817,-3.821146
1586955643164,1.0773908,-4.689044,-3.5194764
1586955643215,0.94570965,-10.584765,-5.197812
1586955643266,3.715801,-8.389283,-1.8471266
1586955643318,3.9755719,-6.099229,-0.5386954
1586955643369,0.0011971008,-10.745177,-0.30286652
1586955643420,3.417723,-13.111846,-4.392163
1586955643470,9.974244,-11.389217,0.7314286
1586955643521,5.1762643,-6.2632318,-1.6292542
1586955643573,2.5127146,-7.848193,-4.1623197
1586955643623,1.270124,-6.0369797,-2.4049757
1586955643675,2.1380222,-5.831078,-2.4528596
1586955643725,7.9236107,-4.939238,-4.3634324
1586955643777,13.261483,-7.5549035,-8.016984
1586955646010,9.045294,-6.0704985,-4.285621
1586955646061,3.1830912,-5.567716,-2.3906105
1586955646110,5.3594203,-4.537012,-3.2740707
1586955646161,11.174936,-3.4081461,-6.393716
1586955646212,10.66976,-6.0740895,-3.86903
1586955646264,8.755595,-4.3646297,-6.9587474
1586955646316,10.243592,-16.358383,-2.1416135
1586955646366,1.5693992,-4.619612,-4.1156325
1586955646418,-3.13401,-7.914034,-4.8662148
1586955646468,10.353725,-11.550826,-3.2836475
1586955646519,1.2593501,-7.074866,-2.7581203
1586955646572,3.6894648,-6.621165,-2.8862102
1586955646618,2.992752,-7.395689,-3.4691982
1586955646669,2.2158337,-6.2368956,-3.0705638
1586955646721,4.298789,-9.097966,-2.7485435
1586955646773,2.9041667,-9.625888,-3.5075054
1586955646825,1.7226281,-7.16824,-4.0043025
1586955649013,0.11971009,-6.066907,-2.6611552
1586955649064,1.0905589,-7.6746135,-2.9005754
1586955649116,2.822764,-8.893262,-3.8295257
1586955649165,3.550601,-8.862138,-3.0969
1586955649217,2.9376855,-9.464279,-2.7353754
1586955649264,1.7465701,-6.623559,-5.2600613
1586955649317,1.9883845,-7.275979,-3.4201171
1586955649369,3.7002387,-10.448297,-3.4500446
1586955649419,6.4487824,-8.348581,1.3467385
1586955649470,0.90859956,-9.379285,-0.4237737
1586955649522,0.7110779,-10.676943,-2.3307555
1586955649572,14.310143,-19.211075,-3.9552212
1586955649624,6.4284315,-3.667917,1.3215994
1586955649674,3.9252937,-6.257246,-3.2022448
1586955649726,2.0015526,-8.78672,-4.6603136
1586955649773,2.5438392,-6.4272346,-1.8291701
1586955649825,4.5884876,-5.5976434,-2.9257145
1586955649877,9.329007,-3.3051953,-5.1223946
1586955649929,11.461043,-4.8961425,-6.1040173
1586955649979,8.577228,-6.5385647,-5.3594203
1586955650031,11.282676,-19.232622,-4.9655743
1586955650080,-0.8583213,-7.3166804,-5.085284
1586955650131,-1.4628572,-9.744401,-1.6519991
1586955650183,8.475474,-9.26197,-4.51307
1586955650235,1.3623008,-7.562086,-2.6312277
1586955652012,3.0334535,-7.297527,-4.405331
1586955652061,18.7047,-19.001581,-2.5713725
1586955652112,4.8841715,-6.482301,1.6567876
1586955652163,4.19105,-8.175002,-6.1530986
1586955652215,1.5837644,-6.5122285,-2.835932
1586955652267,2.9101522,-5.4539914,-2.4720132
1586955652316,5.7784057,-3.345897,-4.68665
1586955652367,12.361263,-2.2457612,-6.197391
1586955652419,8.910022,-6.944382,-4.7177744
1586955652472,9.355343,-24.872164,-6.566098
1586955652517,4.200627,-3.2441432,-5.7784057
1586955652571,6.695385,-13.333309,-0.961272
1586955652623,6.8342485,-9.673772,-3.0107086
1586955652673,1.0989386,-7.4495587,-2.055422
1586955652725,1.7298107,-7.303512,-3.2836475
1586955652774,0.8463503,-7.523779,-4.404134
1586955652826,2.5677812,-7.8996687,-2.717419
1586955652878,2.7569232,-7.314286,-2.1080947
1586955652928,4.0701427,-7.064092,-4.758476
1586955652980,3.3028011,-9.442732,-4.056975
1586955653028,1.411382,-8.930372,-3.1028855
1586955653079,2.1392193,-8.467094,-2.5845408
1586955653130,3.7421372,-6.895301,0.5542577
1586955653182,-1.0031705,-14.441825,-2.315193
1586955653234,5.9052987,-10.449493,-4.1982327
1586955653284,10.906786,-13.681665,2.348712
1586955653336,5.0876784,-5.0517654,-0.59376204
1586955653386,2.19668,-7.856573,-4.0581717
1586955653438,0.6667852,-5.625177,-1.9009962
1586955653487,3.1016884,-5.067328,-2.9340942
1586955655010,6.137536,-4.6124296,-2.4408886
1586955655061,1.9309237,-7.0724716,-3.690662
1586955655112,2.72939,-7.704541,-3.8522706
1586955655163,2.6431987,-6.9240313,-3.6415808
1586955655215,3.3315318,-8.021772,-1.8231846
1586955655267,3.21661,-8.149862,-3.5242648
1586955655318,3.5063083,-10.104729,-4.914099
1586955655370,2.4408886,-6.003461,-4.1120415
1586955655420,1.5035586,-8.289924,-3.6978445
1586955655472,4.2341456,-8.046912,-1.555034
1586955655520,4.9105077,-6.5696893,0.50876784
1586955655572,-0.11372458,-12.822147,-0.5386954
1586955655624,3.558981,-11.771092,-4.2102036
1586955655674,12.613852,-13.590686,-1.6627731
1586955655726,4.5992613,-5.949591,0.9600749
1586955655776,3.2273839,-7.93199,-5.4539914
1586955655827,1.6232687,-6.825869,-2.6635494
1586955655878,2.2409728,-6.4763155,-2.1068976
1586955655930,6.9838862,-4.7919946,-4.185065
1586955655980,13.3225355,-4.1455603,-8.377312
1586955656032,9.759963,-5.7855883,-6.338649
1586955656082,10.935516,-23.026236,-1.685518
1586955656133,0.7254431,-3.0765493,-5.865794
1586955656194,5.9747305,-16.807297,-2.2852654
1586955656242,7.8182654,-5.183447,-5.081693
1586955656289,1.9309237,-6.197391,-2.7736826
1586955656339,2.834735,-8.978256,-3.0466216
1586955656388,2.5893292,-7.195773,-4.4244847
1586955656440,3.3842041,-7.964312,-1.0654198
1586955656490,2.3187842,-8.591593,-2.4037786
1586955656542,1.7753005,-8.541314,-4.146757
1586955656592,1.1432313,-5.8226986,-4.4328647
1586955656644,2.8287494,-10.405201,-5.056554
1586955656694,4.831499,-8.337808,-1.8710686
1586955656746,3.8762126,-7.6231384,-0.5650316
1586955656811,-1.0055647,-13.620613,-0.92535895
1586955656857,5.627571,-11.360487,-5.044583
1586955656905,8.358158,-8.828619,3.819949
1586955656955,5.3103395,-6.015432,0.050278235
1586955657005,2.9472623,-8.304289,-4.945224
1586955657057,1.174356,-6.3685765,-2.5905263
1586955657106,3.3614593,-5.412093,-2.9520507
1586955657157,7.8505874,-3.8283286,-3.50152
1586955657209,11.562798,-6.8988924,-9.80665
1586955657261,7.523779,-4.8865657,-7.8086886
1586955657310,13.447034,-15.99207,0.7038953
1586955657361,-0.94331545,-7.315483,-6.2823853
1586955657413,-4.072537,-10.05445,0.81283146
1586955657465,9.181764,-11.382035,-5.1906295
1586955657515,1.8734628,-7.9607205,-1.8100165
1586955657567,1.769315,-7.5285673,-3.490746
1586955657616,2.8574798,-6.7492547,-3.335123
1586955657668,3.7780502,-7.4723034,-2.3523033
1586955657720,3.6739025,-8.726865,-1.9369092
1586955657770,2.777274,-7.479486,-4.325125
1586955658010,2.3511062,-7.1993647,-4.97156
1586955658062,15.458163,-18.055872,-3.0669725
1586955658112,4.6591167,-5.007473,-0.10654198
1586955658163,4.0294414,-7.6710224,-4.423288
1586955658215,2.4193408,-7.8517847,-3.5889084
1586955658263,3.4799721,-5.7843914,-2.4756045
1586955658314,5.4671597,-4.3837833,-4.6112323
1586955658366,9.403227,-2.1033063,-6.0716953
1586955658418,12.045229,-7.6770077,-5.8945246
1586955658468,8.334216,-6.543353,-8.813056
1586955658520,9.436746,-14.458584,-2.7042508
1586955658570,-2.4672248,-9.326612,-6.4463882
1586955658621,6.019023,-14.138958,-4.272453
1586955658673,6.157887,-6.9850836,-4.759673
1586955658723,2.8311436,-5.8586116,-2.8670566
1586955658776,2.3570917,-8.774749,-3.3315318
1586955658825,1.7106571,-6.1183825,-4.1802764
1586955661008,2.5270798,-7.103596,-3.120842
1586955661059,-6.5984197,-8.878897,-5.4803276
1586955661110,10.608707,-19.676746,-2.8502972
1586955661161,6.125565,-6.0285997,-6.169858
1586955661213,2.621651,-8.452729,-2.4013844
1586955661264,3.7445314,-6.8186865,-3.489549
1586955661316,3.039439,-6.885724,-2.9867666
1586955661366,2.6599581,-7.1742253,-3.1364043
1586955661418,3.904943,-8.232463,-2.2026656
1586955661468,3.2860417,-8.907627,-2.2732944
1586955661520,1.5382746,-7.69257,-4.7165775
1586955661570,-0.107739076,-8.627506,-2.5091233
1586955661621,2.7138276,-10.874464,-5.333084
1586955661673,5.377377,-8.117541,-2.3415294
1586955661723,3.5087025,-6.489484,-0.33877954
1586955661775,-1.3180081,-10.681731,-0.8379706
1586955664010,-1.6101006,-12.012907,-1.3790601
1586955664062,3.4117374,-9.068039,-1.8746599
1586955664109,3.5302503,-8.942344,-1.9524715
1586955664161,3.620033,-8.947132,-1.9883845
1586955664212,3.7313633,-9.016563,-1.9548657
1586955664263,3.7924154,-9.051279,-2.135628
1586955664315,3.572149,-9.064447,-2.1284454
1586955664367,3.2609026,-9.035717,-1.8650831
1586955664417,2.5905263,-9.582792,-0.9816227
1586955664469,3.0358477,-9.192537,-0.93613285
1586955664519,3.4284968,-9.841366,-0.1352724
1586955664571,5.8095303,-9.662998,3.667917
1586955664619,2.6803088,-8.336611,-2.3104045
1586955664671,3.9480386,-8.878897,-1.673547
1586955664723,3.6762967,-8.772355,-1.2916719
1586955664774,4.298789,-9.465476,-2.0961237
1586955664824,2.1547816,-8.280347,-0.29448682
1586955664876,2.0841527,-9.659407,-2.516306
1586955664926,4.0402155,-11.499351,-2.3020248
1586955664978,1.9668367,-7.943961,-0.7769185
1586955665028,2.3211784,-9.021352,-2.6180596
1586955665080,3.0705638,-9.776723,-2.2661119
1586955665128,2.8060043,-9.82341,-1.7956513
1586955665180,1.8016368,-9.208099,-0.33638534
1586955665232,2.44448,-9.260772,-2.219425
1586955665282,2.3295584,-9.742006,-1.5011644
1586955667011,2.3080103,-9.674969,-1.7549498
1586955667062,2.5270798,-9.466674,-1.6579847
1586955667114,2.4636335,-9.460688,-1.6579847
1586955667165,2.5019407,-9.502586,-1.6364368
1586955667216,2.4983494,-9.425972,-1.6567876
1586955667267,2.5570073,-9.4535055,-1.6005238
1586955667316,2.4768016,-9.54209,-1.7058687
1586955667368,2.4791958,-9.504981,-1.6819267
1586955667420,2.4791958,-9.489418,-1.661576
1586955667470,2.4839842,-9.424775,-1.7633295
1586955667522,2.5246856,-9.483433,-1.7944542
1586955667572,2.5139117,-9.6845455,-1.6400281
1586955667624,2.565387,-9.690532,-1.7717092
1586955667674,2.6168625,-10.09994,-1.5514427
1586955667725,2.5007436,-10.014946,-1.4927847
1586955667777,2.4133554,-10.237606,-1.6496049
1586955667825,2.8203697,-10.17416,-1.4736311
1586955667877,2.5570073,-10.022128,-1.9177556
1586955667929,2.9747956,-9.870096,-1.1312603
1586955667979,3.8367083,-11.947066,-0.22984336
1586955668031,4.1264067,-12.496535,-1.6986861
1586955669011,3.3746274,-15.149311,-1.0773908
1586955669062,3.7972038,-4.8745947,-2.883816
1586955669113,3.0202854,-2.5605986,-2.1296425
1586955669164,4.3478703,-6.1542954,-6.578069
1586955669216,3.9025488,-8.60117,-8.7771435
1586955669264,3.3842041,-12.143391,-5.4204726
1586955669315,4.6016555,-12.138602,-1.757344
1586955669366,5.2265425,-12.091916,-3.7325604
1586955669418,5.187038,-9.696517,0.020350715
1586955669470,7.04015,-8.476671,3.0873232
1586955669520,6.253655,-6.7708025,5.884948
1586955669572,7.4866686,-5.073313,5.1559134
1586955669622,7.524976,-2.9053638,5.7987566
1586955669673,7.0844426,-2.5713725,6.505046
1586955669725,5.571307,-2.597709,6.0082493
1586955669773,6.4619503,-1.1013328,6.1243677
1586955669825,7.135918,-1.1911154,7.475895
1586955669877,8.1642275,-0.09696517,6.003461
1586955669927,6.719327,-0.82719666,7.690176
1586955669979,3.2992098,1.436521,7.1670427
1586955670028,6.281188,1.6903064,7.216124
1586955670081,7.642292,1.3395559,6.9527617
1586955670130,7.475895,2.030283,6.1650696
1586955670182,6.767211,0.48482585,7.4088573
1586955670234,6.362591,1.2641385,7.3059063
1586955670282,6.1806316,1.0414777,7.047333
1586955670334,6.75524,1.5275006,8.595184
1586955670385,6.467936,1.5251064,7.644686
1586955670436,5.744887,0.4405331,8.700529
1586955670487,4.7441106,-2.4492683,9.64145
1586955670538,-2.1320367,2.4648306,9.24521
1586955670589,0.9900024,-1.3718776,8.645462
1586955670641,-1.0857705,-1.7465701,7.5932107
1586955670691,1.3443443,-0.6691794,11.08276
1586955670743,0.049081136,-0.6823475,10.402806
1586955670790,0.44532153,-0.062249243,9.629479
1586955670840,-0.1388637,0.0035913025,7.513005
1586955670891,0.17956513,0.25737667,5.547365
1586955670942,1.7513585,2.883816,13.267468
1586955670993,0.8367735,1.4784195,9.123106
1586955671043,0.16998832,1.0259154,9.746795
1586955671094,-2.516306,1.6903064,9.794679
1586955671145,-0.58777654,2.0913353,9.212888
1586955671196,0.046686932,0.5793968,9.376891
1586955671247,0.076614454,-0.6631939,8.409634
1586955671295,-0.60693014,0.35913026,9.758766
1586955671346,-0.8858546,-0.11611878,9.752781
1586955671397,-1.0486604,1.0761937,9.704897
1586955671448,-1.4568717,1.1599907,8.816648
1586955671499,-1.0247183,1.5394717,10.381259
1586955671550,-0.25498247,1.3838485,10.120291
1586955671600,-1.0773908,1.3215994,9.502586
1586955671651,-0.80205756,1.5981296,9.372103
1586955671702,-0.8726865,1.7836803,9.487024
1586955671753,-0.8319851,1.8100165,9.556456
1586955671801,-0.7589619,2.0015526,9.434352
1586955671852,-0.7589619,2.0015526,9.434352
1586955671903,-0.7589619,2.0015526,9.434352
1586955671954,-0.7589619,2.0015526,9.434352
1586955672005,-0.7589619,2.0015526,9.434352
1586955672075,-0.7589619,2.0015526,9.434352
1586955672136,-0.7589619,2.0015526,9.434352
1586955672180,-0.7589619,2.0015526,9.434352
1586955672225,-0.7589619,2.0015526,9.434352
1586955672272,-0.7589619,2.0015526,9.434352
1586955672328,-0.7589619,2.0015526,9.434352
1586955672377,-0.7589619,2.0015526,9.434352
1586955672429,-0.7589619,2.0015526,9.434352
1586955672478,-0.7589619,2.0015526,9.434352
1586955672536,-0.7589619,2.0015526,9.434352
1586955672584,-0.7589619,2.0015526,9.434352
1586955672633,-0.7589619,2.0015526,9.434352
1586955672682,-0.7589619,2.0015526,9.434352
1586955672733,-0.7589619,2.0015526,9.434352
1586955672784,-0.7589619,2.0015526,9.434352
1586955672833,-0.7589619,2.0015526,9.434352
1586955672884,-0.7589619,2.0015526,9.434352
1586955672934,-0.7589619,2.0015526,9.434352
1586955672985,-0.7589619,2.0015526,9.434352
1586955673036,-0.7589619,2.0015526,9.434352
1586955673087,-0.7589619,2.0015526,9.434352
1586955673138,-0.7589619,2.0015526,9.434352
