@ HyperIMU -ianovir - 2018
@ Date:Wed Apr 15 14:58:56 GMT+02:00 2020, Sampling Rate:50ms

timestamp,K6DS3TR_Accelerometer.x,K6DS3TR_Accelerometer.y,K6DS3TR_Accelerometer.z
1586955536164,0.0,0.0,0.0
1586955536215,-1.4927847,1.7657237,9.715671
1586955536266,-0.7781156,1.8231846,9.694122
1586955536317,-0.5255273,1.8148049,9.40203
1586955536368,-0.4357447,1.5813702,9.269152
1586955536419,-0.4345476,1.8435353,9.455899
1586955536470,-0.62847793,2.0398598,9.488221
1586955536521,-0.6344634,1.9548657,9.552865
1586955536572,-0.5374983,1.8507179,9.548077
1586955536623,-0.5506664,1.8962077,9.470264
1586955536674,-0.581791,1.9153614,9.520543
1586955536723,-0.60214174,1.8782512,9.437943
1586955536774,-0.6775591,1.8351556,9.516952
1586955536825,-0.5530606,1.7441759,9.579201
1586955536877,-0.62009823,1.8016368,9.445126
1586955536928,-0.49679685,1.7681179,9.580399
1586955536979,-0.5781997,1.7178397,9.531317
1586955537032,-0.59495914,1.7561469,9.531317
1586955537084,-0.6356605,1.8782512,9.531317
1586955537136,-0.581791,1.8088194,9.625888
1586955537186,-0.6607997,1.7836803,9.539697
1586955537238,-0.62488663,1.7645266,9.543288
1586955537288,-0.6344634,1.7908629,9.470264
1586955537341,-0.7062895,1.7345991,9.425972
1586955537391,-0.5781997,1.4556746,9.599552
1586955537442,-0.6548142,1.6065093,9.487024
1586955537492,-0.6799533,1.6112977,9.520543
1586955537545,-0.38307226,1.7106571,9.886856
1586955537595,-0.81402856,1.9800048,9.527725
1586955537645,-0.7469909,1.6448165,10.052056
1586955537696,-0.020350715,1.4293385,9.6845455
1586955537746,-0.7015011,1.5945383,9.7803135
1586955537798,-0.5710171,1.6998832,9.465476
1586955537848,-0.58657944,1.6747441,9.39365
1586955537900,-0.61291564,1.6938977,9.613917
1586955537950,-0.7074866,1.7645266,9.674969
1586955538002,-0.6859388,1.6472107,9.526528
1586955538053,-0.7098808,1.3347675,9.704897
1586955538103,-1.0809821,1.6232687,9.48463
1586955538155,-0.5518635,1.508347,9.642648
1586955538205,-0.8283938,1.5155296,9.531317
1586955538258,-0.81761986,1.8435353,9.850943
1586955538308,-0.7290344,1.3982137,9.568427
1586955538358,-0.6500258,1.3251907,10.703279
1586955538410,-0.78529817,1.6915035,9.8042555
1586955538460,-0.93613285,1.7621324,9.53012
1586955538512,-0.24301147,1.6819267,9.428367
1586955538563,-0.19752164,1.3359646,9.14226
1586955538613,-0.36152446,1.6017209,9.85214
1586955538665,-0.641646,1.3958195,9.491813
1586955538715,-0.50637364,1.0474633,9.61272
1586955538766,0.33279404,1.3742718,9.791088
1586955538818,0.78769237,0.90620536,9.787497
1586955538867,0.59855044,1.1001357,9.580399
1586955538919,0.6584055,1.4496891,9.339781
1586955538971,-0.39384618,0.664391,9.5013895
1586955539021,-0.32561144,1.2689269,9.783905
1586955539074,-0.90859956,1.3934253,10.077195
1586955539125,-1.0127473,0.736217,9.7479925
1586955539175,-1.0163386,0.7374141,9.217676
1586955539224,-1.435324,0.7745243,9.428367
1586955539277,-0.81163436,0.5470751,9.516952
1586955539326,-0.94092125,1.1911154,9.598354
1586955539378,-1.4089876,1.0594343,9.350554
1586955539430,-0.35913026,1.567005,9.445126
1586955539480,-0.30885202,2.6563668,9.570822
1586955539532,0.020350715,2.3918076,10.150218
1586955539582,-0.63087213,2.0566192,8.945934
1586955539636,-1.0031705,0.7649474,10.0029745
1586955539686,-1.7417817,1.5598224,9.564836
1586955539736,-1.5622166,1.7908629,9.570822
1586955539788,-1.6867151,0.8738836,9.0476885
1586955539838,-2.6312277,1.6603789,8.687361
1586955539891,-1.1372458,0.9983821,9.646238
1586955539941,-1.7022774,1.9321208,9.544485
1586955539991,-1.0486604,0.6907272,10.007763
1586955540043,-0.5398925,0.6332663,10.447099
1586955540094,-0.52073884,1.1073183,9.701305
1586955540143,-2.12246,1.8267759,8.810662
1586955540194,-1.055843,1.7130513,9.136273
1586955540246,-0.89543146,1.5514427,9.992201
1586955540294,-1.4915876,1.9919758,9.375694
1586955540346,-1.7106571,1.816002,9.153033
1586955540398,-1.3000516,1.2354081,9.7324295
1586955540449,-1.3395559,1.4796166,9.859323
1586955540500,-1.1432313,1.3455414,9.800665
1586955540549,-1.3587095,1.8076223,9.388862
1586955540600,-1.472434,1.3227965,9.137471
1586955540653,-1.5095441,1.2988545,9.307459
1586955540703,-1.7190368,1.1408371,9.033323
1586955540755,-1.4053963,1.7034745,10.726024
1586955540803,-1.3694834,1.6065093,9.81503
1586955540856,-1.3503298,1.8375498,9.470264
1586955540905,-1.3347675,1.1432313,9.97185
1586955540957,-1.210269,1.4460979,9.901221
1586955541009,-1.5275006,1.8902222,8.75799
1586955541059,-1.5310919,1.6412252,8.847773
1586955541111,-0.6488287,1.6843209,9.866506
1586955541162,-0.6404489,1.4676456,9.78989
1586955541213,-0.91697925,1.602918,9.77792
1586955541262,-0.78050977,1.5406688,9.783905
1586955541317,-0.91578215,1.6292542,9.388862
1586955541365,-0.9923966,1.6496049,9.4774475
1586955541417,-0.5793968,1.5143325,9.810242
1586955541467,-0.50757074,1.1851299,9.618706
1586955541519,-0.80325466,1.8602947,9.615114
1586955541569,-0.3866636,1.9524715,9.483433
1586955541621,-0.36990416,1.6891093,9.721656
1586955541671,-0.8726865,1.6160861,9.1829605
1586955541723,-1.0953473,1.5993267,9.174581
1586955541774,-0.35314476,1.614889,8.942344
1586955541823,0.6967127,2.7700913,9.317036
1586955541874,1.6986861,2.2134395,10.375273
1586955541925,2.4372973,1.578976,10.675745
1586955541977,1.3383588,2.2146366,9.580399
1586955542029,1.282095,2.3798366,9.338584
1586955542079,2.1571758,1.3850456,9.520543
1586955542131,0.8295909,0.8619126,9.779117
1586955542183,1.163582,1.067814,9.702502
1586955542232,0.78410107,2.396596,8.115147
1586955542283,1.6891093,3.0418332,7.0581064
1586955542332,3.608062,-0.9900024,9.694122
1586955542383,2.80361,1.2425907,6.4368114
1586955542434,1.5514427,-2.1188686,6.859388
1586955542485,0.5746084,-3.78643,3.9121256
1586955542536,2.598906,-4.1371803,5.270835
1586955542587,4.0402155,-5.711368,6.6295447
1586955542638,6.113594,-6.8127007,9.167398
1586955542689,7.603985,-10.181343,6.513426
1586955542740,7.4028716,-9.813833,8.860941
1586955542791,10.606314,-12.872425,4.249708
1586955542840,7.8410106,-12.051214,3.3255463
1586955542891,4.9057193,-9.490616,5.4204726
1586955542942,6.302736,-10.66976,0.3842694
1586955542993,4.5657425,-10.20289,0.25258827
1586955543044,4.4999022,-8.827422,-2.1703439
1586955543095,3.527856,-7.1227503,4.4663835
1586955543146,2.3080103,-5.813122,1.2940661
1586955543197,5.2480903,-6.549339,-1.4053963
1586955543248,4.5645456,-6.167464,-1.7872716
1586955543299,-2.030283,-7.855376,-0.82001406
1586955543349,1.8686744,-6.211756,-1.8016368
1586955543401,4.485537,-11.840525,-0.46567222
1586955543451,4.3143516,-9.519346,-1.1827357
1586955543503,6.3302693,-11.716026,-2.1918917
1586955543553,1.4676456,-8.775947,-1.1001357
1586955543605,5.8945246,-4.9524064,-1.9321208
1586955543654,8.913613,-8.955511,-2.5474305
1586955543706,4.787206,-7.123947,1.292869
1586955543758,-0.5279215,-9.396045,1.2282255
1586955543808,1.5562311,-10.875661,-1.62686
1586955543860,1.448492,-8.815451,-1.103727
1586955543910,3.489549,-7.7129207,2.098518
1586955543962,1.5370775,-8.397662,-1.436521
1586955544012,1.7429788,-10.031705,-4.036624
1586955544064,1.292869,-9.172187,0.93254155
1586955544114,2.8000188,-11.105505,0.2765303
1586955544166,1.5921441,-9.012972,-0.21068975
1586955544216,3.3674448,-7.3166804,-0.7517793
1586955544267,2.979584,-2.8203697,0.37110126
1586955544319,2.2661119,-3.2740707,0.33039984
1586955544367,-0.6871359,-18.966866,-1.7154455
1586955544419,1.246182,-10.594342,-1.5107412
1586955544470,2.8179753,-22.669498,-2.9233203
1586955544522,-3.9851487,-14.978126,-1.1360487
1586955544572,-2.719813,-11.869255,0.23702596
1586955544624,-0.6392518,-9.781511,1.6879122
1586955544674,-1.0354922,-11.514913,1.6747441
1586955544726,-0.093373865,-9.621099,-2.610877
1586955544776,-3.252523,-9.714474,2.0494366
1586955544828,-2.3259668,-9.490616,0.7422025
1586955544876,-2.1380222,-9.865308,0.7326257
1586955544928,-2.079364,-8.548497,3.940856
1586955544980,-1.7106571,-6.9168487,2.8909986
1586955545030,-1.5658079,-6.173449,3.7074213
1586955545082,-2.2134395,-7.9547353,5.9807158
1586955545132,-1.4209588,-7.675811,5.509058
1586955545183,-1.5011644,-8.643068,7.0952168
1586955545234,-3.4632127,-6.75524,8.878897
1586955545286,-8.627506,-14.665683,2.9532478
1586955545336,-3.0370448,-3.4117374,-6.1542954
1586955545388,1.1492168,-9.701305,3.8019924
1586955545438,0.3196259,-13.964181,2.4193408
1586955545490,-1.8207904,-6.169858,1.1611878
1586955545540,0.24301147,-10.005369,-0.24899697
1586955545592,3.3722332,-9.340978,-2.5234885
1586955545640,-0.47046062,-8.860941,-0.6679823
1586955545691,1.6280571,-9.2907,-1.899799
1586955545742,0.39025488,-9.8677025,-0.90500826
1586955545793,1.7884687,-10.718841,1.6112977
1586955545844,3.359065,-11.306618,1.0773908
1586955545892,3.5745432,-12.717999,2.195483
1586955545944,4.325125,-14.233529,-1.9955671
1586955545994,-1.3790601,-13.534422,-3.015497
1586955546045,-6.767211,-12.561179,-3.964798
1586955546096,-0.9792285,-12.934674,0.7170634
1586955546147,-0.16879122,-10.581175,-2.3319526
1586955546197,1.6208745,-6.209362,-1.2437878
1586955546248,-0.8583213,-4.7081976,1.638831
1586955546299,-1.8626889,-2.0817583,-0.736217
1586955546351,-0.60453594,-3.1986535,1.5454572
1586955546399,-0.15682021,-9.295488,7.3190746
1586955546451,-5.305551,-14.094666,12.90355
1586955546503,-2.0398598,-11.803414,4.7860093
1586955546553,-9.4295635,-8.330625,6.232107
1586955546605,3.8283286,3.8594532,-14.202404
1586955546654,0.06823475,-5.433641,0.9540894
1586955546706,3.5649664,-14.70399,2.078167
1586955546758,-0.6859388,-7.395689,-0.22146365
1586955546808,-1.0618285,-9.88925,-2.0745757
1586955546859,1.043872,-8.506598,-0.7433996
1586955546909,1.8938135,-9.224859,-0.9672575
1586955546961,2.36188,-9.94312,0.79726917
1586955547011,1.5286977,-10.772711,0.91937345
1586955547063,0.34715924,-11.821371,1.1959038
1586955547113,1.9979613,-10.852917,-0.39384618
1586955547165,-0.12090719,-10.921151,2.5139117
1586955547215,3.9145198,-13.063962,-0.1328782
1586955547267,-1.4879963,-13.826515,-5.815516
1586955547317,-6.3589997,-14.353239,-0.8678981
1586955547368,0.7721301,-12.49055,1.1085154
1586955547417,1.6998832,-9.637859,-0.4261679
1586955547468,1.4496891,-7.9487495,-1.282095
1586955547519,-0.6428431,-5.069722,0.37110126
1586955547569,-2.6623523,-3.3063924,-0.25378537
1586955547620,-0.6440403,-4.3777976,2.8502972
1586955547672,-0.79726917,-7.451953,5.2169657
1586955547724,-3.8391025,-13.6170225,13.11424
1586955547776,-1.8375498,-9.32781,4.177882
1586955547826,-5.4647655,-2.645593,8.406042
1586955547878,-5.816713,-28.23123,-2.2601264
1586955547926,-4.2054152,6.447585,-8.148665
1586955547977,5.2409077,-15.149311,-5.209783
1586955548029,1.8471266,-8.005013,1.1324574
1586955548081,-1.448492,-6.953959,0.25498247
1586955548131,4.8123455,-9.340978,-3.311181
1586955548183,0.89662856,-9.214086,-1.2545617
1586955548233,2.6408045,-8.957906,-0.93613285
1586955548285,2.3882163,-10.929531,1.2413936
1586955548335,3.0466216,-11.637017,0.51834464
1586955548387,0.2896984,-11.584345,0.5291186
1586955548435,-1.1408371,-11.574768,1.6962919
1586955548486,4.6698904,-13.682862,0.2896984
1586955548538,0.62847793,-13.387178,-2.6527755
1586955548591,-4.8841715,-17.85835,-1.4796166
1586955548640,-0.866701,-14.241909,1.4796166
1586955548692,1.5179238,-8.86932,-0.89184016
1586955548741,3.0813377,-5.955577,0.25378537
1586955548793,-2.1404164,-2.9053638,-0.90979666
1586955548845,-1.1360487,-1.5382746,-0.7733272
1586955548895,-1.8842367,-4.80636,1.5849615
1586955548947,-3.122039,-14.642938,11.1893015
1586955548997,-0.49081135,-13.1717005,11.343728
1586955549048,-3.1986535,-3.2632968,7.4986396
1586955549101,-8.469488,-24.586058,2.4839842
1586955549150,-8.789114,10.623073,0.7338228
1586955549202,5.861006,-19.663578,-4.4424415
1586955549252,-0.1316811,-8.330625,1.5047557
1586955549304,-1.9991584,-6.7839704,0.2657564
1586955549354,4.1000705,-9.7563715,-1.9764135
1586955549406,0.62967503,-8.985439,1.1587936
1586955549454,1.448492,-8.804677,0.08379706
1586955549506,1.496376,-9.421184,-0.7649474
1586955549557,-0.51954174,-10.308235,1.2725182
1586955549609,2.3666685,-11.259931,0.60932434
1586955549659,1.970428,-12.316971,2.1990743
1586955549711,4.602853,-15.970523,-0.8583213
1586955551010,-2.0159178,-14.01446,-2.7988217
1586955551061,-1.1432313,-4.6579194,-0.2789245
1586955551112,-1.5861586,-2.3594859,-0.44532153
1586955551163,-0.59615624,-2.3056161,-0.23223756
1586955551212,-1.6795325,-4.8147397,3.1890767
1586955551263,-5.2959743,-25.471912,16.715118
1586955551315,-1.3850456,-7.9834657,4.554969
1586955551366,-6.0956373,-11.417948,4.9404354
1586955551418,10.255563,-16.713923,-11.398794
1586955551469,1.863886,-6.256049,-3.714604
1586955551520,5.3737855,-19.156008,2.80361
1586955551571,-0.30526072,-5.8945246,1.3072342
1586955551621,1.1432313,-9.41041,-1.2066777
1586955551673,0.021547815,-8.506598,-0.32920274
1586955551721,-0.05865794,-9.107543,-0.2789245
1586955551773,1.6950948,-9.961076,-0.33159694
1586955551825,1.388637,-10.33936,0.51954174
1586955551875,0.01316811,-11.186908,2.0697873
1586955551926,4.1503487,-12.132617,0.7769185
1586955551978,3.0657754,-14.233529,0.62368953
1586955552028,1.5586253,-14.911088,-1.8363527
1586955552080,-5.8634,-11.301829,-4.378995
1586955554011,-7.1155677,-11.36767,-5.209783
1586955554063,3.6822822,-8.875306,-1.0654198
1586955554110,0.31603462,-8.7125,0.40701428
1586955554161,1.2892777,-8.118738,-1.2593501
1586955554213,1.4137762,-9.040505,-1.1887212
1586955554264,0.1376666,-11.183316,1.5957354
1586955554315,1.7429788,-10.468647,0.9648633
1586955554365,2.8538885,-10.74398,1.6160861
1586955554417,1.7824832,-10.080787,2.0266917
1586955554469,-0.027533319,-22.178688,-6.2752028
1586955554521,-8.718486,-16.707937,-4.5322237
1586955554571,-0.40940848,-17.46211,2.9843724
1586955554623,2.03148,-11.008539,-0.47644615
1586955554673,0.6368576,-5.007473,-3.3387144
1586955554725,-2.1511903,0.108936176,-0.7015011
1586955554775,-2.5965118,-0.51714754,-1.2725182
1586955554826,-2.0745757,-2.385822,0.6596026
1586955554879,0.7158663,-9.41041,7.3669586
1586955554929,-4.631583,-18.599356,12.70124
1586955554979,-2.5617957,-2.9340942,3.5075054
1586955555031,-5.662287,-18.509573,10.603919
1586955555081,0.62368953,14.198813,-24.768017
1586955555133,-2.280477,-8.911219,1.2258313
1586955555183,5.4444146,-13.978547,3.6595373
1586955555235,1.5646108,-5.852626,2.1428106
1586955555285,1.3730747,-9.0476885,-1.316811
1586955555337,0.48123455,-8.662222,-1.6651673
1586955557010,-0.19153613,-8.698134,-1.3970166
1586955557062,0.059855044,-3.83192,0.33039984
1586955557111,-0.61171854,-3.1794999,0.09935937
1586955557161,-1.2844892,-2.2290018,-0.61650693
1586955557213,-1.3838485,-4.2042184,1.6627731
1586955557261,-4.8123455,-19.70428,9.856929
1586955557312,-2.1942859,-10.903194,9.331401
1586955557363,-0.8882488,-1.2378023,7.69257
1586955557414,-4.900931,-35.53594,3.787627
1586955557466,-15.892711,9.526528,15.777789
1586955557517,8.676587,-21.59929,-3.5230677
1586955557569,1.4221559,-8.170214,0.63206923
1586955557619,-0.9576807,-6.730101,-2.1547816
1586955557671,1.9776106,-8.883685,-1.7872716
1586955557721,1.8363527,-9.491813,-1.2126632
1586955557773,3.1435869,-8.4587145,-0.10295067
1586955560009,0.6895301,-11.792641,1.7872716
1586955560060,-1.4748282,-8.468291,-0.23702596
1586955560111,1.5023615,-9.205706,-1.5717934
1586955560163,2.9460652,-9.570822,-0.6943185
1586955560212,0.5494693,-11.670536,1.9201498
1586955560264,4.039018,-12.777855,0.08259996
1586955560316,0.9840169,-12.13142,2.0446482
1586955560366,3.1495724,-14.29937,-0.4429273
1586955560417,0.79726917,-13.261483,-2.822764
1586955560467,-7.4950485,-13.661315,-4.655525
1586955560518,-0.29448682,-13.408727,2.8921957
1586955560569,1.4580688,-11.645397,-1.887828
1586955560621,0.8762778,-6.573281,-0.47764325
1586955560671,-1.459266,-2.96881,0.19273324
1586955560723,-1.0857705,-1.0450691,-0.30286652
1586955560773,-0.17238252,-3.1124623,1.3275849
1586955560825,-1.4879963,-12.254722,7.937976
1586955560875,-2.7569232,-19.226637,13.78701
1586955560926,-1.1312603,-9.750386,2.7353754
1586955560975,-5.1223946,-23.44522,10.314221
1586955561026,-1.8231846,15.46774,-24.102428
1586955561077,5.4049106,-14.058752,-9.8198185
1586955561129,5.5868697,-12.74673,2.5474305
1586955561181,-0.48362875,-6.991069,-0.2633622
1586955561231,2.621651,-9.907207,-1.70946
1586955561283,-2.0602105,-8.722076,0.82719666
1586955561333,3.3662477,-9.215282,-0.80564886
1586955561385,2.0171149,-9.039309,-1.1791444
1586955561435,-0.18076223,-8.993818,-1.0857705
1586955561487,-0.1448492,-12.125435,-1.6124948
1586955561537,4.1491513,-13.192051,1.1109096
1586955561589,3.2369606,-13.733141,1.7597382
1586955561639,2.992752,-14.083892,-1.9931729
1586955561691,-7.845799,-14.91468,-4.4280763
1586955561741,-4.1826706,-15.061923,-0.79128367
1586955561793,-0.10654198,-17.220295,-1.4317327
1586955561843,1.5239093,-7.6722193,-1.2114661
1586955561895,0.4357447,-4.4915223,0.90141696
1586955561945,-2.220622,-1.2318168,0.12569559
1586955561997,-1.8195933,-0.63206923,0.7721301
1586955562047,-1.5837644,-3.1160536,5.171476
1586955562099,-1.9141643,-8.1079645,9.953894
1586955562150,-5.3486466,-9.283517,11.274296
1586955562200,-2.822764,-7.0461354,8.2276745
1586955562252,-10.69011,-18.890251,8.905233
1586955562302,-5.4264584,8.499416,-5.333084
1586955562354,0.89303726,-12.022484,1.697489
1586955562404,-0.7170634,-9.627085,2.9388826
1586955562456,0.80804306,-7.398083,2.7868507
1586955562504,-0.60812724,-8.9363575,2.6910827
1586955562556,0.14604631,-8.258799,0.33279404
1586955562608,2.1703439,-7.6626425,-0.581791
1586955562658,0.61770403,-9.112331,0.076614454
1586955562710,0.06943185,-8.485051,-1.4065934
1586955562760,0.33877954,-9.0081835,-1.9632454
1586955562812,2.0937295,-10.803835,0.272939
1586955562862,1.638831,-11.901577,-0.027533319
1586955562914,1.8507179,-12.4390745,2.3678656
1586955562964,7.6291237,-14.268245,-0.33997664
1586955563016,-2.7928362,-16.067488,-5.5150437
1586955563065,-7.8266454,-13.190854,-4.232949
1586955563116,-0.1376666,-12.76349,0.8726865
1586955563168,2.6755204,-11.08276,-3.558981
1586955563219,1.3239936,-6.6044054,-1.8291701
1586955563272,-1.1300632,-5.461174,-0.78888947
1586955563322,-2.2601264,-2.3870192,-0.415394
1586955563371,-1.2437878,-2.621651,1.0953473
1586955563423,-0.5686229,-6.101623,4.71538
1586955563475,-3.904943,-17.696741,10.466252
1586955563523,0.2813187,-11.349713,8.412027
1586955563575,-4.035427,-5.981913,5.7628436
1586955563627,1.0737995,-33.338062,8.429984
1586955563677,-14.443022,18.671183,-13.905523
1586955563729,11.149797,-26.151865,-6.117185
1586955563779,-0.06584055,-5.233725,2.3020248
1586955563831,1.471237,-8.48984,0.61770403
1586955563881,2.372654,-9.467871,-1.1372458
1586955563933,-0.3866636,-8.485051,0.21787235
1586955563983,1.9129672,-8.792706,-0.6619968
1586955564035,2.896984,-9.834184,-0.8499416
1586955564085,0.29807812,-10.688913,0.37948096
1586955564137,1.6927006,-11.086351,-1.2018893
1586955564187,2.208651,-11.486182,0.1400608
1586955564239,3.430891,-14.595054,-0.32202014
1586955564289,1.353921,-16.127342,-0.22505496
1586955565015,-5.409699,-10.427945,-4.969166
1586955565066,-0.79248077,-13.249513,0.8415619
1586955565117,1.3706805,-13.38239,-2.979584
1586955565168,1.4185646,-7.7572136,-1.6376339
1586955565217,-0.8702923,-5.697003,1.1994951
1586955565267,-1.067814,-2.1799207,-0.039504327
1586955565319,-1.2413936,-1.436521,0.037110128
1586955565370,-0.9911995,-5.2157683,3.0418332
1586955565422,-2.944868,-16.247053,11.597513
1586955565474,-1.4975731,-13.96059,6.0681043
1586955565525,-4.5992613,-4.226963,4.0378213
1586955565575,-0.25258827,-26.167427,7.620744
1586955565626,-12.764687,10.8864355,-6.6606693
1586955565678,12.284649,-21.564575,-11.384429
1586955565726,-0.36152446,-7.9822683,2.6671407
1586955565779,0.21428105,-7.0221934,-0.37110126
1586955565828,1.6938977,-9.813833,-1.2593501
1586955565880,1.2018893,-8.65863,-0.48961425
1586955565932,2.3223755,-9.718064,-0.7529764
1586955565982,2.3199813,-9.664195,-0.10534488
1586955566034,-1.5574282,-10.254366,0.11133038
1586955566084,3.3243492,-11.829751,-1.1264719
1586955566136,0.049081136,-12.293029,1.5394717
1586955566186,4.3526587,-14.7411,0.59017074
1586955566238,-2.4396915,-12.271481,-2.3427265
1586955566288,-4.808754,-14.234726,-2.0769699
1586955566339,0.11133038,-12.992135,1.0773908
1586955566391,1.2653356,-10.8624935,-1.3814543
1586955566441,-0.23702596,-6.591237,0.7026982
1586955566493,-2.19668,-2.8766334,-0.7015011
1586955566543,-1.246182,-0.24061728,-0.088585466
1586955566595,-0.93972415,-2.328361,1.532289
1586955566644,-0.5566519,-10.267534,7.0964136
1586955566695,-3.2094274,-17.398664,11.358093
1586955566744,-3.681085,-2.4432828,2.7820623
1586955566796,-1.412579,-30.68409,11.925519
1586955566848,-16.047136,10.729615,0.8391677
1586955566898,9.7958765,-23.432053,-0.22744916
1586955566950,-0.045489833,-5.032612,1.934515
1586955567000,1.3623008,-8.360553,-1.2330139
1586955567052,0.9660604,-9.271546,-0.81043726
1586955567102,-0.272939,-8.698134,-0.48961425
1586955567154,2.1511903,-9.113529,-1.5849615
1586955567203,2.1942859,-9.617508,0.20829555
1586955567257,0.4261679,-11.1174755,0.82121116
1586955567307,2.7808652,-11.895591,-0.016759412
1586955567357,2.1045034,-14.186842,0.8475474
1586955567409,3.705027,-15.460558,-0.6464345
1586955567459,-4.4125137,-10.879252,-4.1623197
1586955567511,-4.38498,-14.202404,-1.5837644
1586955567560,0.81881696,-14.981717,0.9576807
1586955567611,1.8986019,-8.573636,-1.435324
1586955567663,-0.15083471,-6.265626,0.35314476
1586955567715,-1.3323733,-2.7509377,-0.7613561
1586955567763,-1.6101006,-1.7956513,-0.5770026
1586955567815,-1.5717934,-4.509479,1.3850456
1586955567867,-2.4001873,-15.989676,11.09114
1586955567917,-2.8778305,-13.571532,11.36767
1586955567969,-4.3155484,-10.556035,6.5840545
1586955568019,5.7029886,-14.13417,-4.0761285
1586955568071,-11.771092,0.89782566,18.130093
1586955568121,7.854179,-25.011028,1.4784195
1586955568173,0.50038815,-5.5018754,1.3000516
1586955568223,1.2006922,-9.451111,0.05865794
1586955568274,1.5119383,-8.542512,-0.7110779
1586955568327,0.1352724,-7.8865004,-1.8088194
1586955568377,0.81163436,-9.030929,-2.1152773
1586955568427,3.2010477,-9.642648,-0.011971008
1586955568479,0.25617957,-11.432313,1.8327614
1586955568528,3.21661,-11.816583,0.08020575
1586955568580,1.5358804,-12.151771,1.6555905
1586955568632,3.1004913,-13.947422,0.44532153
1586955568682,1.6472107,-14.05157,-2.4432828
1586955568733,-9.036914,-14.853627,-5.5030727
1586955568782,-0.039504327,-14.140155,1.9428947
1586955569007,-0.039504327,-14.140155,1.9428947
1586955569058,4.829105,-15.004462,-0.35314476
1586955569109,-3.004723,-13.491326,-3.4440591
1586955569160,-7.9786773,-14.033613,-6.6654577
1586955569212,-0.19512744,-15.028404,2.3259668
1586955569264,2.445677,-8.024167,-2.1320367
1586955569315,0.30047232,-5.197812,-0.46926352
1586955569367,-1.7824832,-2.6132712,0.5482722
1586955569417,-1.0941502,-1.033098,0.18914193
1586955569469,-0.81163436,-3.9719806,2.3678656
1586955569519,-1.8255788,-13.587094,11.416751
1586955569571,-1.1504139,-12.776657,9.301474
1586955569621,-6.8869214,-6.405687,2.0147207
1586955569673,-0.19871874,-27.419596,12.140997
1586955569723,-9.82341,3.7098155,5.0625396
1586955569774,9.903615,-22.06616,-5.4563856
1586955569826,-0.05267244,-6.0238113,1.7393875
1586955573009,-0.36391866,-5.243302,1.1133038
1586955573061,-0.5506664,-39.221813,4.985925
1586955573108,-7.0605006,10.8708725,-16.905458
1586955573159,8.310274,-15.8544035,-13.1477585
1586955573211,3.3782187,-8.622718,1.1911154
1586955573263,-0.5363012,-7.789535,-1.2354081
1586955573314,-0.23104046,-8.64666,-2.0458453
1586955573365,0.19991584,-8.207323,-1.9045875
1586955573417,2.9245174,-9.306262,-1.6340426
1586955573467,1.6184803,-10.559627,1.0139444
1586955573519,0.62847793,-11.620258,0.8858546
1586955573569,2.2098482,-11.221623,-0.8762778
1586955573621,2.19668,-13.523648,0.7314286
1586955573671,4.4603977,-14.745889,-1.198298
1586955573723,-3.8857894,-11.549629,-3.8474822
1586955573772,-6.6522894,-13.844471,-4.8003745
1586955573825,0.32561144,-14.308947,1.4317327
1586955573875,2.2266076,-10.111911,-1.7046716
1586955573926,0.075417355,-6.0848637,0.40821138
1586955573978,-1.7908629,-3.4332852,-0.22984336
1586955574029,-1.1480197,-1.4065934,-0.34715924
1586955574080,-0.5351041,-4.048595,1.3862427
1586955574129,-1.7202339,-9.106346,5.6419363
1586955574181,-1.7381904,-15.277401,11.293449
1586955574232,-3.4332852,-3.7098155,3.0561984
1586955574284,-3.2848446,-24.398113,7.548918
1586955574333,-3.2920272,14.417883,-23.69781
1586955576015,2.6252422,-11.160571,0.33638534
1586955576066,1.4389153,-13.332112,2.2601264
1586955576117,4.285621,-13.866019,-1.5490485
1586955576168,-6.4248405,-13.36204,-4.1934443
1586955576219,-2.6791117,-16.42542,-0.9828198
1586955576267,1.2186487,-13.561955,-2.111686
1586955576319,0.6979098,-7.2364745,-2.5342624
1586955576371,-0.439336,-4.2413282,-0.31004912
1586955576422,-1.8734628,-2.207454,-0.5734113
1586955576474,-1.8231846,-2.9592333,-0.62368953
1586955576524,-1.70946,-6.6079965,2.7234044
1586955576576,-2.5031378,-21.884201,15.969325
1586955576626,-0.35913026,-10.461464,6.9527617
1586955576678,-2.0925324,-4.3634324,5.3007627
1586955576728,-1.6591818,-24.235306,5.7484784
1586955576780,-7.48188,7.098808,-11.729194
1586955576830,6.919243,-14.587871,-9.405622
1586955579010,7.9511437,-18.806454,-2.885013
1586955579061,-4.525041,-6.703765,1.4903905
1586955579112,-5.783194,-26.24045,13.333309
1586955579163,0.10414778,18.61013,-24.253263
1586955579215,4.724957,-16.964117,-11.914744
1586955579267,1.6484078,-8.1558485,1.7405846
1586955579316,-0.17357962,-6.619968,0.82480246
1586955579368,2.19668,-10.996569,-0.9648633
1586955579416,-1.4508862,-8.153454,-0.107739076
1586955579468,3.1986535,-9.23683,0.11611878
1586955579519,1.436521,-7.9810715,-1.1827357
1586955579571,0.6452374,-10.14543,0.6919243
1586955579620,1.2186487,-11.042058,0.21068975
1586955579672,1.9369092,-12.385205,-1.1875241
1586955579724,3.2369606,-14.7877865,-0.260968
1586955579774,2.3906105,-15.2570505,-0.7445967
1586955581011,-4.698621,-11.896789,-5.768829
1586955581063,-4.3059716,-14.662091,10.308235
1586955581110,-3.858256,-5.2636523,3.0178912
1586955581161,-6.7492547,-15.857995,8.033744
1586955581212,3.5182793,6.9767036,-19.954473
1586955581264,6.8306575,-13.661315,-8.524555
1586955581315,4.0294414,-12.65575,3.3746274
1586955581367,-2.6539726,-5.9747305,1.6124948
1586955581419,0.8822633,-10.144233,-1.1001357
1586955581469,0.82121116,-8.4826565,-0.008379706
1586955581521,1.5251064,-8.848969,-0.415394
1586955581570,1.1731589,-9.147048,-2.0829554
1586955581624,0.7314286,-8.92319,-0.45729253
1586955581674,-0.07062895,-9.974244,-0.34476504
1586955581724,2.5570073,-10.0987425,-0.90979666
1586955581776,0.7661445,-10.323798,-0.11133038
1586955581825,4.1539397,-14.481329,-1.9871874
1586955581876,-4.5765166,-16.910246,-3.9001546
1586955581927,-5.0745106,-11.597513,-4.0138793
1586955581978,1.3000516,-12.070368,-1.0749966
1586955582029,-0.22984336,-9.758766,-3.2154129
1586955582081,-3.1543608,-8.668207,-1.2449849
1586955582129,0.4165911,-8.495825,-1.079785
1586955582181,-2.183512,-4.408922,-0.22505496
1586955582233,-0.32441434,-5.8346696,2.5091233
1586955582282,-1.4329298,-10.271125,-1.1599907
1586955582334,-4.5621514,-15.052346,1.5945383
1586955582386,0.81761986,-4.819528,-5.1918263
1586955582436,2.135628,-14.135366,0.11492168
1586955585012,0.32800564,-8.821436,-2.670732
1586955585063,0.36870706,-9.498995,-2.835932
1586955585114,0.35553896,-9.552865,-2.7856536
1586955585163,0.4417302,-9.519346,-2.7736826
1586955585215,0.4285621,-9.599552,-2.7042508
1586955585266,0.34955344,-9.507375,-2.7449522
1586955585318,0.40102878,-9.543288,-2.7724855
1586955585368,0.2669535,-9.576807,-2.731784
1586955585420,0.32680854,-9.561244,-2.6994624
1586955585470,0.4285621,-9.548077,-2.742558
1586955585522,0.5650316,-9.609129,-2.7461493
1586955585572,0.094570965,-9.5013895,-2.681506
1586955585623,0.34596214,-9.466674,-2.8203697
1586955585673,0.23702596,-9.55885,-2.7257986
1586955585725,0.37229836,-9.569624,-2.8658595
1586955585774,0.2657564,-9.392453,-2.7760768
1586955586017,0.39624038,-9.548077,-2.767697
1586955586068,0.260968,-9.543288,-2.7377696
1586955586119,0.33758244,-9.586384,-2.6994624
1586955586169,0.31124622,-9.580399,-2.6431987
1586955586221,0.33518824,-9.572019,-2.6036944
1586955586273,0.23463176,-9.607931,-2.6396074
1586955586324,0.33279404,-9.552865,-2.7114334
1586955586374,0.2741361,-9.607931,-2.6420016
1586955586426,0.34596214,-9.55047,-2.5965118
1586955586476,0.39743748,-9.591172,-2.6420016
1586955586528,0.2801216,-9.630676,-2.682703
1586955586578,0.25617957,-9.554062,-2.7269957
1586955586629,0.47644615,-9.635465,-2.6862943
1586955586681,0.18076223,-9.627085,-2.585738
1586955586731,0.19153613,-9.787497,-3.0573955
1586955588010,0.9528923,-12.018892,-3.2968156
1586955588061,5.3366756,0.8822633,8.608353
1586955588110,4.748899,1.602918,7.789535
1586955588161,4.703409,0.9935937,8.690952
1586955588213,5.183447,1.7896658,8.1343
1586955588265,4.5741224,0.8475474,7.8637557
1586955588314,4.882974,1.2485762,8.383297
1586955588365,5.2636523,0.59136784,8.707711
1586955588416,4.209007,2.079364,7.9726915
1586955588467,5.2959743,0.8343793,10.29387
1586955588518,4.879383,1.8782512,8.173804
1586955588570,4.9643774,1.3934253,9.001001
1586955588617,2.9041667,1.0773908,9.805453
1586955588668,0.35793316,1.5071499,9.386468
1586955588722,-0.78170687,0.4225766,10.596737
1586955588771,-1.3503298,0.51355624,10.466252
1586955588822,-0.9540894,0.8738836,9.414001
1586955588873,-0.78769237,0.9900024,8.9279785
1586955588924,0.48003745,-0.52073884,6.5684924
1586955588975,-1.8339585,1.1408371,8.35337
1586955589026,-1.7190368,2.777274,9.405622
1586955589077,-0.18315643,-0.29807812,8.050503
1586955589125,3.1794999,2.8095956,19.574993
1586955589176,-1.1492168,-0.5602432,7.4723034
1586955589227,1.7669208,0.49440265,17.604565
1586955589278,0.22864626,2.6013002,9.742006
1586955589328,-3.751714,2.4756045,9.604341
1586955589379,-1.6627731,2.3199813,10.04607
1586955589430,-0.60214174,0.7290344,7.382521
1586955589481,-1.0845734,0.7218518,9.297882
1586955589532,-1.5454572,1.1899183,9.105149
1586955589583,-1.3024458,1.3227965,9.423578
1586955589631,-1.1348516,1.258153,9.700109
1586955589682,-0.9923966,1.0690111,9.557653
1586955589733,-0.7015011,0.79487497,9.603143
1586955589784,-0.8738836,1.1264719,9.55047
1586955589835,-0.2885013,1.0426749,10.147824
1586955589885,-0.4405331,1.3503298,9.463082
1586955589936,-0.24779987,1.4628572,9.660604
1586955589987,-0.4321534,1.5502456,9.503783
1586955590040,-0.1412579,1.3910311,9.775525
1586955590090,-0.1412579,1.3910311,9.775525
1586955590141,-0.1412579,1.3910311,9.775525
1586955590194,-0.1412579,1.3910311,9.775525
1586955590243,-0.1412579,1.3910311,9.775525
1586955590295,-0.1412579,1.3910311,9.775525
1586955590344,-0.1412579,1.3910311,9.775525
1586955590394,-0.1412579,1.3910311,9.775525
1586955590445,-0.1412579,1.3910311,9.775525
1586955590496,-0.1412579,1.3910311,9.775525
1586955590547,-0.1412579,1.3910311,9.775525
1586955590598,-0.1412579,1.3910311,9.775525
1586955590647,-0.1412579,1.3910311,9.775525
1586955590698,-0.1412579,1.3910311,9.775525
1586955590749,-0.1412579,1.3910311,9.775525
1586955590799,-0.1412579,1.3910311,9.775525
1586955590850,-0.1412579,1.3910311,9.775525
1586955590901,-0.1412579,1.3910311,9.775525
1586955590952,-0.1412579,1.3910311,9.775525
1586955591003,-0.1412579,1.3910311,9.775525
1586955591054,-0.1412579,1.3910311,9.775525
1586955591105,-0.1412579,1.3910311,9.775525
1586955591154,-0.1412579,1.3910311,9.775525
1586955591204,-0.1412579,1.3910311,9.775525
1586955591255,-0.1412579,1.3910311,9.775525
1586955591306,-0.1412579,1.3910311,9.775525
1586955591357,-0.1412579,1.3910311,9.775525
1586955591408,-0.1412579,1.3910311,9.775525
1586955591459,-0.1412579,1.3910311,9.775525
1586955591510,-0.1412579,1.3910311,9.775525
1586955591561,-0.1412579,1.3910311,9.775525
1586955591612,-0.1412579,1.3910311,9.775525
1586955591661,-0.1412579,1.3910311,9.775525
1586955591712,-0.1412579,1.3910311,9.775525
1586955591763,-0.1412579,1.3910311,9.775525
1586955591814,-0.1412579,1.3910311,9.775525
