@ HyperIMU -ianovir - 2018
@ Date:Wed Apr 15 15:01:48 GMT+02:00 2020, Sampling Rate:50ms

timestamp,K6DS3TR_Accelerometer.x,K6DS3TR_Accelerometer.y,K6DS3TR_Accelerometer.z
1586955708066,0.0,0.0,0.0
1586955708116,-0.44651863,1.8722657,9.639056
1586955708167,-1.0570401,1.377863,9.712079
1586955708218,-0.5422867,1.5370775,9.765948
1586955708269,-0.712275,1.283292,10.04607
1586955708320,-0.9588778,1.0618285,9.564836
1586955708371,-0.49559975,1.1779473,9.5971575
1586955708422,-0.49919105,1.1133038,9.664195
1586955708472,-0.39504328,1.1097125,9.564836
1586955708523,-0.59855044,1.1336545,9.647436
1586955708574,-0.45370123,1.1779473,9.585187
1586955708623,-0.46686932,1.1791444,9.781511
1586955708674,-0.5530606,1.2892777,9.7084875
1586955708725,-0.49679685,1.22224,9.623494
1586955708860,-0.31483752,1.3036429,9.825804
1586955708911,-0.51954174,1.0714053,9.668983
1586955708962,-0.6380547,1.2665327,9.423578
1586955709014,-0.5566519,1.079785,9.28232
1586955709066,-0.7697359,1.0773908,9.4774475
1586955709117,-0.7074866,1.2114661,9.532514
1586955709170,-0.59974754,1.2210429,9.605537
1586955709216,-0.7589619,1.1719618,9.825804
1586955709268,-0.80564886,1.1360487,9.838972
1586955709321,-0.6631939,1.1348516,9.458294
1586955709370,-0.7493851,0.8487445,9.367314
1586955709422,-0.23343466,0.91458505,9.048885
1586955709475,-0.51954174,0.21906945,9.868899
1586955709525,-0.60573304,0.2717419,10.15381
1586955709575,-0.36750996,0.9900024,9.186552
1586955709627,0.17956513,1.3347675,9.425972
1586955709678,0.2885013,1.0151415,9.655815
1586955709728,0.17238252,1.091756,9.209297
1586955709780,0.15801731,1.1073183,9.193734
1586955709830,-0.7685388,0.82001406,9.587581
1586955709882,-0.24540567,1.271321,9.619903
1586955709932,-0.4321534,1.4101849,9.084799
1586955709984,-0.029927522,1.5059528,9.44752
1586955710034,-0.47046062,1.6352397,8.508993
1586955710086,-0.08619126,1.7717092,9.03452
1586955710136,1.3180081,1.198298,10.746374
1586955710188,0.7338228,0.46686932,13.23395
1586955710236,-0.60932434,-0.8451532,14.330494
1586955710289,0.58657944,-3.2082303,11.902774
1586955710339,1.7549498,-2.5462334,11.106702
1586955710391,-0.25498247,-1.9428947,10.326192
1586955710440,-1.8902222,-0.7685388,9.376891
1586955710492,-1.8351556,0.34237084,7.3322425
1586955710544,-0.7661445,0.81163436,6.2991447
1586955710594,-0.08619126,0.7086837,6.8689647
1586955710645,-1.0606314,1.258153,7.467515
1586955710696,-1.6184803,1.2749124,8.468291
1586955710745,-0.46926352,1.8866309,9.993398
1586955710796,0.11971009,2.1583729,11.341333
1586955710846,0.40462008,1.5179238,12.480973
1586955710919,1.3790601,-0.035913024,14.587871
1586955710964,0.6536171,-0.2801216,12.307394
1586955711010,1.3563153,0.8822633,9.629479
1586955711057,1.3383588,0.107739076,9.7240505
1586955711106,0.23582886,0.33518824,8.24204
1586955711156,1.0570401,0.88944596,6.9647326
1586955711207,0.090979666,1.2689269,6.256049
1586955711258,0.6356605,0.961272,7.1766195
1586955711309,0.78529817,1.3251907,7.3166804
1586955711358,0.8367735,1.8698715,8.275558
1586955711410,0.760159,2.3415294,10.263943
1586955711462,-0.59376204,1.5119383,12.381614
1586955711511,0.9995792,1.9369092,12.889185
1586955711563,-0.5590461,1.1348516,14.073117
1586955711615,-0.45130703,-0.90740246,10.955867
1586955711665,-1.6077064,0.39743748,10.160992
1586955711717,-2.2900538,0.62608373,8.159439
1586955711765,-0.521936,0.062249243,7.7679873
1586955711818,0.58897364,-0.4201824,7.4387846
1586955711868,0.037110128,0.82360536,6.96593
1586955711920,-0.19033903,0.93254155,8.2516165
1586955711970,-0.94092125,1.2485762,8.099585
1586955712022,-0.51235914,2.1164744,8.996213
1586955712072,-0.60693014,1.8195933,11.104307
1586955712124,-0.7457938,1.3850456,12.257115
1586955712174,0.6943185,0.46208093,13.700819
1586955712226,0.050278235,-0.415394,13.138182
1586955712274,0.35075054,0.9588778,10.269928
1586955712326,0.58538234,0.021547815,9.860519
1586955712378,0.1604115,0.48003745,7.4735007
1586955712428,0.21188685,1.1791444,6.603208
1586955712480,0.21068975,1.6196774,6.2740054
1586955712529,0.50038815,1.9081788,7.702147
1586955712581,0.40102878,2.3463178,9.287108
1586955712634,0.19632454,1.8507179,11.038467
1586955712683,-0.2873042,1.6065093,11.869255
1586955712734,0.045489833,1.3251907,12.052411
1586955712783,-1.2509704,1.1264719,12.72997
1586955712835,0.4441244,-1.1204864,12.066776
1586955712888,-0.18555063,-0.32441434,9.408015
1586955712938,-0.81402856,-0.2741361,8.88608
1586955712988,-0.4297592,0.7134721,7.441179
1586955713040,0.2896984,0.59495914,7.0461354
1586955713089,0.9864111,1.0821792,7.309498
1586955713141,0.4309563,1.3323733,7.705738
1586955713192,-0.08020575,1.7537527,8.15106
1586955713243,0.22266077,2.2158337,9.210494
1586955713292,0.29568392,1.1695676,11.190498
1586955713344,0.7541735,0.8858546,12.257115
1586955713396,1.614889,0.29807812,13.543999
1586955713447,-0.02873042,-0.2837129,12.616246
1586955713498,0.21787235,-0.15442601,10.8469305
1586955713548,0.02633622,-0.6727707,9.5492735
1586955713600,-0.22026655,-0.32920274,7.4327993
1586955713650,0.19273324,0.15562311,6.6893997
1586955713703,1.0773908,1.471237,5.8933277
1586955713753,1.3012487,1.887828,7.5094137
1586955713804,1.0773908,1.8962077,9.091981
1586955713856,1.0737995,1.7178397,10.536881
1586955713906,0.14604631,0.8678981,12.388797
1586955713958,-0.25977087,0.1388637,12.799402
1586955714008,-0.79607207,-1.5753847,13.283031
1586955714062,-1.1336545,-1.8459295,11.693281
1586955714112,-1.5179238,-0.7649474,9.64145
1586955714162,-0.45609543,0.061052144,8.3821
1586955714212,0.11611878,1.0366893,6.7827735
1586955714264,0.24420857,1.4053963,6.908469
1586955714312,-0.08020575,1.4903905,7.964312
1586955714364,-0.760159,1.3455414,8.655039
1586955714416,-0.47884035,1.8303672,9.473856
1586955714467,-0.022744916,2.018312,10.070012
1586955714517,-0.2873042,1.2892777,12.173319
1586955714569,1.0845734,1.1073183,12.751518
1586955714618,1.0642227,-1.0845734,13.725958
1586955714670,0.9540894,-0.035913024,10.465055
1586955714722,0.82599956,-0.19393034,8.787917
1586955714772,0.61770403,-0.08379706,7.5082164
1586955714824,0.688333,0.31364042,6.716933
1586955714873,0.47165772,1.5693992,6.247669
1586955714925,0.34955344,1.910573,7.4723034
1586955714978,0.5686229,1.8148049,9.272743
1586955715028,0.33159694,1.5562311,10.473435
1586955715078,0.46088383,1.6220716,11.325771
1586955715130,0.56982,1.1552023,12.146982
1586955715180,0.049081136,0.59855044,12.4702
1586955715232,0.3842694,-1.5861586,12.284649
1586955715282,0.4441244,-0.6871359,9.635465
1586955715333,-0.6823475,-0.011971008,8.743625
1586955715384,-0.11372458,0.23104046,8.588001
1586955715434,0.4237737,0.44532153,7.9702973
1586955715485,0.51834464,1.0199299,7.338228
1586955715538,0.076614454,1.4053963,7.66384
1586955715588,0.32561144,1.4616601,8.550891
1586955715640,0.80086046,1.6807296,9.631873
1586955715690,1.0749966,0.89782566,11.881226
1586955715742,0.7278373,0.8475474,12.947843
1586955715792,2.2134395,0.866701,13.019669
1586955715844,1.400608,-0.5410896,12.559982
1586955715894,1.4927847,0.034715924,9.961076
1586955715947,1.8590976,-0.62847793,9.654618
1586955715997,1.5394717,-0.17717093,8.015787
1586955716047,1.4867992,0.5434838,6.979098
1586955716098,1.0570401,1.186327,6.3206925
1586955716150,1.3958195,1.7166426,7.1047935
1586955716200,1.4269443,1.9381063,8.526949
1586955716252,0.5446809,2.421735,9.57561
1586955716302,1.1348516,2.2182279,10.869676
1586955716354,1.9488802,1.3790601,12.386402
1586955716404,1.377863,1.2557588,12.814964
1586955716456,0.89543146,-1.2773066,13.654132
1586955716535,0.049081136,-1.1204864,9.959879
1586955716575,-0.80564886,-0.31004912,8.632295
1586955716621,-0.40222588,0.51834464,8.118738
1586955716669,-0.06464344,0.8798691,6.7241154
1586955716717,0.16639702,1.1731589,6.307524
1586955716768,0.017956512,1.7992426,6.0836663
1586955716818,0.35553896,0.90381116,8.517372
1586955716870,0.7517793,0.62368953,10.141838
1586955716920,0.5734113,1.0929531,11.475409
1586955716972,0.32920274,0.7350199,12.990938
1586955717022,2.1739352,1.271321,12.87482
1586955717074,2.327164,0.18315643,13.043611
1586955717124,2.6084828,0.5231331,10.776301
1586955717176,2.5450363,0.2873042,9.619903
1586955717226,1.6891093,-0.4405331,8.815451
1586955717278,1.3491327,0.49200845,6.63553
1586955717328,1.3263878,1.0761937,6.042965
1586955717379,1.1444284,1.7070658,6.2021794
1586955717430,1.2797008,1.7944542,7.2951326
1586955717483,1.567005,2.0147207,8.358158
1586955717533,1.5610195,2.36188,9.338584
1586955717583,1.3862427,1.8794483,11.398794
1586955717635,1.447295,1.8255788,13.010092
1586955717685,0.92176765,1.3443443,14.978126
1586955717737,1.6065093,-2.3451207,14.31972
1586955717787,1.067814,0.23463176,8.617929
1586955717839,0.7733272,0.7170634,5.5377884
1586955717887,1.328782,0.91338795,6.1566896
1586955717939,0.93852705,0.7338228,7.135918
1586955717991,0.78050977,0.9792285,8.295909
1586955718041,0.45250413,0.641646,9.376891
1586955718092,0.5422867,1.3323733,8.856153
1586955718144,0.8595184,2.27928,9.923966
1586955718194,0.4357447,2.1990743,12.306197
1586955718247,1.2485762,1.9201498,13.56435
1586955718297,2.6204538,-0.6368576,15.125369
1586955718348,2.0769699,0.88944596,9.733627
1586955718398,2.7341783,-0.36152446,10.011354
1586955718450,1.7393875,-0.20470424,8.394072
1586955718500,1.8351556,0.24301147,7.1885905
1586955718552,1.6795325,0.82240826,6.191406
1586955718602,1.602918,1.472434,6.953959
1586955718654,1.6915035,2.2541409,7.961918
1586955718704,1.1336545,2.944868,9.151836
1586955718756,1.4041992,3.1543608,10.418368
1586955718806,1.1575965,1.9536686,12.225991
1586955718859,0.23942018,2.4480712,12.51928
1586955718904,-0.18435353,0.47165772,13.119028
1586955718958,0.9576807,-1.3347675,10.82658
1586955719010,-0.1388637,-0.35075054,8.625112
1586955719060,-0.34476504,-0.025139118,8.696938
1586955719112,0.33638534,0.8762778,7.129933
1586955719162,0.8487445,1.0462662,6.92044
1586955719214,0.82480246,1.2653356,7.4687123
1586955719264,0.48482585,1.1947067,8.303091
1586955719316,0.6607997,1.543063,8.723274
1586955719367,1.365892,2.4253263,9.399636
1586955719416,1.13964,1.9907787,11.452663
1586955719466,1.0773908,1.6256629,12.310986
1586955719517,1.8650831,0.22744916,13.425486
1586955719568,1.5993267,0.32321724,11.963826
1586955719620,1.210269,0.79128367,10.564415
1586955719672,0.6931214,-0.23582886,9.856929
1586955719724,0.89543146,0.36152446,7.1263413
1586955719774,0.961272,0.8774749,6.1806316
1586955719826,0.6967127,1.7729063,5.8454432
1586955719876,0.93732995,2.2697031,6.5984197
1586955719928,1.6484078,1.6196774,10.127473
1586955719979,0.80564886,1.340753,10.9103775
1586955720033,0.7565677,1.7070658,10.341754
1586955720090,0.91697925,1.827973,11.443087
1586955720138,0.79487497,0.6835446,14.083892
1586955720185,-0.7266402,-2.4480712,14.338874
1586955720235,-0.5793968,-1.30484,11.092337
1586955720285,-0.9696517,-0.48722005,9.349358
1586955720335,-1.6962919,0.9816227,7.1407065
1586955720387,-0.63206923,0.9528923,6.9707184
1586955720436,-0.11372458,0.9935937,7.132327
1586955720488,0.22744916,1.0199299,7.9188223
1586955720538,0.37229836,0.985214,8.367735
1586955720590,0.81163436,2.0697873,8.090008
1586955720640,0.9947908,2.219425,9.866506
1586955720692,0.545878,1.8734628,11.4837885
1586955720742,2.4899697,2.086547,12.644977
1586955720794,2.0290859,-0.44651863,14.41908
1586955720844,1.6927006,0.35434186,11.603498
1586955720896,1.423353,-0.08738836,10.149021
1586955720944,1.0582372,0.073023155,8.534132
1586955720997,1.0390835,0.48482585,7.229292
1586955721047,0.664391,1.1432313,6.0501475
1586955721099,0.7661445,1.8303672,6.51582
1586955721149,0.51834464,1.8363527,8.043321
1586955721200,0.24899697,1.7812861,9.824607
1586955721252,0.5674258,1.7130513,11.153389
1586955721303,0.9876082,1.7932571,12.066776
1586955721353,0.051475335,1.3742718,13.275848
1586955721404,0.5530606,-1.2892777,13.532028
1586955721454,0.9947908,-0.6931214,10.392033
1586955721506,-0.051475335,-0.47405192,9.0237465
1586955721558,0.37588966,0.8283938,7.321469
1586955721607,1.2138603,1.1552023,6.75524
1586955721659,1.532289,1.3299791,7.381324
1586955721709,1.3455414,1.3275849,8.244433
1586955721761,0.89782566,1.484405,8.725668
1586955721811,0.8487445,2.4552538,8.6574335
1586955721863,1.2186487,2.7844565,9.81503
1586955721913,1.2330139,2.2170308,11.660959
1586955721965,2.219425,2.3415294,12.576741
1586955722015,1.8950106,-0.12808979,14.580688
1586955722067,1.757344,0.320823,11.765107
1586955722117,2.4361002,0.11252748,10.313024
1586955722169,1.9752164,0.24301147,8.191761
1586955722219,1.3874398,1.0235212,6.4308257
1586955722271,1.0749966,1.3922282,6.161478
1586955722322,1.174356,1.6412252,6.542156
1586955722372,1.3670892,1.7022774,7.6614456
1586955722424,1.0031705,2.0159178,8.497022
1586955722472,0.78769237,2.6300306,9.190144
1586955722524,0.7757214,2.5115175,9.920375
1586955722585,1.0079589,1.9452889,11.291056
1586955722631,0.33399114,3.0071173,12.182896
1586955722681,-0.24301147,-0.4165911,14.797363
1586955722732,1.1887212,-1.2653356,11.098322
1586955722781,1.0833763,-0.34596214,9.248801
1586955722832,-0.8702923,1.412579,7.8493905
1586955722882,-0.7565677,2.1092918,7.314286
1586955722932,0.49679685,1.910573,7.004237
1586955722984,1.2018893,1.9931729,7.135918
1586955723033,1.2401965,1.9333179,8.01459
1586955723086,0.8379706,2.6408045,7.953538
1586955723136,1.6986861,3.787627,8.644265
1586955723189,1.4640543,2.8287494,11.669339
1586955723239,1.6555905,2.4289176,11.86327
1586955723288,2.6180596,1.7010803,12.650962
1586955723340,2.3774424,0.12210429,12.591106
1586955723392,1.9812019,0.5518635,9.921572
1586955723442,1.9800048,-0.44532153,9.862914
1586955723494,1.0941502,-0.17717093,8.347384
1586955723544,0.78888947,0.3172317,7.3729444
1586955723596,0.8403648,0.65242,6.6187706
1586955723646,0.51714754,1.2916719,7.129933
1586955723698,0.40701428,1.7717092,8.801085
1586955723749,-0.046686932,1.6376339,10.635044
1586955723799,-0.37349546,1.6172832,11.767501
1586955723851,0.63087213,2.3223755,12.132617
1586955723901,-0.29927522,1.4532804,15.568296
1586955723953,-0.79128367,-2.0745757,12.999318
1586955724001,0.94451255,-0.07182605,8.883685
1586955724053,0.24779987,0.45250413,7.4208283
1586955724105,0.17357962,0.830788,7.157466
1586955724155,0.37349546,0.78888947,6.793547
1586955724207,0.15322891,0.8475474,6.9407907
1586955724257,-0.023942016,0.79008657,8.076839
1586955724310,0.16400282,1.292869,9.003395
1586955724360,0.79128367,2.2505496,9.743204
1586955724410,0.89064306,2.0147207,11.856087
1586955724463,1.6998832,2.4277205,12.310986
1586955724509,2.7329812,0.6667852,13.699622
1586955724560,2.5821466,0.45370123,11.947066
1586955724612,2.2290018,0.3184288,10.104729
1586955724665,2.0925324,-0.7553706,9.8198185
1586955724715,1.3946224,0.1340753,6.7851677
1586955724767,1.4700398,1.0606314,5.995081
1586955724817,1.2689269,1.4197617,6.612785
1586955724869,1.1324574,1.6089035,8.112753
1586955724918,0.6751649,2.0745757,9.431957
1586955724969,0.3890578,2.585738,10.484209
1586955725019,-0.45489833,1.5059528,11.943475
1586955725071,0.7338228,1.4640543,13.195642
1586955725121,1.7322049,-2.2984335,15.239094
1586955725173,0.6356605,-0.7445967,10.329783
1586955725223,-0.41299978,0.4333505,8.426393
1586955725275,-0.8798691,0.32800564,8.470686
1586955725325,0.029927522,0.79248077,7.428011
1586955725377,0.5722142,1.2366052,6.7133417
1586955725428,0.50637364,1.7310078,7.668628
1586955725478,0.5386954,1.5634137,9.475053
1586955725530,0.60333884,2.7617116,9.077616
1586955725580,1.3479356,2.9005754,10.469844
1586955725632,1.3024458,2.493561,12.000936
1586955725682,2.468422,1.2629414,13.521255
1586955725734,2.0925324,0.007182605,12.613852
1586955725783,2.1535845,0.4237737,10.048465
1586955725834,2.348712,-0.12808979,9.076419
1586955725886,1.7908629,-0.16400282,8.507795
1586955725940,0.8714894,0.90859956,6.631939
1586955725990,0.60214174,1.7741034,5.9962783
1586955726041,0.92176765,2.337938,6.409278
1586955726093,1.0390835,2.3463178,8.294712
1586955726144,0.8475474,2.4468741,10.075998
1586955726195,0.6787562,2.1176715,11.632229
1586955726245,0.78529817,1.0785879,12.509704
1586955726297,-0.15801731,1.3826514,12.391191
1586955726347,-0.10654198,-1.3982137,13.558364
1586955726399,-0.094570965,-1.6041151,10.694899
1586955726449,-1.2437878,-0.7757214,9.351752
1586955726501,-0.81881696,0.47524905,7.8733325
1586955726549,0.033518825,1.0366893,6.7863646
1586955726601,0.7074866,1.3108255,6.766014
1586955726654,0.41180268,1.6555905,7.183802
1586955726704,0.2885013,1.6783354,8.451532
1586955726754,0.5674258,2.337938,8.883685
1586955726806,1.0582372,2.8335378,9.728839
1586955726856,0.93732995,2.4899697,11.733982
1586955726908,1.6962919,1.6101006,12.41633
1586955726959,1.7178397,0.11372458,13.247118
1586955727009,1.2916719,-0.47165772,11.930307
1586955727061,1.5933412,-0.05626374,10.253169
1586955727111,1.5358804,-0.62967503,10.283096
1586955727162,0.9636662,0.2633622,7.9487495
1586955727214,1.2593501,1.1623849,6.5265937
1586955727265,1.2509704,1.5095441,6.220136
1586955727316,1.5047557,2.111686,6.839037
1586955727366,1.769315,2.3020248,8.208521
1586955727419,1.4508862,2.5893292,9.664195
1586955727469,0.9911995,2.541445,11.523293
1586955727519,0.9935937,1.9081788,12.271481
1586955727571,0.10295067,1.827973,12.224793
1586955727621,-0.05267244,-0.9636662,12.7575035
1586955727673,0.19033903,-1.4221559,10.627861
1586955727723,-1.103727,-0.24420857,8.463503
1586955727775,-0.36870706,0.22026655,8.771158
1586955727825,0.47285482,0.5434838,7.880515
1586955727877,0.9923966,1.258153,7.1167645
1586955727927,0.81642276,1.8411411,7.491457
1586955727979,0.6907272,1.6531962,8.412027
1586955728029,0.9672575,2.6479871,8.457518
1586955728081,1.3180081,3.0059202,8.823831
1586955728131,1.2725182,2.1799207,10.520123
1586955728183,2.3199813,1.6986861,12.002133
1586955728233,1.3634979,1.4425066,13.332112
1586955728285,1.5741876,-0.21428105,12.843695
1586955728335,1.5071499,0.4225766,10.299856
1586955728388,0.59495914,-0.52073884,9.44752
1586955728438,0.92176765,0.17597382,6.4068837
1586955728488,0.9911995,0.90620536,5.7544637
1586955728540,0.8810662,1.3491327,6.6965823
1586955728588,0.7170634,1.8267759,7.523779
1586955728640,0.7254431,1.6927006,9.600749
1586955728692,0.20111294,1.7776948,10.193314
1586955728742,0.63206923,1.9093759,10.753557
1586955728794,1.1611878,1.5610195,11.9853735
1586955728845,1.1264719,1.5478514,13.166912
1586955728895,1.3215994,-3.107674,14.294581
1586955728947,0.47285482,-2.2625206,10.104729
1586955728997,-0.48602295,-0.4177882,8.112753
1586955729049,-0.44532153,0.82480246,7.404069
1586955729098,-0.05865794,0.7098808,7.587225
1586955729150,0.055066638,1.4401124,7.1849995
1586955729200,0.08499416,1.5729905,7.7727757
1586955729252,-0.12569559,1.5239093,8.966286
1586955729302,0.7637503,2.0494366,9.205706
1586955729353,1.352724,1.3024458,11.449073
1586955729405,0.62608373,0.60812724,12.712014
1586955729455,1.4975731,0.5614403,13.056779
1586955729507,1.6304513,0.34476504,11.907562
1586955729558,1.6400281,0.08259996,10.449493
1586955729608,1.4041992,-0.25737667,8.331821
1586955729660,1.0737995,0.2873042,6.631939
1586955729711,0.6344634,0.8475474,6.417658
1586955729761,0.34596214,1.3922282,6.885724
1586955729813,0.050278235,1.638831,8.37372
1586955729863,0.038307227,1.5526398,9.977836
1586955729915,-0.32202014,1.6819267,10.110714
1586955729964,0.24540567,1.5298948,10.365696
1586955730015,0.62249243,1.6938977,11.03727
1586955730067,-0.34117374,0.061052144,12.76349
1586955730115,0.842759,-1.6555905,13.110648
1586955730167,0.19991584,-0.44651863,9.640253
1586955730219,0.095768064,0.21308395,8.762778
1586955730269,0.6715736,1.553837,6.7767878
1586955730321,1.067814,1.4305356,7.2723875
1586955730370,0.7577648,1.7836803,7.8984714
1586955730422,0.23702596,1.6448165,8.63828
1586955730475,0.19871874,2.2278047,8.882488
1586955730525,0.80325466,2.8742392,10.658986
1586955730575,0.46926352,2.421735,11.348516
1586955730627,1.8423382,3.6272156,11.195287
1586955730677,1.3108255,1.3575124,12.50731
1586955730729,1.6555905,1.1444284,10.3214035
1586955730779,1.1563994,-0.3878607,10.631453
1586955730831,0.62967503,-0.21906945,8.911219
1586955730880,0.6607997,-0.029927522,7.867347
1586955730932,0.5255273,0.92176765,6.573281
1586955730984,0.41299978,1.6101006,6.353014
1586955731034,0.30526072,1.9572599,7.735666
1586955731086,0.545878,1.8986019,9.604341
1586955731135,-0.022744916,1.423353,10.970232
1586955731188,0.37828386,0.7218518,12.35887
1586955731238,-1.2976574,0.19273324,14.7315235
1586955731288,-0.48482585,-3.3135753,14.305355
1586955731340,0.062249243,-2.2146366,11.596316
1586955731390,-0.62009823,-0.7158663,8.614338
1586955731442,-0.11611878,0.30286652,7.321469
1586955731494,0.22385786,0.7553706,6.945579
1586955731543,0.1592144,0.8451532,7.135918
1586955731597,-0.3866636,1.2725182,7.845799
1586955731663,0.320823,1.9919758,8.553286
1586955731695,0.6691794,1.7298107,9.664195
1586955731746,0.34955344,1.0785879,12.149377
1586955731797,1.0390835,1.7537527,13.266272
1586955731848,2.0003555,-1.0079589,14.615404
1586955731899,2.208651,-0.18076223,11.026496
1586955731950,2.2122424,-0.44771573,9.883265
1586955732002,1.2773066,-0.5243302,7.9846625
1586955732051,1.0773908,-0.2896984,6.5098343
1586955732103,0.8607155,0.22385786,5.783194
1586955732151,0.25857377,1.3299791,6.221333
1586955732204,0.25258827,1.553837,8.202535
1586955732253,-0.15442601,1.2964603,10.13705
1586955732304,0.23343466,1.2258313,11.431116
1586955732355,0.7302315,0.20949265,13.198037
1586955732407,-0.24061728,0.50158525,13.157335
1586955732468,-0.842759,-1.1935096,12.266692
1586955732515,0.1592144,-0.8439561,9.637859
1586955732566,0.055066638,-0.8391677,8.591593
1586955732618,0.009576807,-0.3842694,8.274361
1586955732666,0.7110779,0.38067806,6.8342485
1586955732718,0.9876082,1.0702082,6.871359
1586955732770,0.32680854,1.4030021,7.4974427
1586955732821,0.19752164,1.5634137,8.744822
1586955732871,0.40222588,1.9189527,9.5385
1586955732922,0.49440265,1.5167267,10.928333
1586955732974,-0.2896984,1.0941502,12.209231
1586955733024,0.8858546,1.1109096,11.848905
1586955733076,1.1192893,-1.8231846,12.61864
1586955733126,1.9560628,-0.90979666,9.885659
1586955733179,1.4413095,-0.94690675,10.004171
1586955733228,0.5530606,-0.4381389,9.877279
1586955733281,0.4429273,0.6931214,8.007407
1586955733332,0.6991069,1.1887212,7.064092
1586955733382,1.3024458,0.8619126,7.515399
1586955733432,1.1456255,0.8607155,8.597578
1586955733484,0.41299978,1.340753,9.406818
1586955733535,0.10414778,1.353921,10.837354
1586955733585,0.1316811,0.89303726,11.9853735
1586955733638,-0.6332663,0.5722142,12.905944
1586955733684,-2.019509,-1.1384429,11.948263
1586955733735,0.7026982,-1.7357962,10.759542
1586955733786,-0.110133275,-0.36870706,9.309854
1586955733839,0.25139117,0.130484,8.850166
1586955733891,0.46806642,0.961272,7.1071877
1586955733940,0.4141969,1.4820108,6.88333
1586955733992,0.28491,1.5885528,7.813477
1586955734044,0.019153614,1.9165585,8.402451
1586955734094,0.5722142,2.4875755,9.143456
1586955734147,0.5279215,1.7465701,11.36767
1586955734193,0.5805939,1.7908629,11.68131
1586955734244,2.1260512,1.1923125,12.653356
1586955734296,1.2066777,-0.2813187,13.055582
1586955734349,1.6843209,-0.37349546,11.036073
1586955734399,1.769315,-0.5710171,9.563639
1586955734451,1.3132197,-0.15322891,8.243237
1586955734501,0.7673417,0.7793127,6.8462195
1586955734553,0.19393034,1.6627731,6.2345014
1586955734603,0.12090719,2.0159178,7.1550717
1586955734655,0.5722142,1.7010803,8.990228
1586955734703,0.7314286,1.7992426,9.850943
1586955734755,0.25737667,1.7441759,11.052833
1586955734807,0.8391677,1.4197617,11.552023
1586955734858,-0.4249708,1.1204864,12.73835
1586955734908,-0.22505496,-0.81163436,11.869255
1586955734960,0.06703765,-0.47884035,10.399215
1586955735010,-1.2593501,-0.079008654,9.211691
1586955735062,-1.3347675,-0.035913024,9.216479
1586955735111,-0.12210429,0.62368953,7.3549876
1586955735161,0.21906945,1.1444284,6.5924344
1586955735213,0.075417355,1.6723499,6.8043213
1586955735263,-0.0047884034,1.9405005,7.7368627
1586955735315,0.45370123,2.2230163,9.048885
1586955735365,0.32680854,2.267309,11.279084
1586955735418,0.6584055,2.4863784,12.667721
1586955735468,1.4951789,1.0127473,13.693637
1586955735518,2.086547,0.37588966,13.117831
1586955735570,1.8136078,0.18674773,11.098322
1586955735619,1.5897499,-0.1364695,9.192537
1586955735671,1.270124,0.21188685,7.2185183
1586955735720,0.8475474,0.9636662,5.886145
1586955735772,0.7541735,1.5286977,5.99149
1586955735822,1.0139444,1.8339585,7.345411
1586955735874,0.92176765,2.1080947,8.671799
1586955735924,0.5650316,2.2062569,10.132261
1586955735976,0.044292733,1.7322049,11.562798
1586955736027,0.142455,1.6041151,11.753136
1586955736077,-0.18435353,0.80445176,12.158954
1586955736130,0.39145198,-1.198298,11.403583
1586955736180,-0.15801731,-0.81761986,10.873267
1586955736232,-1.1719618,0.074220255,9.799467
1586955736282,-0.20350714,1.3251907,7.657854
1586955736333,0.39264908,1.4449008,7.433996
1586955736385,0.48123455,2.0374656,7.314286
1586955736436,0.19512744,2.2505496,8.418014
1586955736487,0.34715924,2.574964,9.03452
1586955736538,1.1851299,2.6132712,10.3226
1586955736588,0.4369418,2.1775265,11.632229
1586955736640,1.6400281,2.801216,10.9343195
1586955736690,1.6687586,0.48841715,13.080721
1586955736742,1.1228806,0.6512229,10.472239
1586955736791,1.9752164,0.20111294,9.892841
1586955736842,1.1504139,0.36152446,8.176199
1586955736894,0.4201824,0.9876082,6.063316
1586955736946,0.6488287,1.3227965,5.6922145
1586955736996,0.33039984,1.6184803,7.3346367
1586955737048,0.48722005,1.6256629,9.791088
1586955737098,0.010773907,1.8674773,10.785878
1586955737150,-0.05746084,1.9931729,11.336545
1586955737200,0.92655605,1.7381904,11.537658
1586955737252,-0.10295067,0.9672575,12.556391
1586955737302,-0.17717093,-1.472434,11.938686
1586955737354,1.0402806,-0.8774749,10.441113
1586955737405,-1.8351556,0.30406362,9.385271
1586955737457,-1.0151415,0.6919243,8.573636
1586955737507,-0.23582886,0.961272,7.526173
1586955737557,-0.11971009,1.1456255,7.3406224
1586955737609,-0.1604115,1.4820108,8.305486
1586955737659,-0.1376666,1.6950948,9.010578
1586955737711,0.60453594,1.9548657,10.00896
1586955737758,0.4213795,1.7046716,11.804611
1586955737810,1.7286136,2.0362685,11.997345
1586955737862,1.4903905,0.06344634,13.229161
1586955737914,1.4975731,1.0426749,10.395624
1586955737964,1.5825673,0.58657944,9.585187
1586955738016,1.4568717,0.23104046,9.239224
1586955738065,1.0235212,0.51475334,7.7943234
1586955738116,0.7338228,1.6759412,6.2752028
1586955738168,0.21188685,2.2349873,6.5481415
1586955738220,0.58897364,2.0530279,8.194156
1586955738268,0.7074866,1.9895816,9.083601
1586955738321,0.6404489,1.5825673,10.414778
1586955738370,1.4939818,1.1528081,11.415554
1586955738421,1.0271125,2.0326772,11.6585655
1586955738471,-0.16639702,-0.51355624,13.358448
1586955738523,0.23104046,-0.7469909,11.552023
1586955738575,-0.19871874,-0.33399114,10.38485
1586955738627,-0.31364042,0.9636662,8.439561
1586955738678,0.29807812,1.2354081,7.5584946
1586955738728,0.65242,1.508347,7.243657
1586955738781,0.6787562,1.6172832,7.53575
1586955738830,0.59735334,1.8243817,8.020576
1586955738882,0.6931214,2.5198972,8.580819
1586955738931,0.5566519,2.3331497,10.151415
1586955738982,0.7170634,2.3702598,11.33056
1586955739042,1.0163386,1.4209588,13.182474
1586955739089,1.0043676,1.6998832,11.727997
1586955739138,1.9728222,0.36990416,12.237962
1586955739188,1.2641385,-0.10534488,10.5045595
1586955739238,0.6955156,0.7781156,7.515399
1586955739290,0.82240826,1.5191209,6.5146227
1586955739340,0.48003745,1.9632454,6.4787097
1586955739392,0.37469256,1.9141643,7.606379
1586955739442,0.50996494,2.0973208,8.634688
1586955739493,0.70509243,2.4552538,9.591172
1586955739545,0.51834464,2.597709,10.15381
1586955739595,1.4293385,2.5127146,11.530476
1586955739648,-0.21428105,2.9640217,11.52449
1586955739698,-0.2717419,-0.008379706,11.113884
1586955739749,1.5562311,-0.0035913025,10.795456
1586955739800,-0.35793316,0.5363012,10.128671
1586955739850,-0.45729253,1.2066777,9.185355
1586955739902,0.1412579,1.4808137,7.515399
1586955739952,0.45370123,1.4640543,7.563283
1586955740004,0.19991584,1.9093759,7.765593
1586955740054,0.025139118,1.7190368,8.516175
1586955740106,0.4213795,2.219425,8.724471
1586955740157,1.0247183,2.3558946,9.981427
1586955740208,0.46567222,1.7609353,11.991359
1586955740258,1.8148049,2.8395233,11.479
1586955740310,2.2218192,0.5686229,14.107834
1586955740360,1.3491327,0.020350715,12.676101
1586955740412,1.8650831,0.61411273,9.065644
1586955740463,1.7022774,-0.090979666,9.279925
1586955740513,1.0426749,0.25378537,8.124723
1586955740565,0.9935937,1.3838485,6.203377
1586955740615,1.0809821,1.7154455,6.567295
1586955740667,1.4041992,2.0326772,7.5429325
1586955740717,0.90021986,1.9632454,8.817844
1586955740769,0.9840169,2.384625,9.442732
1586955740817,1.0283096,2.2625206,10.916363
1586955740869,0.90500826,2.2122424,12.245145
1586955740921,0.05746084,0.44651863,13.333309
1586955740972,1.2641385,-1.1767502,12.8927765
1586955741023,-0.30286652,-0.20350714,10.17416
1586955741074,-1.2545617,0.46567222,8.619126
1586955741123,-0.20350714,0.5710171,7.9427643
1586955741175,0.25498247,0.7673417,7.2209125
1586955741228,0.4297592,1.3982137,6.956353
1586955741278,0.18315643,1.5179238,7.339425
1586955741331,0.4165911,1.8183962,8.41921
1586955741381,0.94570965,2.6013002,9.362526
1586955741431,0.6823475,2.6024973,11.33894
1586955741482,0.39743748,2.337938,11.899182
1586955741534,1.6807296,0.8798691,12.768278
1586955741585,1.2006922,-0.110133275,12.514492
1586955741635,0.5614403,0.93732995,9.876082
1586955741687,0.9923966,-0.06823475,9.8437605
1586955741737,1.0833763,0.14604631,8.716091
1586955741789,0.8774749,1.0474633,7.004237
1586955741837,0.7266402,1.6208745,6.3793507
1586955741890,1.0522517,1.9895816,7.393295
1586955741939,1.0510546,1.7561469,9.27394
1586955741992,0.7445967,1.6412252,10.945093
1586955742042,0.78649527,1.0283096,12.108675
1586955742094,1.282095,1.697489,11.943475
1586955742144,-0.32680854,0.61650693,12.316971
1586955742196,1.0905589,-1.7130513,12.662932
1586955742246,-0.81642276,-0.21787235,9.198523
1586955742298,-0.6512229,0.25378537,9.118318
1586955742346,-0.108936176,0.2681506,8.53054
1586955742397,0.45609543,0.9876082,6.907272
1586955742449,0.78649527,1.4305356,6.7324953
1586955742502,0.7422025,1.271321,8.082825
1586955742552,0.80325466,1.5382746,9.200917
1586955742602,0.91099375,2.348712,9.902418
1586955742653,0.5793968,2.147599,12.030864
1586955742704,1.7932571,2.3953989,11.998542
1586955742756,1.447295,-0.260968,13.692439
1586955742807,1.9476831,0.3196259,11.056423
1586955742856,2.1883004,0.664391,9.65821
1586955742908,1.5239093,0.19512744,9.181764
1586955742960,1.3180081,0.4369418,7.836222
1586955743010,1.3575124,0.61052144,6.8330517
1586955743062,1.5693992,1.1623849,6.2141504
1586955743112,1.520318,1.6460136,6.777985
1586955743164,1.6699557,1.958457,8.939949
1586955743214,1.5179238,1.9895816,10.730812
1586955743267,1.435324,1.0714053,12.552799
1586955743317,1.353921,1.2030864,13.2985935
1586955743369,0.18914193,-0.021547815,12.76708
1586955743419,0.48482585,-0.6488287,10.629059
1586955743471,-0.7302315,-0.3854665,8.665813
1586955743521,0.33279404,-0.6476316,8.991425
1586955743573,0.09696517,0.30645782,7.2592196
1586955743623,0.2885013,1.1480197,6.609194
1586955743675,0.31483752,1.7010803,7.01142
1586955743725,0.6895301,1.7908629,8.093599
1586955743777,0.79128367,2.146402,9.387665
1586955743827,1.3503298,2.719813,10.33936
1586955743880,1.4808137,2.4025815,11.8094
1586955743930,2.1978772,2.2242134,12.489353
1586955743980,2.0649989,-1.3551182,15.749059
1586955744032,1.2761095,-0.0023942017,11.247959
1586955744082,1.8602947,0.15203181,9.233239
1586955744134,1.6699557,0.4333505,7.991845
1586955744184,1.4281414,0.90859956,6.896498
1586955744236,1.2270284,1.3587095,6.432023
1586955744287,1.2533646,1.99437,6.477513
1586955744337,1.5239093,2.0446482,8.218098
1586955744389,1.2270284,2.397793,9.392453
1586955744439,0.8738836,2.183512,10.498574
1586955744491,1.4053963,1.4257472,11.3964
1586955744540,0.7793127,2.0566192,11.335348
1586955744592,1.5310919,0.1388637,12.340913
1586955744646,1.7501614,-0.29688102,11.395203
1586955744697,-0.78888947,0.5279215,9.528923
1586955744747,-0.6332663,0.59256494,9.057265
1586955744797,0.059855044,1.009156,7.457938
1586955744847,0.70509243,1.3742718,6.967127
1586955744900,0.4381389,1.5765818,7.171831
1586955744950,0.49440265,1.7178397,8.080431
1586955745000,0.38067806,2.396596,8.392874
1586955745052,1.283292,2.5438392,9.591172
1586955745102,1.3694834,2.0219033,11.851298
1586955745154,1.2473791,2.5845408,11.777079
1586955745203,2.3523033,1.2258313,13.429077
1586955745255,2.337938,0.4165911,12.405556
1586955745307,2.099715,0.61770403,10.356119
1586955745357,1.9428947,0.1352724,9.354146
1586955745410,1.2150574,0.62129533,7.5692687
1586955745460,0.8655039,1.3934253,5.816713
1586955745510,1.2198458,1.377863,6.542156
1586955745562,1.3802572,1.7717092,7.675811
1586955745611,1.4137762,2.2601264,8.431181
1586955745662,1.2270284,2.8335378,8.959103
1586955745713,1.2641385,2.586935,10.09156
1586955745765,1.2126632,2.396596,11.09114
1586955745816,0.21667525,2.7820623,11.361684
1586955745868,1.0654198,-0.6488287,13.965379
1586955745916,0.58897364,-0.80564886,11.58674
1586955745968,-1.13964,0.6943185,9.276335
1586955746020,-0.47524905,1.2545617,8.525752
1586955746070,0.35434186,1.543063,7.302315
1586955746123,1.127669,1.1216835,7.4495587
1586955746173,0.9935937,1.5382746,7.560889
1586955746223,1.0773908,1.4748282,8.240842
1586955746275,0.89782566,1.6184803,8.582016
1586955746325,0.89423436,2.4229321,8.540117
1586955746377,0.4417302,2.1583729,10.169372
1586955746425,0.44651863,1.9393034,11.2132435
1586955746477,1.3874398,0.35673606,13.849259
1586955746529,1.316811,-0.7254431,13.997701
1586955746579,1.340753,0.46088383,10.69011
1586955746631,0.89184016,-1.6879122,9.204509
1586955746681,0.9684546,-0.047884032,9.382876
1586955746733,0.08020575,0.5351041,7.7213006
1586955746783,-0.39384618,1.2330139,7.703344
1586955746834,-0.3842694,0.6392518,8.862138
1586955746886,1.9201498,1.0666169,9.837775
1586955746934,-0.22026655,0.8487445,9.8198185
1586955746986,-0.5267244,1.4413095,9.23683
1586955747039,0.5279215,2.2816741,9.235633
1586955747088,0.4309563,2.207454,9.470264
1586955747140,0.074220255,2.1799207,10.247183
1586955747191,-0.1604115,2.123657,9.662998
1586955747241,-0.12808979,1.7537527,9.224859
1586955747293,0.7194576,2.528277,9.495404
1586955747343,0.49081135,1.8746599,9.526528
1586955747395,0.7529764,2.3594859,9.3733
1586955747443,0.17597382,2.1859062,9.661801
1586955747495,0.2657564,2.3223755,9.651027
1586955747547,-0.06703765,2.219425,9.519346
1586955747597,0.0047884034,2.337938,9.659407
1586955747649,-0.047884032,2.1930888,9.416395
1586955747699,-0.08379706,2.3750482,9.287108
1586955747751,0.45968673,2.5462334,8.938752
1586955747801,-0.010773907,2.1308396,9.507375
1586955747853,-0.24061728,2.1906946,9.570822
1586955747903,-0.2657564,2.1260512,9.557653
1586955747955,-0.59256494,2.0159178,9.919178
1586955748005,-0.5626374,1.9129672,9.619903
1586955748058,-0.47165772,2.0506337,9.388862
1586955748108,-0.61171854,1.946486,9.332599
1586955748158,-0.5446809,1.8016368,9.384073
1586955748210,-0.427365,1.5753847,9.546879
1586955748260,-0.20709845,1.6950948,9.794679
1586955748312,-0.25737667,1.9524715,9.5385
1586955748362,-0.21068975,2.1416135,9.470264
1586955748414,0.04070143,1.9883845,9.5013895
1586955748462,0.20111294,2.0614076,9.842564
1586955748513,-0.007182605,1.9428947,9.642648
1586955748565,-0.011971008,2.0638018,9.467871
1586955748618,-0.055066638,1.9800048,9.653421
1586955748668,-0.05746084,1.8483237,9.691729
1586955748718,-0.011971008,2.054225,9.472659
1586955748770,-0.19871874,2.0099323,9.040505
1586955748820,-0.23942018,1.8962077,9.060856
1586955748871,-0.11731588,1.6543933,9.118318
1586955748923,-0.20949265,1.3359646,9.518148
1586955748971,1.5191209,2.7497406,9.707291
1586955749022,-0.06823475,1.8016368,9.834184
1586955749073,0.35434186,1.8734628,9.648633
