@ HyperIMU -ianovir - 2018
@ Date:Wed Apr 15 14:53:00 GMT+02:00 2020, Sampling Rate:50ms

timestamp,K6DS3TR_Accelerometer.x,K6DS3TR_Accelerometer.y,K6DS3TR_Accelerometer.z
1586955180614,-0.5781997,1.2785037,9.870096
1586955180666,-0.39743748,1.1947067,9.536105
1586955180716,0.21428105,1.4688427,9.969456
1586955180767,-0.2693477,1.3323733,9.428367
1586955180818,-0.2765303,1.5286977,9.745598
1586955180870,0.15442601,1.8602947,9.673772
1586955180919,-0.07182605,1.520318,9.722853
1586955180970,-0.842759,1.0127473,9.064447
1586955181021,0.4441244,1.9524715,10.134656
1586955181073,-0.14724341,1.2485762,9.931149
1586955181128,-0.34596214,1.4269443,10.028113
1586955181170,-1.982399,1.079785,9.193734
1586955181225,-1.5969325,1.0929531,9.220071
1586955181286,-1.9428947,1.7250223,9.461885
1586955181332,-2.0266917,1.3012487,9.166202
1586955181383,-1.4520833,0.31004912,8.965088
1586955181433,-0.6548142,1.0450691,10.649409
1586955181483,-1.3335704,0.59256494,9.5253315
1586955181533,-0.8295909,0.59735334,9.2787285
1586955181582,-1.3132197,0.842759,9.989806
1586955181635,-2.0087352,1.2677298,9.452309
1586955181681,-1.8004397,1.13964,9.980229
1586955181733,-2.0913353,1.5801731,8.993818
1586955181784,-1.9512744,1.8148049,9.176975
1586955181836,-2.086547,1.4041992,9.072827
1586955181888,-2.4744074,1.6723499,9.119514
1586955181937,-1.151611,2.055422,8.101978
1586955181991,-0.90859956,1.4951789,8.59279
1586955182040,-0.7697359,2.1691468,8.66701
1586955182092,-0.9636662,1.8662802,9.406818
1586955182141,-0.736217,1.9297266,9.746795
1586955182195,-0.45130703,1.459266,11.255142
1586955182244,0.029927522,0.78050977,12.501324
1586955182296,-0.7517793,-0.7529764,13.842077
1586955182348,-0.34715924,-0.47524905,11.022904
1586955182398,0.16280572,-0.009576807,9.709685
1586955182451,0.59974754,-0.2705448,8.702923
1586955182500,0.4189853,0.10654198,7.762002
1586955182549,0.688333,0.9900024,7.253234
1586955182601,0.56982,1.3012487,7.762002
1586955182652,0.7218518,1.5897499,8.499416
1586955182702,0.49081135,1.3910311,9.616311
1586955182753,0.23582886,1.1971009,10.557233
1586955182805,0.011971008,0.90261406,11.591528
1586955182854,-0.4417302,0.21308395,11.200075
1586955182905,-0.3866636,0.51475334,11.604695
1586955182956,0.046686932,-1.411382,12.485762
1586955183007,-0.7433996,-0.7565677,10.462662
1586955183059,-1.30484,-0.22146365,9.2069025
1586955183112,0.0023942017,-0.037110128,8.239645
1586955183162,0.61052144,0.5255273,7.489063
1586955183214,0.5746084,1.2797008,7.53575
1586955183264,0.45489833,1.3634979,7.7548194
1586955183316,0.4333505,1.5107412,7.9367785
1586955183367,0.37708676,1.5131354,8.645462
1586955183417,0.8379706,1.5837644,9.464279
1586955183469,0.7206547,1.3862427,10.777499
1586955183520,1.4879963,1.0079589,11.9614315
1586955183570,1.9285295,-0.7146692,13.6888485
1586955183621,1.5370775,-0.81402856,12.494142
1586955183672,0.973243,-0.78888947,10.728417
1586955183722,1.0737995,-0.37588966,8.895657
1586955183774,0.7386112,0.25139117,8.056489
1586955183825,0.79367787,0.94092125,7.16824
1586955183876,1.3323733,1.3347675,7.2604165
1586955183926,1.3958195,1.3359646,7.9236107
1586955183977,1.4903905,1.6280571,8.626308
1586955184028,1.436521,1.6400281,9.472659
1586955184079,0.8846575,1.7190368,9.411607
1586955184130,-0.010773907,0.688333,10.824186
1586955184183,-0.7673417,0.17597382,11.835736
1586955184230,-0.9576807,-1.5622166,12.518084
1586955184282,-0.51954174,-1.5394717,11.939884
1586955184334,-1.4077905,-0.46447513,10.262746
1586955184385,-0.90381116,0.4141969,8.820239
1586955184435,-0.2801216,0.7134721,8.206126
1586955184487,-0.015562311,0.92775315,7.8050976
1586955184538,0.49081135,1.1288661,7.833828
1586955184589,0.78290397,1.5478514,7.848193
1586955184639,0.7170634,2.183512,8.1319065
1586955184692,0.5770026,3.1376014,8.9124155
1586955184738,0.4201824,2.9161377,9.676167
1586955184790,0.6596026,2.2254105,12.081141
1586955184842,0.7026982,0.4417302,13.980941
1586955184893,0.5805939,0.094570965,12.897565
1586955184945,0.61411273,-0.142455,11.064803
1586955184996,0.011971008,-0.6428431,9.309854
1586955185046,-0.22026655,-0.2693477,7.9451585
1586955185098,-0.10175357,-0.34356794,7.4615297
1586955185150,0.12090719,0.58897364,6.727707
1586955185200,0.59615624,1.4688427,7.302315
1586955185254,1.1360487,1.9680338,9.029732
1586955185302,1.3036429,1.8136078,9.759963
1586955185354,1.3503298,1.7609353,11.326968
1586955185404,0.09935937,0.8415619,12.005724
1586955185455,-0.05746084,0.770933,12.389994
1586955185507,-0.40581718,-1.7609353,13.019669
1586955185558,-0.6536171,-0.8690952,10.490194
1586955185610,-0.90620536,-0.22625206,9.175778
1586955185660,-0.47285482,0.23104046,8.306683
1586955185712,0.34356794,0.45729253,7.3310456
1586955185760,0.5231331,0.6823475,7.48188
1586955185812,0.4429273,1.1683705,7.417237
1586955185864,0.7493851,1.3982137,8.371326
1586955185914,0.7182605,2.0039468,8.725668
1586955185967,0.51714754,2.2014685,9.576807
1586955186017,0.050278235,1.6603789,10.984597
1586955186067,0.32441434,1.3587095,11.693281
1586955186120,0.89184016,-1.0462662,14.733917
1586955186170,0.17238252,-0.05267244,11.514913
1586955186220,0.2717419,-0.142455,9.928755
1586955186273,0.736217,0.30765492,8.111555
1586955186324,0.6679823,1.0163386,6.9982514
1586955186375,0.6500258,1.34195,7.201759
1586955186425,1.0785879,1.3108255,7.469909
1586955186475,1.0929531,1.0055647,8.652645
1586955186528,0.79966336,1.4927847,8.821436
1586955186578,0.748188,1.6340426,9.5971575
1586955186628,0.30645782,1.5275006,10.723629
1586955186681,-0.025139118,1.8674773,11.106702
1586955186732,-0.6584055,-0.08259996,13.022063
1586955186782,-0.019153614,-1.3299791,12.508507
1586955186834,-1.6328455,0.25617957,9.562442
1586955186884,-1.2162545,0.6440403,8.555679
1586955186936,-0.06344634,0.58418524,8.052897
1586955186985,0.45609543,0.7146692,7.703344
1586955187036,0.5638345,1.0043676,7.789535
1586955187087,1.021127,1.13964,7.7572136
1586955187139,1.5598224,1.0761937,8.0684595
1586955187191,1.4329298,1.7561469,9.137471
1586955187241,0.32800564,2.1918917,10.480618
1586955187294,-0.12090719,2.3391352,11.541249
1586955187344,-0.08738836,2.078167,12.097901
1586955187395,0.439336,-0.18914193,13.263878
1586955187444,1.62686,-0.17118542,12.312182
1586955187500,0.7086837,0.39145198,9.483433
1586955187550,1.365892,0.6356605,8.084022
1586955187601,1.8746599,0.92057055,6.801927
1586955187651,1.685518,1.328782,6.4272346
1586955187702,1.3204023,1.578976,6.8905125
1586955187753,1.0582372,1.7381904,8.503007
1586955187803,0.80445176,1.7597382,9.187749
1586955187855,0.62488663,2.006341,9.593566
1586955187906,0.15322891,1.7621324,9.751583
1586955187956,0.3854665,2.1092918,10.02572
1586955188009,-0.6703765,0.7026982,12.750321
1586955188060,-0.62728083,-1.4161704,15.003265
1586955188110,-1.1360487,-0.6332663,12.391191
1586955188161,-1.7753005,0.4297592,8.085219
1586955188210,-0.5542577,0.7553706,7.064092
1586955188262,0.19273324,0.8655039,7.20535
1586955188309,0.61650693,0.7278373,7.5644803
1586955188362,0.7110779,1.1587936,8.639477
1586955188413,0.2813187,0.93493575,10.223241
1586955188464,0.6679823,2.0410569,9.355343
1586955188515,0.2861071,2.1883004,10.46745
1586955188566,0.25258827,1.9979613,10.824186
1586955188620,1.2401965,1.2557588,12.716803
1586955188670,1.6376339,-0.19273324,13.049597
1586955188721,0.5542577,0.45010993,10.693702
1586955188772,0.6679823,0.12569559,9.210494
1586955188822,0.93732995,0.21787235,8.01459
1586955188873,1.2892777,0.44532153,7.0664864
1586955188924,1.1623849,0.79248077,7.1383123
1586955188975,0.9816227,1.1899183,7.6722193
1586955189026,0.79966336,1.1575965,8.841787
1586955189077,0.6368576,1.3611037,9.652225
1586955189128,0.46926352,0.62847793,11.683704
1586955189179,-0.61890113,0.24540567,12.794614
1586955189230,-0.5746084,-1.8351556,14.762648
1586955189284,0.7661445,-2.36188,13.443442
1586955189328,0.24181437,-1.0618285,9.528923
1586955189383,-0.11252748,0.40821138,6.963536
1586955189433,0.82599956,0.866701,6.233304
1586955189484,1.496376,1.1947067,6.2979474
1586955189537,1.3922282,1.1360487,6.789956
1586955189587,1.6927006,0.9864111,8.813056
1586955189637,1.4544775,1.3922282,9.639056
1586955189689,1.5598224,2.5965118,9.690532
1586955189739,1.4748282,2.5474305,11.664551
1586955189791,1.3120226,1.8543092,13.666103
1586955189840,0.5410896,-0.6835446,12.649765
1586955189892,1.5346833,-0.20350714,10.263943
1586955189941,1.9476831,-0.7757214,9.849746
1586955189992,1.1851299,-0.2908955,8.695741
1586955190045,0.7637503,0.4369418,7.467515
1586955190095,0.7517793,1.1815386,7.001843
1586955190147,0.62368953,1.7956513,7.380127
1586955190198,0.89543146,2.160767,8.476671
1586955190249,0.78410107,2.2385786,9.594764
1586955190300,0.5231331,2.1631613,10.803835
1586955190350,0.017956512,1.5849615,11.530476
1586955190402,0.1400608,1.4664485,12.841301
1586955190452,-0.07182605,-2.469619,13.29979
1586955190503,0.82360536,-0.39384618,9.740809
1586955190554,-0.7194576,0.18076223,8.420407
1586955190606,-0.16879122,0.5590461,8.087613
1586955190656,0.5746084,0.9911995,7.2927384
1586955190708,1.13964,1.6340426,7.33344
1586955190757,1.0498575,1.9500773,8.090008
1586955190809,0.8523358,1.9608512,8.6334915
1586955190856,0.8690952,2.255338,8.858546
1586955190908,0.79008657,2.742558,9.676167
1586955190961,0.35913026,2.6647465,10.845734
1586955191011,1.3431472,2.89459,11.226412
1586955191064,1.4161704,1.1384429,12.819753
1586955191114,1.9069817,1.7537527,10.395624
1586955191164,1.7022774,1.1240777,9.988609
1586955191217,1.7381904,0.39983168,9.56723
1586955191267,1.5574282,0.6607997,7.8158712
1586955191317,1.3311762,1.127669,6.811504
1586955191369,1.1623849,1.6484078,6.8438253
1586955191418,1.2808979,1.6184803,7.9990277
1586955191470,0.9816227,1.9620483,9.368511
1586955191523,0.5231331,1.9524715,10.800244
1586955191573,0.48722005,1.423353,11.550826
1586955191623,0.073023155,1.3814543,13.104663
1586955191676,0.7422025,-1.3874398,14.340071
1586955191726,1.2425907,-0.2813187,11.936293
1586955191776,-1.1480197,0.4225766,9.251195
1586955191829,-0.48841715,0.9576807,7.6770077
1586955191875,0.24899697,1.3623008,6.271611
1586955191928,0.7577648,1.5658079,6.257246
1586955191980,0.79846627,1.6687586,7.1107793
1586955192031,0.6703765,2.1571758,7.896077
1586955192081,1.1971009,2.3702598,9.386468
1586955192132,1.2665327,2.4313118,11.010934
1586955192184,0.760159,2.5127146,11.804611
1586955192234,2.0925324,1.673547,13.3943615
1586955192286,1.934515,-0.34117374,12.922704
1586955192337,2.148796,0.50876784,10.420763
1586955192387,1.4891934,0.1352724,9.178172
1586955192439,1.4041992,0.17836803,7.860164
1586955192490,1.7501614,0.6799533,6.479907
1586955192540,1.6484078,1.0833763,6.173449
1586955192593,1.2174516,1.887828,6.615179
1586955192643,1.0259154,1.8830396,8.463503
1586955192693,0.5267244,1.9656396,10.0748005
1586955192745,0.8726865,1.2366052,11.332953
1586955192794,1.4185646,1.4293385,11.340137
1586955192845,0.6691794,-0.581791,13.614628
1586955192896,-0.19752164,-2.2984335,13.356054
1586955192946,0.12449849,-0.62728083,10.860099
1586955192997,-0.6919243,0.34356794,9.540894
1586955193048,-0.076614454,1.2856863,8.123527
1586955193100,0.36870706,1.5263035,7.8757267
1586955193151,0.19991584,1.447295,8.676587
1586955193203,0.3184288,1.6208745,8.453926
1586955193252,0.5530606,1.5382746,8.543709
1586955193303,1.6184803,1.484405,8.737639
1586955193355,1.2605472,1.4221559,9.837775
1586955193402,1.1456255,1.1755531,11.640609
1586955193456,1.6519991,-0.47285482,13.620613
1586955193506,1.8626889,0.08738836,11.422736
1586955193569,2.1799207,0.22266077,10.067618
1586955193614,1.8411411,0.06344634,9.012972
1586955193663,1.4939818,0.521936,7.3777328
1586955193712,1.1923125,1.2473791,6.2871737
1586955193761,0.9983821,1.543063,6.3589997
1586955193812,1.0965444,1.3946224,7.7189064
1586955193864,0.81881696,1.9069817,8.765172
1586955193911,0.7529764,1.7477672,10.529699
1586955193962,0.712275,1.6783354,11.353305
1586955194014,0.90500826,1.7022774,11.967417
1586955194065,-0.16759412,-0.021547815,13.947422
1586955194116,0.9552865,-1.5358804,12.334928
1586955194168,0.39624038,-0.81522566,9.753978
1586955194219,-0.3866636,-0.07182605,8.579621
1586955194273,0.33997664,0.49320555,7.69257
1586955194322,0.80684596,1.1001357,7.1083846
1586955194371,1.1755531,1.0690111,7.896077
1586955194425,1.1288661,1.2378023,8.343793
1586955194474,1.0594343,1.7597382,8.407239
1586955194525,1.2916719,2.3008277,9.169792
1586955194576,1.3587095,1.9321208,10.869676
1586955194628,1.7980455,1.7729063,11.874043
1586955194676,1.8650831,-0.5446809,14.4454155
1586955194727,1.7717092,0.24420857,10.845734
1586955194778,1.9357121,0.36152446,9.975441
1586955194829,1.8926164,0.049081136,9.374496
1586955194881,1.733402,0.24899697,8.462306
1586955194927,1.4496891,0.61291564,7.3322425
1586955194980,1.2797008,1.2605472,6.4272346
1586955195031,1.4867992,1.2366052,6.981492
1586955195082,1.3790601,1.4927847,7.4711065
1586955195145,1.1994951,1.8303672,9.131485
1586955195192,1.0247183,1.8531121,10.723629
1586955195242,1.283292,1.6819267,11.399991
1586955195291,0.47644615,2.3127987,12.331336
1586955195341,-0.3878607,0.35434186,13.974956
1586955195400,1.3012487,-0.878672,11.960235
1586955195433,0.35194764,-0.4165911,9.982624
1586955195492,-0.1340753,0.62249243,8.428787
1586955195544,0.17357962,1.0235212,7.8326306
1586955195595,0.7266402,1.1228806,7.589619
1586955195647,0.9600749,1.2976574,7.4244194
1586955195711,1.1851299,1.5358804,7.8529816
1586955195758,1.2797008,2.2122424,8.130709
1586955195805,1.2318168,2.5821466,9.478644
1586955195854,0.82599956,1.8806454,11.565191
1586955195903,1.7058687,2.183512,11.366472
1586955195956,1.8219875,0.94451255,13.597869
1586955196005,2.4396915,-0.4417302,14.18325
1586955196056,1.7549498,-0.5662287,11.814188
1586955196106,1.4137762,-0.31483752,9.390059
1586955196157,1.6220716,0.19153613,7.711724
1586955196208,1.2198458,0.82240826,6.6726403
1586955196259,1.4808137,1.2437878,6.1447186
1586955196310,1.7788919,1.5059528,7.067683
1586955196362,1.7717092,1.6017209,8.02297
1586955196413,1.5502456,2.0853498,9.006987
1586955196462,1.3120226,2.0506337,10.400413
1586955196514,1.2497733,1.6448165,11.283873
1586955196566,0.7469909,1.8016368,11.601105
1586955196616,-0.35314476,0.760159,12.557588
1586955196667,0.7194576,-0.1352724,11.289858
1586955196719,0.30885202,-0.6907272,9.927557
1586955196769,0.17717093,-0.4285621,9.813833
1586955196822,0.22146365,0.22864626,8.418014
1586955196872,0.6476316,0.748188,7.429208
1586955196922,0.80804306,1.1623849,7.097611
1586955196975,0.8583213,1.4460979,7.9188223
1586955197025,0.7457938,2.1739352,7.997831
1586955197075,1.2473791,2.825158,8.62152
1586955197128,1.6531962,2.6431987,10.151415
1586955197178,1.5131354,2.2649148,11.384429
1586955197229,2.9724014,1.7441759,12.5264635
1586955197278,1.5885528,-0.039504327,13.956999
1586955197329,1.7908629,0.35673606,11.177331
1586955197380,2.147599,-0.19632454,10.07121
1586955197431,1.7609353,0.39384618,8.146272
1586955197480,1.5442601,0.94211835,7.16824
1586955197531,1.5310919,1.3347675,7.026982
1586955197583,1.1085154,1.6603789,6.9587474
1586955197634,0.9840169,1.9177556,7.762002
1586955197685,0.8379706,2.741361,8.576031
1586955197736,0.81043726,2.80361,10.232818
1586955197787,0.9540894,1.9285295,11.785458
1586955197838,1.6687586,2.5103204,11.713632
1586955197890,-0.30406362,0.23822308,12.937069
1586955197939,1.1300632,-0.2801216,11.049241
1586955197992,0.6691794,-0.48841715,10.43034
1586955198042,-0.6979098,0.25617957,9.384073
1586955198095,0.01436521,1.0247183,7.8158712
1586955198145,0.80684596,1.1288661,7.608773
1586955198195,0.8595184,1.3000516,7.5525093
1586955198247,0.8415619,1.3587095,8.182184
1586955198297,1.0570401,1.4772224,8.793902
1586955198349,0.7565677,2.2601264,9.668983
1586955198399,0.2621651,2.4624364,10.462662
1586955198452,1.7022774,2.0805612,11.0695915
1586955198498,2.7222073,1.4449008,12.236765
1586955198549,1.6687586,-0.16998832,12.952631
1586955198601,2.098518,0.7110779,10.346542
1586955198653,2.1068976,0.35673606,9.308656
1586955198705,1.9835961,-0.029927522,9.009381
1586955198756,1.448492,0.5327099,7.3466077
1586955198806,1.0594343,1.1288661,6.7923503
1586955198858,0.79248077,1.5179238,6.989872
1586955198908,1.2856863,1.6998832,7.855376
1586955198961,1.1168951,2.1679497,8.710106
1586955199007,1.0175357,2.2170308,9.697714
1586955199058,0.92655605,1.6962919,11.332953
1586955199109,1.4413095,1.650802,11.353305
1586955199162,0.4213795,1.0259154,13.063962
1586955199214,0.19871874,-0.40342298,13.652935
1586955199264,0.25019407,0.37828386,10.257957
1586955199316,-0.22864626,-0.130484,9.665392
1586955199366,1.0199299,0.2908955,8.034941
1586955199417,1.1707647,0.830788,6.71813
1586955199469,1.283292,1.3120226,6.884527
1586955199518,1.3227965,1.520318,7.759608
1586955199570,1.5682021,1.6220716,8.6813755
1586955199620,1.553837,2.2709002,8.726865
1586955199673,1.6101006,2.7126305,9.803059
1586955199723,0.91099375,2.3008277,11.844116
1586955199773,2.3211784,2.2984335,11.61547
1586955199825,1.6687586,0.712275,13.022063
1586955199875,2.0602105,0.7146692,11.314998
1586955199927,2.030283,0.33518824,9.982624
1586955199977,1.9644425,-0.15562311,9.609129
1586955200030,1.3108255,0.5722142,7.819463
1586955200080,1.1192893,1.2509704,6.6247563
1586955200131,1.388637,1.508347,6.813898
1586955200181,1.8267759,1.5119383,7.763199
1586955200234,1.6124948,1.7322049,8.602366
1586955200284,1.5107412,2.0805612,9.294291
1586955200334,1.2378023,2.1583729,10.01734
1586955200386,1.8148049,1.8974048,10.790668
1586955200437,0.6572084,1.7118542,11.971008
1586955200487,0.7649474,-1.0666169,13.444639
1586955200539,1.8555063,-0.4297592,10.472239
1586955200589,-0.37349546,-0.08259996,10.110714
1586955200642,-0.14604631,0.6679823,8.649054
1586955200692,0.7206547,0.8319851,7.4375877
1586955200742,1.0582372,1.2210429,7.2328835
1586955200795,0.90500826,1.6232687,7.311892
1586955200845,1.3479356,1.8662802,8.3821
1586955200895,1.2988545,2.3331497,8.825027
1586955200947,1.5071499,2.445677,9.854534
1586955200998,1.2892777,1.9608512,11.340137
1586955201049,1.9249382,2.1092918,11.518504
1586955201100,1.8722657,0.49081135,12.710816
1586955201150,2.991555,-0.9672575,12.641385
1586955201203,2.2960393,-0.12090719,9.682152
1586955201253,2.0649989,-0.029927522,8.719683
1586955201303,1.7645266,0.2837129,8.133103
1586955201355,1.412579,0.9744401,7.0365586
1586955201405,1.4544775,1.2689269,6.909666
1586955201457,1.7118542,1.1875241,7.6770077
1586955201508,1.5825673,1.7417817,8.2516165
1586955201559,1.4772224,2.067393,9.403227
1586955201609,1.270124,1.8590976,10.315418
1586955201666,1.7477672,1.4089876,10.7356
1586955201713,1.508347,1.6089035,10.960655
1586955201764,-0.12569559,-0.9780314,12.516887
1586955201814,1.6112977,-0.78769237,10.532093
1586955201864,0.533907,-0.21068975,9.7863
1586955201916,-0.25617957,-0.4201824,10.860099
1586955201966,1.0690111,0.009576807,8.8777
1586955202018,0.94331545,0.7457938,7.4567413
1586955202067,1.0510546,1.1145009,7.5764513
1586955202119,1.1252748,1.2413936,7.8613615
1586955202169,1.2665327,1.3383588,8.41921
1586955202222,1.7238252,1.9452889,8.514978
1586955202272,1.7429788,2.1739352,9.385271
1586955202323,1.4065934,1.7190368,11.267113
1586955202373,1.7501614,2.4121583,11.064803
1586955202425,2.1511903,0.427365,13.933057
1586955202476,2.397793,-0.6691794,13.35366
1586955202525,1.9141643,0.055066638,10.571598
1586955202578,2.1535845,-0.22266077,9.284714
1586955202629,2.337938,-0.021547815,8.184579
1586955202679,1.9883845,0.6607997,6.871359
1586955202731,1.9740193,1.2210429,6.63553
1586955202781,2.172738,1.3000516,7.7560163
1586955202833,1.9357121,1.5765818,8.100781
1586955202883,1.8710686,2.0159178,8.656237
1586955202934,1.5478514,2.3235726,9.811439
1586955202986,1.412579,2.2266076,10.864887
1586955203036,1.4377182,2.1404164,11.421539
1586955203089,0.7182605,0.5590461,12.4785795
1586955203139,1.6723499,-1.0905589,12.654553
1586955203189,0.45848963,-0.6631939,10.334572
1586955203242,-1.0223241,-0.15203181,9.334992
1586955203292,-0.016759412,0.12928689,8.9279785
1586955203342,0.6859388,0.79607207,7.243657
1586955203395,1.2425907,1.115698,7.539341
1586955203445,1.1049241,1.1671734,8.094796
1586955203495,1.3850456,1.1767502,8.549694
1586955203547,1.0582372,2.0015526,8.476671
1586955203594,1.2557588,2.4301147,9.289502
1586955203646,1.2533646,2.0494366,10.688913
1586955203698,1.7609353,1.7226281,11.232397
1586955203750,2.4540567,1.2641385,12.512098
1586955203800,1.8052281,-0.23942018,13.087904
1586955203853,2.1272483,-0.08499416,10.852917
1586955203903,2.5318682,-0.40342298,9.665392
1586955203953,2.0913353,0.08499416,7.9786773
1586955204006,1.532289,1.0905589,6.3326635
1586955204058,1.4281414,1.5454572,6.2141504
1586955204106,1.3718776,1.7310078,6.4416
1586955204158,1.7585411,1.5622166,8.224083
1586955204211,1.8375498,2.2110453,9.279925
1586955204261,1.3012487,2.5366566,9.764751
1586955204311,1.2030864,2.0398598,10.787076
1586955204363,1.2665327,2.2900538,10.831368
1586955204413,-0.3172317,0.7517793,12.969391
1586955204466,0.90141696,-0.9504981,11.511322
1586955204516,1.4951789,-0.58298814,10.4171715
1586955204566,-0.059855044,-0.15442601,9.925163
1586955204618,0.2885013,0.320823,8.9998045
1586955204667,1.282095,0.60333884,7.9942393
1586955204718,1.3455414,1.2569559,7.289147
1586955204770,1.283292,1.5861586,7.457938
1586955204822,1.282095,1.8339585,8.128315
1586955204891,1.6412252,2.6204538,8.919599
1586955204936,1.5310919,2.8634653,9.153033
1586955204983,1.270124,2.4516625,10.730812
1586955205032,1.7010803,2.6276364,10.545261
1586955205081,1.4460979,0.79726917,12.981361
1586955205134,2.5701754,0.14963761,11.532869
1586955205183,1.7429788,0.2657564,10.563218
1586955205234,1.5275006,-0.56982,9.730036
1586955205285,1.8746599,-0.7218518,9.42238
1586955205336,1.3108255,0.32561144,7.404069
1586955205387,0.9828198,1.400608,6.941988
1586955205440,1.2234371,2.112883,7.491457
1586955205489,1.661576,2.0937295,8.154651
1586955205540,1.6256629,2.4432828,9.370906
1586955205590,1.1827357,2.3882163,10.359711
1586955205642,1.0019734,1.970428,11.036073
1586955205691,0.92416185,2.0147207,11.532869
1586955205743,0.062249243,0.17956513,13.169307
1586955205795,1.1013328,-1.1719618,10.8229885
1586955205845,0.22984336,-0.81642276,9.740809
1586955205898,-1.0845734,-0.25617957,8.895657
1586955205947,-0.17597382,-0.039504327,8.674192
1586955205998,0.35793316,0.15801731,8.429984
1586955206049,0.60094464,0.7026982,7.896077
1586955206100,0.415394,1.0175357,8.620323
1586955206150,0.4357447,1.3694834,8.327033
1586955206201,0.7386112,1.9273324,8.719683
1586955206252,0.90740246,2.2744915,9.556456
1586955206304,0.40940848,1.7226281,10.947487
1586955206353,0.8559271,1.8471266,11.073183
1586955206405,1.1444284,-0.8846575,13.949816
1586955206456,2.3822308,-1.9644425,13.148955
1586955206507,2.384625,-1.3670892,10.6877165
1586955206559,2.823961,-1.6627731,10.272323
1586955206608,2.123657,-0.8463503,9.123106
1586955206662,1.1623849,-0.08020575,8.12592
1586955206712,1.270124,0.5422867,7.381324
1586955206762,1.6328455,0.9768343,7.2819643
1586955206815,1.769315,1.4030021,7.536947
1586955206865,2.0482395,2.348712,7.2245035
1586955206915,1.7070658,2.5629928,8.101978
1586955206967,1.6077064,2.493561,9.208099
1586955207018,1.2090719,2.882619,9.398438
1586955207068,1.9093759,2.682703,10.680533
1586955207120,1.1540052,3.071761,11.893197
1586955207168,-0.24061728,1.7836803,12.4869585
1586955207221,1.8411411,-0.12090719,10.916363
1586955207272,2.3235726,-0.21428105,10.311827
1586955207322,-0.7673417,0.34596214,9.749189
1586955207374,-0.06584055,0.30645782,9.198523
1586955207424,0.82480246,0.46327803,8.226477
1586955207477,0.5363012,0.85473,7.7069354
1586955207527,0.62368953,1.0199299,8.024167
1586955207577,0.8475474,1.5095441,7.620744
1586955207631,1.1097125,2.1739352,8.303091
1586955207675,1.2964603,2.5594015,8.62152
1586955207728,1.3862427,2.4420857,10.278308
1586955207779,1.0845734,1.9321208,11.777079
1586955207830,1.780089,1.34195,13.046005
1586955207881,1.7058687,-0.8678981,13.541605
1586955207932,2.0745757,0.16160862,10.272323
1586955207984,1.4329298,0.22625206,9.555259
1586955208036,1.5861586,0.025139118,9.15423
1586955208085,1.5981296,0.7134721,7.9475527
1586955208137,1.3479356,1.3611037,7.0820484
1586955208185,1.364695,1.614889,7.2005615
1586955208236,1.5622166,1.6077064,7.5824366
1586955208287,1.4808137,1.3718776,8.851364
1586955208338,1.1803415,1.3754689,9.726444
1586955208389,0.6931214,1.3682863,10.408792
1586955208440,0.19393034,1.5682021,10.767922
1586955208491,-0.059855044,2.3092074,11.416751
1586955208542,-0.46208093,-1.1168951,14.707581
1586955208593,-0.02633622,-0.90859956,11.888409
1586955208644,-0.9720459,-0.11492168,8.854955
1586955208693,-0.7146692,0.5291186,8.146272
1586955208744,0.39983168,0.39624038,7.7799582
1586955208796,0.59017074,0.94690675,7.28795
1586955208850,0.5638345,1.2210429,7.608773
1586955208902,0.12330139,1.5873557,8.052897
1586955208955,0.35673606,1.8686744,8.64666
1586955209004,0.8379706,2.4492683,9.5013895
1586955209053,0.8690952,2.220622,11.348516
1586955209102,0.8750807,2.208651,11.862072
1586955209154,0.9911995,0.23104046,13.861231
1586955209201,2.088941,0.046686932,11.366472
1586955209253,1.5526398,0.12928689,9.564836
1586955209304,1.5622166,-0.12808979,8.852561
1586955209355,1.7226281,-0.05267244,8.462306
1586955209406,1.5167267,0.46567222,7.7560163
1586955209457,1.1456255,1.484405,7.93199
1586955209508,0.8559271,1.769315,8.51857
1586955209559,0.5386954,2.3870192,8.772355
1586955209610,0.32680854,2.7210102,9.437943
1586955209661,-0.029927522,2.1799207,10.603919
1586955209710,0.18914193,1.9273324,11.001357
1586955209761,-0.30286652,1.2186487,12.451046
1586955209812,0.47764325,-0.7326257,12.004527
1586955209862,0.6584055,0.15322891,9.9550905
1586955209914,-0.7553706,0.30885202,9.356541
1586955209966,-0.30765492,0.78649527,9.021352
1586955210017,0.16639702,1.1599907,8.183381
1586955210068,-0.04070143,1.5490485,7.741651
1586955210120,0.18195933,1.4951789,8.234857
1586955210169,0.22864626,1.8674773,7.9104424
1586955210222,0.48362875,2.5318682,8.172607
1586955210271,1.0175357,3.0071173,8.772355
1586955210322,1.0283096,2.932897,10.272323
1586955210373,1.0103531,2.5833437,11.040861
1586955210424,2.1021092,2.2062569,11.506534
1586955210475,1.9285295,0.50996494,13.001713
1586955210526,2.3594859,0.8499416,11.212047
1586955210577,2.2014685,0.30286652,10.996569
1586955210628,2.4193408,0.37469256,9.673772
1586955210679,1.899799,0.89184016,7.7129207
1586955210729,1.5490485,1.5035586,7.109582
1586955210780,1.1504139,1.9405005,7.15986
1586955210831,1.2569559,2.232593,7.8517847
1586955210882,1.4891934,2.4372973,8.160637
1586955210933,1.411382,2.5330653,8.7292595
1586955210984,1.0402806,2.5905263,9.8437605
1586955211035,1.0606314,2.4157495,10.259154
1586955211086,1.4544775,2.6048915,11.101913
1586955211138,0.2657564,1.8375498,12.182896
1586955211187,1.0498575,-0.12210429,12.62702
1586955211240,1.13964,0.1328782,9.688137
1586955211289,-0.2657564,0.2861071,9.065644
1586955211340,0.50038815,0.7015011,8.754398
1586955211391,1.0510546,0.93493575,8.037335
1586955211442,1.0570401,1.4760253,7.577648
1586955211493,1.0486604,1.3551182,8.469488
1586955211546,0.94930094,1.3623008,8.815451
1586955211595,0.7158663,2.0638018,8.228871
1586955211647,0.9876082,2.8191724,8.243237
1586955211698,1.0594343,2.4169466,10.538078
1586955211747,0.8798691,2.2625206,11.581951
1586955211799,2.006341,1.7034745,12.357672
1586955211850,1.4329298,-0.50637364,13.3704195
1586955211903,1.7717092,0.48602295,10.371682
1586955211952,1.3982137,0.06584055,9.706094
1586955212003,1.8974048,-0.1592144,9.296685
1586955212054,1.5993267,0.60094464,7.3645644
1586955212106,1.1085154,1.2677298,6.745663
1586955212156,1.1611878,1.6005238,7.86615
1586955212209,1.270124,1.8339585,8.461109
1586955212254,1.1300632,2.256535,8.620323
1586955212307,1.1779473,2.2709002,9.296685
1586955212358,1.1504139,2.4049757,9.811439
1586955212410,1.2761095,2.1859062,10.793061
1586955212461,1.352724,2.1523874,11.243171
1586955212512,0.58897364,0.736217,12.688072
1586955212563,1.5682021,-0.80205756,12.745533
1586955212615,0.0035913025,-0.02633622,9.637859
1586955212665,-1.0726024,0.8774749,8.678981
1586955212717,-0.10295067,0.58538234,8.919599
1586955212765,0.7505822,0.61411273,8.418014
1586955212816,0.82360536,1.389834,7.469909
1586955212868,0.8690952,1.5119383,8.14268
1586955212920,0.9660604,1.5729905,8.590396
1586955212970,0.89662856,2.0590134,8.452729
1586955213022,1.1252748,2.565387,8.535329
1586955213072,0.92176765,2.456451,9.2069025
1586955213124,1.0307038,1.7345991,9.7324295
1586955213174,2.232593,1.7010803,10.113108
1586955213225,1.8052281,0.61411273,11.479
1586955213274,1.1492168,-0.34715924,11.320983
1586955213326,1.6831238,-1.4041992,11.887212
1586955213376,2.146402,-1.4891934,10.55005
1586955213427,2.3834279,-0.5602432,8.577228
1586955213478,2.2709002,-0.5518635,9.331401
1586955213529,2.1775265,-0.24181437,9.522937
1586955213580,2.1751323,-0.4441244,10.014946
1586955213631,2.1583729,-0.35314476,9.953894
1586955213682,2.15957,-0.47644615,9.952697
1586955213733,2.3535004,-0.45848963,9.925163
1586955213782,2.12246,-0.415394,9.945514
1586955213833,2.1428106,-0.62967503,10.108319
1586955213883,2.2349873,-0.36511576,9.26197
1586955213935,2.4349031,-0.16160862,8.754398
1586955213986,2.516306,-0.094570965,8.724471
1586955214038,2.6898856,-0.32800564,9.452309
1586955214090,2.3247697,-0.25498247,9.340978
1586955214141,2.6240451,-0.31483752,9.384073
1586955214191,2.6048915,-0.272939,9.589975
1586955214244,2.8299465,-0.10414778,9.752781
1586955214290,2.8862102,0.019153614,9.892841
1586955214341,2.8658595,0.110133275,10.155006
1586955214392,2.707842,0.5530606,9.470264
1586955214444,2.907758,0.6619968,9.018958
1586955214496,2.9508536,0.5410896,9.384073
1586955214547,2.9029696,0.7673417,9.103952
1586955214599,3.095703,0.89662856,9.033323
1586955214650,2.9484594,0.7541735,9.593566
1586955214703,2.5594015,0.8487445,9.781511
1586955214752,2.1452048,0.8403648,9.679757
1586955214806,1.7717092,0.9684546,9.175778
1586955214856,1.8459295,1.1767502,8.953117
1586955214906,1.7956513,1.2761095,9.08001
1586955214958,2.1164744,1.4209588,9.309854
1586955215009,2.1571758,1.5310919,9.560047
1586955215059,1.9907787,1.5598224,9.712079
1586955215111,1.7369933,1.6316484,9.475053
1586955215162,1.5574282,1.436521,9.648633
1586955215212,1.5143325,1.3108255,9.588778
1586955215264,1.3323733,1.4544775,9.175778
1586955215313,1.6065093,1.685518,9.063251
1586955215364,1.673547,1.6699557,9.081207
1586955215416,2.0482395,1.638831,9.205706
1586955215466,2.079364,1.9153614,8.92319
1586955215519,2.0171149,2.1200657,9.130288
1586955215570,2.0470424,2.4265234,9.204509
1586955215620,2.2110453,2.1547816,9.351752
1586955215671,2.0614076,2.1799207,8.907627
1586955215721,1.851915,2.432509,8.651448
1586955215773,1.7944542,2.6264393,8.874108
1586955215821,1.7501614,2.7329812,9.024943
1586955215873,1.7082629,2.847903,9.445126
1586955215925,1.7166426,2.9293058,9.679757
1586955215975,1.6316484,3.1866825,9.157822
1586955216028,1.7034745,3.2106245,9.14585
1586955216077,1.887828,3.3865983,8.983045
1586955216128,2.1332338,3.1998506,9.721656
1586955216180,1.5705963,3.0358477,10.736797
1586955216230,0.47285482,0.36990416,12.998121
1586955216282,2.0769699,-0.6560113,11.007342
1586955216331,1.1432313,-0.6619968,10.336966
1586955216383,-1.3180081,-0.58777654,10.754754
1586955216433,-1.4221559,-0.58538234,10.401609
1586955216485,0.32441434,-0.11611878,9.062054
1586955216535,0.24061728,0.7517793,7.85777
1586955216591,0.0035913025,1.5993267,7.973889
1586955216641,-0.09935937,1.5382746,8.738836
1586955216690,0.33518824,2.0649989,8.057686
1586955216739,0.60693014,2.3642743,7.7811556
1586955216790,0.9696517,2.541445,8.286332
1586955216839,0.973243,2.814384,8.324639
1586955216892,1.043872,3.0550013,9.001001
1586955216942,0.6991069,3.4476504,9.181764
1586955216995,0.78410107,3.1172507,10.028113
1586955217045,1.3599066,2.8299465,10.036493
1586955217095,2.5917234,2.871845,10.830172
1586955217146,1.2545617,0.25617957,13.403938
1586955217197,2.0685902,0.6667852,11.043256
1586955217249,2.621651,0.45968673,10.472239
1586955217300,2.8443117,0.6392518,9.622296
1586955217350,2.1619642,1.3072342,8.39048
1586955217402,2.1021092,1.567005,7.501034
1586955217452,1.9249382,1.6879122,7.2424603
1586955217504,2.1667526,1.8986019,7.327454
1586955217554,2.1787236,2.4432828,7.69257
1586955217607,2.0278888,2.6623523,9.027337
1586955217657,1.6124948,2.9173348,9.386468
1586955217707,1.9081788,3.0202854,9.692925
1586955217760,1.9859903,2.778471,10.485406
1586955217810,1.7118542,3.156755,11.192893
1586955217864,1.0414777,1.2761095,13.576321
1586955217912,1.4556746,-0.78410107,12.739547
1586955217964,0.2633622,-0.02873042,10.097546
1586955218014,-1.0007763,0.51954174,9.312247
1586955218066,-0.1340753,0.80086046,8.596381
1586955218116,0.11971009,1.3611037,7.406463
1586955218168,0.56982,1.70946,7.335834
1586955218219,0.80205756,1.9416976,7.1945763
1586955218270,1.1504139,2.4049757,7.443573
1586955218324,1.2880806,3.0669725,7.9116397
1586955218367,1.4317327,3.4105403,8.499416
1586955218420,1.4808137,2.9975405,10.127473
1586955218473,1.1061212,2.3247697,11.188105
1586955218525,2.0590134,2.6623523,10.791864
1586955218576,1.590947,0.45370123,13.104663
1586955218625,1.9871874,-0.12090719,12.661736
1586955218677,1.827973,0.688333,10.30225
1586955218729,2.280477,0.46806642,10.353725
1586955218779,2.1942859,0.6344634,9.604341
1586955218831,1.2988545,1.5346833,7.505822
1586955218879,1.3455414,1.9572599,7.2460513
1586955218931,1.6065093,1.7501614,7.9966335
1586955218985,1.6663644,1.4879963,8.14268
1586955219035,1.578976,1.7130513,8.577228
1586955219085,1.4688427,1.8986019,8.99741
1586955219135,1.0953473,2.5330653,8.761581
1586955219188,1.1073183,2.6192567,9.337387
1586955219238,0.78529817,2.291251,10.412383
1586955219289,-0.01316811,0.9564836,12.411542
1586955219339,1.2641385,-1.3299791,13.889961
1586955219392,-0.034715924,-0.46686932,10.78947
1586955219442,-1.055843,0.47285482,9.726444
1586955219492,-0.6823475,0.78529817,8.941146
1586955219544,0.17597382,1.1061212,7.368156
1586955219594,0.51595044,1.555034,6.851008
1586955219646,0.82719666,1.3347675,7.704541
1586955219696,1.1180922,1.270124,8.322245
1586955219748,1.2318168,1.697489,8.503007
1586955219799,1.5957354,2.3535004,8.755595
1586955219849,1.6555905,2.4875755,9.892841
1586955219901,1.2617443,2.1799207,11.739968
1586955219951,1.5071499,3.240552,10.850522
1586955220004,1.1216835,1.9668367,13.29141
1586955220054,0.93613285,0.21068975,13.205219
1586955220105,-0.34117374,0.5494693,10.307038
1586955220155,-0.61650693,-1.5035586,9.488221
1586955220208,-0.427365,-0.6380547,8.474277
1586955220258,0.022744916,-0.19512744,8.325836
1586955220309,-0.7661445,0.22984336,7.548918
1586955220364,-0.06703765,0.6464345,7.171831
1586955220406,-0.2705448,1.7022774,8.534132
1586955220459,0.3866636,1.9405005,8.725668
1586955220512,0.18794483,2.4540567,7.9307933
1586955220565,0.5542577,2.421735,9.570822
1586955220615,0.33399114,2.3235726,10.250774
1586955220665,0.49200845,2.2720973,10.58716
1586955220717,-1.0163386,1.0031705,12.191275
1586955220767,0.020350715,-0.81043726,11.968615
1586955220820,0.7697359,-0.8439561,11.130644
1586955220870,-1.340753,-0.60214174,9.659407
1586955220922,-1.1216835,0.24540567,9.190144
1586955220972,-0.18315643,0.62488663,7.776367
1586955221024,0.5566519,0.91817635,7.417237
1586955221076,0.16998832,1.1492168,7.9595237
1586955221126,0.2693477,1.5406688,8.437167
1586955221176,-0.055066638,1.6867151,8.916007
1586955221228,-0.18315643,2.4863784,9.285912
1586955221279,-0.20231004,2.2709002,9.810242
1586955221330,0.075417355,1.6759412,11.216835
1586955221380,0.7182605,1.472434,11.206061
1586955221432,1.151611,0.19512744,13.408727
1586955221483,0.7625532,-0.7685388,10.582372
1586955221533,2.1787236,-0.023942016,10.208876
1586955221586,1.6687586,-0.19033903,9.425972
1586955221636,1.6112977,0.06943185,9.471462
1586955221686,1.0462662,0.6799533,8.337808
1586955221737,0.92655605,1.1875241,7.892486
1586955221790,1.0570401,1.2389994,8.497022
1586955221840,0.80564886,1.5562311,8.701726
1586955221890,0.9947908,1.9069817,9.187749
1586955221943,0.6607997,1.946486,9.215282
1586955221993,0.78888947,2.7090392,8.754398
1586955222044,0.60573304,2.4827871,8.935161
1586955222094,0.8702923,2.4600422,9.040505
1586955222146,1.4173675,2.6396074,10.073604
1586955222197,0.045489833,1.3587095,12.978968
1586955222248,0.4213795,-0.7565677,13.488933
1586955222298,2.360683,-1.851915,11.68131
1586955222353,0.5746084,-0.93134445,11.180922
1586955222403,-1.6256629,-0.10175357,9.89763
1586955222454,-0.33877954,0.5315128,8.368932
1586955222506,0.81881696,0.79128367,8.073248
1586955222556,1.0271125,1.1839328,8.152257
1586955222608,0.9864111,1.887828,7.678205
1586955222658,1.3479356,2.244564,7.7823524
1586955222711,1.0295067,2.0207062,8.503007
1586955222760,1.365892,2.2996306,8.244433
1586955222811,1.6663644,2.754529,8.074445
1586955222863,1.3311762,2.7856536,8.599973
1586955222912,0.5674258,2.4660277,9.801862
1586955222964,-0.4141969,3.192668,9.78989
1586955223015,-0.8822633,3.107674,10.332177
1586955223067,-0.9888053,3.110068,11.787852
1586955223117,-0.6979098,1.2689269,15.264233
1586955223168,-2.7461493,-0.23582886,12.850878
1586955223219,-0.34117374,0.23463176,9.848549
1586955223271,0.94451255,-0.45370123,9.662998
1586955223322,1.1803415,-0.22505496,9.416395
1586955223372,0.6631939,0.61052144,8.279149
1586955223424,0.79846627,1.0881647,8.389283
1586955223472,0.8774749,1.0223241,8.01459
1586955223524,1.3754689,1.7082629,7.916428
1586955223576,1.1133038,1.8255788,8.719683
1586955223625,0.6835446,2.078167,7.965509
1586955223676,0.62967503,2.3439236,7.961918
1586955223727,1.2294226,1.9153614,9.095572
1586955223778,1.9476831,3.0322564,8.508993
1586955223829,1.7561469,2.6001031,9.121908
1586955223880,1.3790601,2.542642,10.516531
1586955223931,1.210269,2.3882163,12.802994
1586955223980,0.973243,0.23104046,13.966576
1586955224031,1.8016368,-0.7086837,10.277111
1586955224083,1.292869,1.2330139,9.260772
1586955224135,-1.2892777,1.459266,10.259154
1586955224184,-1.8171991,0.6368576,9.985018
1586955224236,-0.5351041,0.4225766,8.992621
1586955224288,-0.01436521,0.7098808,8.747216
1586955224337,-0.6596026,0.45370123,8.966286
1586955224389,-0.6607997,0.48243165,9.325416
1586955224440,0.12090719,0.7038953,9.886856
1586955224489,-0.25498247,1.0307038,9.859323
1586955224540,-0.81761986,1.4556746,9.721656
1586955224591,-0.37708676,1.5873557,9.64983
1586955224643,-0.17717093,1.2725182,9.239224
1586955224695,0.45489833,1.6831238,9.498995
1586955224745,0.8619126,1.6352397,9.222465
1586955224797,1.5921441,2.6036944,9.131485
1586955224846,0.5770026,2.0242975,9.895236
1586955224897,1.8459295,2.1260512,8.9363575
