@ HyperIMU -ianovir - 2018
@ Date:Mon Apr 20 09:58:20 GMT+02:00 2020, Sampling Rate:10ms

timestamp,K6DS3TR_Accelerometer.x,K6DS3TR_Accelerometer.y,K6DS3TR_Accelerometer.z
1587369500418,-0.91697925,0.5482722,9.813833
1587369500429,-0.7314286,0.5386954,9.811439
1587369500440,-0.6775591,0.60214174,9.66659
1587369500451,-0.6919243,0.5291186,9.528923
1587369500462,-0.7338228,0.47524905,9.548077
1587369500472,-0.7338228,0.47524905,9.548077
1587369500483,-1.0319009,0.63206923,9.645041
1587369500494,-1.2258313,0.80804306,9.6845455
1587369500505,-1.4532804,1.0414777,9.472659
1587369500516,-1.4532804,1.2413936,9.514558
1587369500527,-1.472434,1.0151415,9.487024
1587369500535,-1.4161704,0.82719666,9.503783
1587369500547,-1.283292,0.62249243,9.616311
1587369500558,-0.9995792,0.4381389,9.500193
1587369500569,-0.79846627,0.33518824,9.712079
1587369500580,-0.7074866,0.33877954,9.750386
1587369500591,-0.5710171,0.2669535,9.776723
1587369500603,-0.4225766,0.19393034,9.774328
1587369500614,-0.33877954,0.049081136,9.794679
1587369500625,-0.2681506,-0.0047884034,9.765948
1587369500637,-0.25258827,-0.0047884034,9.96347
1587369500644,-0.30286652,0.045489833,9.97185
1587369500655,-0.35913026,0.08259996,9.895236
1587369500666,-0.34476504,0.110133275,9.800665
1587369500677,-2.8682537,0.36391866,9.060856
1587369500689,1.292869,-0.3184288,10.424355
1587369500700,-0.92775315,1.1839328,9.719262
1587369500711,-0.91817635,0.59136784,9.555259
1587369500722,-1.210269,1.2533646,9.645041
1587369500733,-1.3443443,0.9888053,9.781511
1587369500744,-1.400608,1.3335704,9.300277
1587369500753,-1.0103531,1.0067618,9.210494
1587369500764,-1.2880806,1.1731589,9.216479
1587369500776,-1.1097125,0.6787562,9.367314
1587369500787,-0.79248077,0.5722142,9.935937
1587369500798,-0.89064306,0.34356794,9.828198
1587369500810,-0.89184016,0.4165911,9.775525
1587369500819,-0.78050977,0.29688102,9.78989
1587369500830,-0.61770403,0.074220255,9.600749
1587369500841,-0.6787562,0.023942016,9.725247
1587369500852,-0.78170687,0.16998832,9.882068
1587369500862,-0.6464345,0.25378537,9.913192
1587369500874,-0.50038815,0.24779987,9.713276
1587369500883,-0.46926352,0.25378537,9.623494
1587369500894,-0.50876784,0.37588966,9.657013
1587369500905,-0.6607997,0.5638345,9.704897
1587369500916,-0.7194576,0.7374141,9.660604
1587369500927,-0.93732995,0.9959879,9.556456
1587369500938,-1.021127,0.89423436,9.595961
1587369500949,-1.1097125,0.9744401,9.763555
1587369500960,-1.3275849,1.0342951,9.655815
1587369500970,-1.4628572,1.0857705,9.48463
1587369500981,-1.7022774,1.0989386,9.510966
1587369500993,-1.661576,1.1599907,9.7240505
1587369501003,-1.7238252,1.0953473,9.973047
1587369501014,-1.7525556,1.1695676,9.745598
1587369501025,-1.8219875,1.0342951,9.331401
1587369501037,-1.9321208,1.0031705,9.176975
1587369501047,-1.9405005,1.1013328,9.226056
1587369501058,-2.1212628,0.89782566,9.305065
1587369501069,-1.9165585,0.9576807,9.279925
1587369501078,-1.5837644,0.7290344,9.176975
1587369501089,-1.2593501,0.62847793,9.412804
1587369501101,-1.033098,0.5566519,9.361329
1587369501112,-1.079785,0.5267244,9.551667
1587369501123,-1.1133038,0.56982,9.494206
1587369501135,-1.1085154,0.63206923,9.449914
1587369501144,-1.1180922,0.7302315,9.334992
1587369501155,-1.2306197,0.79607207,9.339781
1587369501167,-1.1839328,0.80205756,9.212888
1587369501178,-0.8463503,0.48602295,9.901221
1587369501188,-0.8702923,0.48362875,10.204087
1587369501199,-0.92057055,0.30047232,9.7240505
1587369501210,-1.4341269,0.58538234,9.941922
1587369501221,-2.2026656,1.2653356,9.82341
1587369501232,-2.4169466,1.8459295,9.281123
1587369501243,-2.5139117,2.0709844,9.050082
1587369501254,-2.705448,2.3475149,8.826224
1587369501265,-3.0071173,2.4193408,8.748413
1587369501276,-3.0825348,2.1942859,9.193734
1587369501286,-2.9472623,1.9333179,9.630676
1587369501299,-2.5007436,1.353921,9.64145
1587369501312,-2.6312277,1.0342951,9.23683
1587369501320,-2.5941176,1.1145009,9.232041
1587369501332,-2.4648306,1.3072342,9.619903
1587369501342,-3.38181,1.2557588,8.37013
1587369501352,-3.8606503,1.9141643,9.770737
1587369501364,-2.847903,3.0502129,7.8529816
1587369501374,-3.513491,2.4025815,7.7129207
1587369501386,-3.5877113,2.7748797,8.571242
1587369501397,-3.513491,3.168726,9.287108
1587369501407,-1.7860745,2.1906946,9.387665
1587369501419,-2.5713725,2.1703439,9.425972
1587369501430,-2.3355439,1.483208,9.490616
1587369501440,-1.5837644,2.1511903,9.436746
1587369501453,-1.9548657,1.899799,10.019734
1587369501463,-1.4640543,1.5239093,9.752781
1587369501473,-1.4820108,1.5179238,9.24521
1587369501485,-2.0913353,1.6041151,9.41879
1587369501496,-2.3127987,1.8435353,9.481039
1587369501506,-2.0458453,1.8100165,9.458294
1587369501518,-1.745373,2.2756886,9.821015
1587369501532,-1.9895816,2.2936451,10.0508585
1587369501541,-2.3798366,2.4636335,10.365696
1587369501551,-2.3558946,2.7210102,10.328587
1587369501562,-2.5378537,2.6731262,10.404003
1587369501572,-2.7808652,2.2984335,10.17416
1587369501584,-2.5330653,2.1775265,9.665392
1587369501594,-2.087744,2.0901382,9.238028
1587369501606,-1.9321208,1.4796166,8.948329
1587369501616,-2.0099323,0.973243,8.993818
1587369501628,-2.6599581,0.9816227,8.775947
1587369501639,-2.6599581,0.9816227,8.775947
1587369501649,-3.441665,2.9747956,7.6494746
1587369501661,-3.5757403,3.7936125,7.028179
1587369501672,-2.8419175,4.2820296,4.547786
1587369501681,-2.054225,3.927688,4.5645456
1587369501693,-2.2122424,3.70383,7.2185183
1587369501705,-3.086126,3.9983168,7.477092
1587369501715,-3.5685577,4.727351,7.1227503
1587369501727,-3.8546648,5.1762643,7.7093296
1587369501736,-3.7122097,6.1866174,8.78672
1587369501748,-3.5901055,9.040505,8.947132
1587369501758,-5.932832,8.118738,7.773973
1587369501770,-5.7987566,5.756858,8.711303
1587369501780,-5.3127337,3.3363202,10.831368
1587369501795,-4.993108,3.0885203,10.709264
1587369501805,-5.116409,3.2022448,8.625112
1587369501816,-5.1523223,2.7377696,7.7189064
1587369501826,-5.2049947,2.6048915,8.010999
1587369501836,-4.7046065,2.60968,7.374141
1587369501848,-3.4476504,2.6635494,7.374141
1587369501859,-3.6248214,3.0214825,8.316259
1587369501870,-3.916914,3.2070332,9.016563
1587369501880,-3.776853,3.2321723,9.165004
1587369501892,-3.2142158,3.1280246,8.762778
1587369501903,-2.4947581,3.0573955,8.661025
1587369501913,-2.3690627,3.301604,8.65863
1587369501925,-2.1667526,3.1615434,8.905233
1587369501935,-2.1990743,2.528277,9.4535055
1587369501947,-2.6898856,1.970428,9.205706
1587369501955,-3.015497,1.7968484,7.9583263
1587369501967,-3.276465,1.5263035,7.6470804
1587369501980,-2.8431146,1.7729063,7.7069354
1587369501990,-2.6264393,2.1499932,7.699753
1587369502000,-2.5677812,2.6719291,7.9475527
1587369502013,-2.6372132,3.1040826,8.067263
1587369502023,-2.979584,3.0238767,8.190564
1587369502033,-3.1735144,2.6886885,8.5473
1587369502046,-3.0238767,2.256535,9.208099
1587369502056,-3.1842883,1.8842367,9.062054
1587369502068,-3.3207579,2.779668,9.203311
1587369502078,-3.406949,3.064578,9.119514
1587369502093,-3.442862,2.9340942,9.052477
1587369502104,-3.3171666,2.528277,9.2069025
1587369502114,-3.3913867,2.3894134,9.106346
1587369502124,-3.5924997,2.4241292,8.889671
1587369502134,-3.690662,2.566584,8.700529
1587369502146,-3.6260185,2.4265234,8.801085
1587369502156,-3.7720647,2.1811178,8.829816
1587369502167,-4.1419687,2.328361,8.664616
1587369502177,-4.3167458,2.2230163,8.566454
1587369502190,-4.334702,1.8734628,7.726089
1587369502200,-4.047398,2.0374656,7.4723034
1587369502210,-3.7816415,2.4229321,7.9307933
1587369502222,-3.775656,2.4648306,8.323442
1587369502232,-3.7780502,2.2110453,8.342596
1587369502244,-3.8786068,1.7776948,8.534132
1587369502254,-4.0797195,1.9728222,8.6813755
1587369502266,-4.2676644,2.6013002,9.02614
1587369502278,-4.6112323,2.2960393,9.163807
1587369502286,-4.7165775,1.1420342,8.793902
1587369502298,-4.477157,0.1328782,8.723274
1587369502310,-4.3993454,1.2473791,8.64666
1587369502321,-4.011485,2.2709002,9.320627
1587369502331,-3.9097314,2.8921957,9.301474
1587369502343,-3.83192,2.6611552,8.48146
1587369502354,-4.1012673,1.7992426,7.989451
1587369502364,-3.9851487,0.8870517,7.7440453
1587369502376,-4.048595,0.51116204,8.408437
1587369502387,-3.9971197,1.0043676,8.6574335
1587369502397,-3.7600937,1.8614918,8.534132
1587369502409,-3.8067808,1.7764976,7.5453267
1587369502419,-3.7984009,1.4688427,7.639898
1587369502431,-3.4943373,1.4161704,7.85777
1587369502442,-3.0358477,1.8411411,7.881712
1587369502452,-2.9005754,2.4145525,8.159439
1587369502464,-3.027468,2.6048915,8.53054
1587369502474,-2.9376855,1.8698715,8.611943
1587369502487,-2.9580362,0.15322891,7.8517847
1587369502497,-2.7114334,0.7745243,7.5453267
1587369502510,-2.4720132,1.4377182,7.8086886
1587369502520,-2.6252422,1.8076223,8.431181
1587369502529,-2.9412768,1.5777789,8.905233
1587369502541,-3.3686419,1.0247183,8.941146
1587369502555,-3.5194764,0.760159,8.504205
1587369502564,-3.5984852,0.5470751,8.201338
1587369502572,-3.1555579,-0.059855044,7.9092455
1587369502583,-2.565387,-0.6655881,7.4232225
1587369502594,-2.5761611,-1.3204023,6.849811
1587369502605,-3.1794999,-1.9680338,6.931214
1587369502614,-3.3315318,-2.4540567,7.0844426
1587369502626,-3.0585926,-2.3020248,7.9248075
1587369502639,-3.0358477,-2.1188686,9.144653
1587369502649,-3.169923,-1.460463,9.457097
1587369502659,-2.7473464,-0.6751649,10.201694
1587369502671,-2.4540567,-0.45370123,10.648212
1587369502681,-2.0853498,-0.65242,10.560823
1587369502693,-1.8770541,-1.2354081,10.390836
1587369502704,-1.6101006,-1.412579,9.900024
1587369502714,-1.3838485,-1.0067618,9.497798
1587369502726,-1.4221559,-0.7457938,9.986216
1587369502736,-1.9273324,-0.48123455,11.180922
1587369502748,-1.8722657,0.08140286,11.955446
1587369502758,-1.5095441,0.35434186,12.372037
1587369502771,-1.4568717,0.50038815,12.518084
1587369502781,0.61890113,1.79206,12.054806
1587369502792,2.067393,1.3084313,12.018892
1587369502802,0.39384618,0.44771573,11.432313
1587369502814,0.4225766,-0.5554548,10.390836
1587369502825,0.2741361,-1.5885528,9.329007
1587369502836,-0.30645782,-1.6220716,8.993818
1587369502847,-0.6871359,-2.5725696,9.745598
1587369502857,-2.2182279,-3.3303347,11.71004
1587369502869,-2.542642,-1.3910311,11.058818
1587369502879,-2.1823149,-0.6847417,9.427169
1587369502892,-2.2517467,-0.32680854,9.324219
1587369502902,-2.4145525,-0.7661445,10.225636
1587369502912,-2.657564,-1.1252748,10.878056
1587369502924,-2.6360161,-1.1623849,10.808623
1587369502934,-2.2625206,-1.1444284,10.180145
1587369502946,-1.9931729,-1.1432313,9.507375
1587369502956,-1.6639702,-1.5957354,8.403648
1587369502968,-0.8690952,-0.80445176,8.334216
1587369502978,-0.47764325,-0.33638534,8.598776
1587369502990,-0.33159694,-0.19512744,8.637083
1587369503001,-0.5674258,-0.51595044,9.11712
1587369503011,-0.93972415,-1.0630256,9.858126
1587369503023,-1.1480197,-1.4293385,10.498574
1587369503033,-1.0630256,-1.2006922,10.338163
1587369503045,-0.59735334,-0.60094464,10.092757
1587369503053,-0.17956513,-0.24061728,10.424355
1587369503066,-0.48841715,-0.7422025,11.025299
1587369503076,-1.0223241,-1.1587936,10.503363
1587369503088,-1.4077905,-1.2593501,9.235633
1587369503097,-1.4077905,-1.2593501,9.235633
1587369503110,-1.2904748,-1.721431,8.965088
1587369503120,-1.6436194,-1.210269,9.339781
1587369503132,-1.8363527,-0.7433996,9.148245
1587369503142,-1.4688427,-0.027533319,9.919178
1587369503155,-1.3575124,0.78769237,10.481815
1587369503161,-1.5849615,1.2318168,10.724827
1587369503173,-1.3060371,0.8331822,10.268731
1587369503186,-1.3060371,0.7350199,9.721656
1587369503196,-0.80684596,0.7445967,9.275137
1587369503209,-0.4249708,0.79367787,8.632295
1587369503219,-0.035913024,1.0426749,8.261193
1587369503229,-0.51116204,1.5562311,8.991425
1587369503241,-0.31124622,2.4253263,9.229648
1587369503251,-0.4345476,2.8658595,10.06283
1587369503263,-0.45489833,2.658761,10.1382475
1587369503271,-0.5267244,2.5210943,10.184934
1587369503283,-0.59256494,2.5067291,10.205285
1587369503295,-0.7314286,2.134431,9.959879
1587369503306,-0.6380547,1.1121067,9.707291
1587369503316,-0.48123455,0.39025488,9.526528
1587369503328,-0.02633622,1.2114661,8.504205
1587369503339,-0.23343466,1.3084313,8.439561
1587369503349,-0.46567222,0.8870517,9.288305
1587369503361,-0.6847417,0.50876784,9.728839
1587369503371,-0.6500258,0.32321724,10.14543
1587369503384,-0.51475334,0.35553896,10.307038
1587369503394,-0.40222588,1.1575965,10.394426
1587369503404,-0.110133275,1.5310919,10.740389
1587369503418,-0.074220255,1.8818425,10.556035
1587369503428,0.06703765,1.9692309,9.951499
1587369503437,0.06703765,1.9692309,9.951499
1587369503450,-0.32321724,1.7429788,9.8198185
1587369503460,-0.641646,1.543063,9.733627
1587369503471,-0.89184016,1.2545617,9.627085
1587369503482,-0.973243,1.0953473,9.455899
1587369503492,-0.8834604,1.2449849,9.42238
1587369503504,-0.78649527,1.5406688,9.479841
1587369503514,-0.7541735,1.7022774,9.485827
1587369503526,-0.62129533,1.5610195,9.546879
1587369503536,-0.60573304,1.4377182,9.460688
1587369503548,-0.94451255,1.4341269,9.4295635
1587369503558,-0.94451255,1.4341269,9.4295635
1587369503570,-1.021127,1.5071499,9.279925
1587369503581,-0.91099375,1.5275006,9.241618
1587369503591,-0.78888947,1.6675615,9.300277
1587369503603,-0.6871359,1.7669208,9.352949
1587369503613,-0.6787562,1.6112977,9.200917
1587369503626,-0.7637503,1.6184803,9.118318
1587369503636,-0.89662856,1.6208745,9.148245
1587369503647,-0.7553706,1.697489,9.180567
1587369503657,-0.7553706,1.697489,9.180567
1587369503670,-0.6787562,1.9249382,9.436746
1587369503680,-0.5710171,1.9536686,9.683349
1587369503690,-0.5530606,1.8938135,9.646238
1587369503703,-0.59017074,1.8471266,9.539697
1587369503708,-0.61530983,1.7896658,9.564836
1587369503721,-0.50397944,1.6555905,9.458294
1587369503734,-0.51595044,1.5526398,9.339781
1587369503743,-0.62249243,1.4772224,9.210494
1587369503754,-0.6967127,1.496376,9.363723
1587369503765,-0.7457938,1.6687586,9.417592
1587369503776,-0.7541735,1.8770541,9.552865
1587369503787,-0.78290397,1.9776106,9.714474
1587369503798,-0.79008657,1.9081788,9.671378
1587369503809,-0.79487497,1.8183962,9.655815
1587369503819,-0.7781156,1.7896658,9.619903
1587369503831,-0.89423436,1.6783354,9.755175
1587369503841,-0.8595184,1.7369933,9.763555
1587369503853,-0.7254431,1.8447324,9.639056
1587369503864,-0.62967503,1.9428947,9.592369
1587369503874,-0.58538234,1.9752164,9.545682
1587369503886,-0.58538234,2.0362685,9.580399
1587369503897,-0.545878,2.111686,9.635465
1587369503908,-0.5746084,2.1380222,9.660604
1587369503918,-0.5446809,1.9656396,9.441534
1587369503930,-0.60932434,1.7561469,9.272743
1587369503940,-0.6895301,1.6400281,9.247604
1587369503952,-0.7266402,1.7956513,9.367314
1587369503962,-0.7673417,2.0290859,9.166202
1587369503974,-0.842759,1.970428,9.465476
1587369503984,-0.89662856,1.8854338,9.53012
1587369503996,-0.92296475,1.6986861,9.690532
1587369504007,-1.0319009,1.5239093,9.3026705
1587369504017,-1.1097125,1.6089035,9.0476885
1587369504029,-1.1408371,1.6340426,9.314642
1587369504037,-1.1408371,1.6340426,9.314642
1587369504050,-1.1109096,1.4449008,9.235633
1587369504060,-1.2054806,1.376666,9.43076
1587369504072,-1.389834,1.2940661,9.396045
1587369504083,-1.4700398,1.13964,9.441534
1587369504093,-1.4161704,1.1192893,9.440337
1587369504105,-1.3802572,1.2318168,9.556456
1587369504115,-1.4197617,1.2282255,9.707291
1587369504127,-1.4580688,1.2725182,9.652225
1587369504137,-1.4688427,1.3551182,9.605537
1587369504149,-1.3599066,1.5394717,9.526528
1587369504159,-1.3036429,1.6472107,9.487024
1587369504171,-1.1803415,1.7286136,9.39365
1587369504181,-1.1180922,1.7645266,9.307459
1587369504193,-1.1372458,1.650802,9.435549
1587369504204,-1.2737153,1.5071499,9.464279
1587369504214,-1.1336545,1.661576,9.556456
1587369504226,-1.1528081,1.9883845,9.65821
1587369504237,-1.021127,2.03148,9.527725
1587369504248,-0.9780314,1.9297266,9.458294
1587369504258,-0.8750807,1.7657237,9.352949
1587369504271,-0.89303726,1.7322049,9.320627
1587369504281,-0.9780314,1.6412252,9.43076
1587369504291,-1.021127,1.6232687,9.593566
1587369504303,-1.0031705,1.7166426,9.518148
1587369504313,-0.9911995,1.8662802,9.688137
1587369504325,-0.79248077,1.9476831,9.731233
1587369504335,-0.6332663,2.0398598,9.583989
1587369504348,-0.7098808,2.018312,9.673772
1587369504358,-0.8702923,1.875857,9.725247
1587369504370,-0.93972415,1.7836803,9.801862
1587369504381,-1.0151415,1.7836803,9.781511
1587369504391,-1.0378864,1.7070658,9.746795
1587369504403,-0.9696517,1.5634137,9.660604
1587369504413,-0.92416185,1.5406688,9.5385
1587369504425,-0.90021986,1.661576,9.5013895
1587369504435,-0.89782566,1.8710686,9.539697
1587369504448,-0.89423436,1.8243817,9.533711
1587369504458,-0.9888053,1.7262194,9.55047
1587369504468,-1.0989386,1.5310919,9.667787
1587369504480,-1.1731589,1.4257472,9.66659
1587369504490,-1.1145009,1.4688427,9.51336
1587369504503,-1.0522517,1.4544775,9.478644
1587369504513,-1.0043676,1.4640543,9.516952
1587369504523,-1.0175357,1.484405,9.55047
1587369504536,-0.93972415,1.4520833,9.600749
1587369504547,-0.78290397,1.4820108,9.721656
1587369504557,-0.8475474,1.5227122,9.671378
1587369504567,-0.8798691,1.4556746,9.5732155
1587369504579,-0.80325466,0.724246,9.516952
1587369504587,-0.80325466,0.724246,9.516952
1587369504599,-0.82360536,1.1216835,9.425972
1587369504611,-0.7685388,1.6603789,9.232041
1587369504622,-0.8762778,2.0027497,9.113529
1587369504632,-0.91338795,1.8650831,9.192537
1587369504644,-0.7254431,1.4281414,9.028535
1587369504654,-0.82360536,1.353921,9.127894
1587369504666,-0.7637503,1.3718776,9.120711
1587369504676,-0.62847793,1.2988545,8.871715
1587369504688,-0.82719666,1.8195933,9.41879
1587369504697,-0.82719666,1.8195933,9.41879
1587369504709,-1.0630256,1.6364368,9.981427
1587369504720,-1.0809821,0.90500826,9.965864
1587369504730,-1.0055647,1.0450691,9.688137
1587369504742,-1.0067618,1.1372458,9.358934
1587369504752,-0.91099375,1.34195,9.502586
1587369504764,-0.92895025,1.4975731,9.970653
1587369504774,-1.0510546,1.3215994,9.913192
1587369504785,-1.0690111,1.1552023,9.703699
1587369504797,-1.0989386,1.0546459,9.91439
1587369504805,-1.0833763,0.736217,9.974244
1587369504816,-1.316811,0.93014735,9.721656
1587369504827,-1.1528081,1.271321,9.736021
1587369504838,-1.0582372,1.3060371,9.977836
1587369504849,-1.0761937,1.2785037,9.941922
1587369504860,-1.0570401,1.0941502,9.882068
1587369504871,-0.94930094,0.7170634,9.919178
1587369504881,-1.079785,0.59376204,9.854534
1587369504895,-1.2318168,0.79248077,9.734824
1587369504905,-1.0953473,1.0115502,9.864111
1587369504917,-1.0606314,1.0426749,9.985018
1587369504928,-1.3263878,0.2741361,9.360131
1587369504938,-0.8319851,0.37229836,9.143456
1587369504950,-0.7781156,0.79607207,9.419987
1587369504960,-0.8726865,0.79846627,9.617508
1587369504973,-1.1611878,0.60094464,9.750386
1587369504983,-1.1803415,0.17956513,9.710882
1587369504993,-1.1731589,0.061052144,9.690532
1587369505005,-0.8379706,0.020350715,9.424775
1587369505015,-0.93852705,0.4429273,9.557653
1587369505027,-1.1528081,0.8283938,9.783905
1587369505037,-0.9792285,0.029927522,9.660604
1587369505049,-0.8295909,-0.29927522,9.358934
1587369505060,-0.6715736,-0.02633622,9.131485
1587369505070,-0.78888947,0.07182605,9.271546
1587369505082,-0.79966336,0.18435353,9.500193
1587369505093,-0.6596026,0.1352724,9.543288
1587369505103,-0.60094464,0.05267244,9.409213
1587369505115,-0.5494693,0.2789245,9.566033
1587369505126,-0.5279215,0.28491,9.835381
1587369505136,-0.6488287,0.11971009,9.787497
1587369505149,-0.49081135,0.33638534,9.718064
1587369505159,-0.32680854,0.40701428,9.630676
1587369505169,-0.46686932,-0.29927522,9.64145
1587369505181,-0.29568392,-0.4261679,9.768343
1587369505192,-0.34715924,-0.20111294,9.722853
1587369505202,-0.37349546,-0.07182605,9.757569
1587369505214,-0.24181437,-0.076614454,9.850943
1587369505224,-0.23822308,-0.110133275,9.91439
1587369505236,-0.16400282,-0.10534488,9.853337
1587369505244,-0.10295067,0.047884032,9.653421
1587369505256,0.2633622,0.08499416,9.733627
1587369505269,-0.077811554,-0.23104046,9.44752
1587369505279,0.03232172,0.017956512,9.882068
1587369505289,0.23582886,0.07062895,10.356119
1587369505301,0.8846575,-0.2633622,10.635044
1587369505312,1.0965444,-0.5602432,10.210073
1587369505322,1.3024458,-0.8331822,9.838972
1587369505334,1.8698715,-1.1264719,10.036493
1587369505344,2.4253263,-1.1959038,10.075998
1587369505356,2.6360161,-0.8870517,9.737218
1587369505366,2.7856536,-0.9600749,9.2787285
1587369505379,1.9201498,-2.7868507,7.261614
1587369505389,1.4508862,-4.048595,7.338228
1587369505399,0.9983821,-4.331111,7.825448
1587369505412,0.79846627,-4.084508,8.374918
1587369505421,1.2210429,-4.0174704,8.304289
1587369505433,1.4939818,-4.2317514,7.6614456
1587369505442,0.45609543,-4.0617633,7.4866686
1587369505453,-0.36272156,-4.188656,8.167819
1587369505463,-1.3874398,-4.823119,8.537724
1587369505474,-2.2337902,-5.057751,8.811859
1587369505485,-2.8898015,-5.0984526,8.926781
1587369505496,-3.787627,-5.616797,8.760384
1587369505508,-2.693477,-6.054936,6.9168487
1587369505518,-2.693477,-6.054936,6.9168487
1587369505530,-3.8007953,-6.7648168,5.294777
1587369505540,-3.5853171,-7.776367,3.6942532
1587369505553,-4.3742065,-8.078036,2.6144683
1587369505562,-5.7424927,-9.344569,2.4181437
1587369505576,-6.731298,-10.873267,2.0027497
1587369505586,-7.1646485,-10.748769,1.9680338
1587369505597,-7.6123643,-9.774328,1.9680338
1587369505607,-8.128315,-7.7572136,3.2142158
1587369505619,-6.6403184,-7.264008,1.9357121
1587369505629,-7.038953,-6.932411,0.60573304
1587369505641,-7.079654,-8.11395,-0.3196259
1587369505651,-7.2233067,-10.335769,-1.804031
1587369505663,-7.627927,-11.656171,-3.4081461
1587369505673,-8.364143,-11.900379,-3.787627
1587369505685,-8.955511,-11.587936,-3.807978
1587369505696,-9.78989,-11.025299,-3.0214825
1587369505706,-10.78109,-10.86369,-2.100912
1587369505718,-11.835736,-10.842142,-0.80325466
1587369505728,-13.521255,-10.125079,0.9552865
1587369505739,-13.6014595,-8.485051,1.1587936
1587369505751,-12.830527,-7.273585,0.79128367
1587369505761,-11.544841,-6.817489,-1.0833763
1587369505773,-10.747571,-6.9707184,-3.084929
1587369505783,-10.581175,-7.937976,-4.289212
1587369505795,-10.335769,-8.643068,-4.4101195
1587369505805,-10.3453455,-8.791509,-3.86903
1587369505817,-10.626664,-8.731653,-2.7353754
1587369505827,-10.890026,-8.281544,-1.2892777
1587369505840,-10.175357,-6.0968347,0.700304
1587369505850,-9.096769,-5.7305217,0.9744401
1587369505861,-7.751228,-4.7081976,3.192668
1587369505871,-6.6367273,-2.4384944,4.128801
1587369505882,-6.105214,-1.2844892,4.9799395
1587369505894,-5.473145,-1.9033904,2.1511903
1587369505901,-5.0517654,-3.6727054,0.9792285
1587369505912,-3.7134068,-6.205771,1.0450691
1587369505923,-4.189853,-7.398083,-0.48123455
1587369505934,-4.4161053,-7.6494746,0.035913024
1587369505945,-4.6962266,-8.365341,-0.557849
1587369505956,-5.1571107,-9.455899,-1.3910311
1587369505968,-4.957195,-10.084377,-2.0374656
1587369505980,-4.7189717,-9.100361,-3.0346506
1587369505993,-4.0306387,-6.3661823,-3.2561142
1587369506002,-3.6020765,-5.542577,-3.843891
1587369506017,-2.8754363,-5.105635,-4.083311
1587369506025,-2.6276364,-5.8334723,-4.226963
1587369506037,-3.0370448,-6.7001734,-4.9655743
1587369506047,-3.596091,-6.740875,-5.3498435
1587369506059,-5.103241,-7.1849995,-5.085284
1587369506069,-5.556942,-7.920019,-5.0122614
1587369506081,-5.8119245,-8.148665,-5.064934
1587369506091,-5.535394,-8.020576,-5.377377
1587369506103,-4.817134,-8.026561,-5.425261
1587369506113,-4.301183,-8.192958,-5.2145715
1587369506126,-3.8989575,-7.8912888,-5.058948
1587369506136,-3.489549,-7.466318,-4.378995
1587369506146,-4.07134,-7.5920134,-4.5441947
1587369506159,-4.7201686,-7.559692,-3.9983168
1587369506169,-4.8985367,-7.3406224,-3.2237926
1587369506179,-5.433641,-7.1861963,-2.9233203
1587369506191,-5.9986725,-7.3406224,-3.4608185
1587369506201,-6.1866174,-7.4746976,-3.5122938
1587369506213,-5.943606,-7.765593,-3.5230677
1587369506224,-5.183447,-7.8769236,-4.0426097
1587369506234,-4.2640734,-7.9607205,-4.3981485
1587369506246,-3.657143,-8.051701,-4.938041
1587369506256,-3.3758245,-7.6841903,-5.255273
1587369506269,-5.318719,-7.843405,-3.3770216
1587369506279,-6.1866174,-8.67539,-2.7665
1587369506289,-6.611588,-9.821015,-2.1416135
1587369506301,-6.4104753,-10.135853,-2.2756886
1587369506311,-5.626374,-10.408792,-3.144784
1587369506323,-4.819528,-10.672154,-3.678691
1587369506333,-4.1934443,-10.404003,-4.104859
1587369506345,-3.9324763,-9.871294,-4.477157
1587369506356,-4.0138793,-9.197326,-4.5525746
1587369506366,-4.134786,-8.451532,-4.435259
1587369506378,-4.343082,-6.825869,-4.223372
1587369506389,-4.5418005,-6.7109475,-4.4927197
1587369506398,-4.5418005,-6.7109475,-4.4927197
1587369506410,-4.19943,-5.3223104,-4.7046065
1587369506423,-3.8618474,-4.6962266,-4.973954
1587369506433,-3.6846764,-4.2425256,-5.4779334
1587369506443,-3.7984009,-4.7070007,-5.8083334
1587369506454,-4.450821,-5.708974,-5.74369
1587369506466,-5.1726727,-6.815095,-6.1902084
1587369506476,-5.705383,-8.172607,-6.181829
1587369506488,-4.984728,-10.45069,-3.8534677
1587369506498,-4.984728,-10.45069,-3.8534677
1587369506510,-3.882198,-8.84059,-3.3530796
1587369506520,-3.1711202,-9.173384,-3.6882677
1587369506532,-3.7900212,-9.516952,-4.8015714
1587369506542,-4.0785227,-8.670602,-4.960786
1587369506554,-4.8985367,-7.8733325,-4.64116
1587369506562,-6.0836663,-7.4926543,-4.3023806
1587369506574,-6.078878,-6.254852,-5.2768207
1587369506586,-5.100847,-5.130774,-5.507861
1587369506597,-3.6128504,-5.2899885,-6.0010667
1587369506607,-1.9129672,-5.8095303,-6.573281
1587369506619,-1.389834,-7.66384,-6.8653736
1587369506629,-1.2078748,-7.7308774,-6.206968
1587369506641,-1.1875241,-7.4567413,-5.6407394
1587369506652,-2.1080947,-8.007407,-4.465186
1587369506662,-3.4632127,-8.565256,-3.620033
1587369506674,-4.23654,-8.346188,-3.8067808
1587369506684,-4.608838,-8.015787,-4.2054152
1587369506696,-4.9416323,-7.6985555,-4.5753193
1587369506707,-5.2325277,-7.2065473,-5.374983
1587369506717,-4.474763,-6.482301,-6.4978633
1587369506729,-3.6583402,-6.5361705,-6.9120603
1587369506739,-3.2632968,-6.302736,-6.743269
1587369506751,-3.004723,-5.935226,-6.131551
1587369506761,-3.3327289,-6.599617,-5.400122
1587369506774,-3.632004,-6.9144545,-4.97156
1587369506780,-3.7337575,-6.8318543,-4.92607
1587369506792,-3.70383,-6.8007298,-4.76925
1587369506804,-3.570952,-6.815095,-4.5154643
1587369506816,-3.3028011,-6.5457473,-4.3634324
1587369506826,-3.0370448,-6.289568,-4.4759603
1587369506839,-2.4133554,-6.5696893,-4.7788267
1587369506849,-0.48602295,-5.603629,-4.045004
1587369506859,-0.077811554,-5.8226986,-3.2992098
1587369506871,-3.2585084,-7.4854717,-3.7481227
1587369506881,-4.531027,-6.6295447,-4.1958385
1587369506893,-5.7963624,-6.7684083,-3.3207579
1587369506904,-6.597223,-7.776367,-3.1603463
1587369506914,-6.779182,-8.588001,-3.3171666
1587369506926,-7.0940194,-9.639056,-4.213795
1587369506937,-5.934029,-9.081207,-4.0797195
1587369506952,-5.1247888,-7.678205,-3.0454245
1587369506962,-4.4484267,-6.075287,-1.685518
1587369506972,-5.1116204,-8.080431,-2.598906
1587369506981,-5.482722,-9.475053,-3.819949
1587369506991,-5.6826377,-10.081984,-4.6375685
1587369507002,-5.5102553,-9.764751,-4.8841715
1587369507013,-5.1319714,-9.126697,-4.763264
1587369507024,-5.2983685,-8.78672,-4.143166
1587369507035,-5.117606,-8.259995,-3.6224272
1587369507046,-4.9655743,-7.6949644,-3.9803603
1587369507057,-5.151125,-7.8625584,-4.2078094
1587369507068,-5.1642933,-8.007407,-3.2034419
1587369507079,-4.619612,-8.118738,-3.1471782
1587369507090,-4.9907136,-8.177396,-3.0490158
1587369507101,-5.315128,-8.959103,-2.4911668
1587369507110,-4.721366,-8.136695,-2.7688942
1587369507121,-4.654328,-8.431181,-2.3415294
1587369507132,-4.261679,-8.51019,-1.5119383
1587369507143,-4.519056,-8.665813,-0.82121116
1587369507155,-6.277597,-7.795521,-0.8499416
1587369507166,-7.368156,-6.9946604,-0.7074866
1587369507177,-8.597578,-6.745663,-1.0654198
1587369507190,-8.401254,-5.7963624,-4.8267107
1587369507199,-7.943961,-6.021417,-4.7656584
1587369507210,-7.7907324,-6.6056023,-3.1747115
1587369507219,-8.5700445,-7.4842744,-0.93852705
1587369507230,-9.259575,-7.455544,1.2677298
1587369507242,-10.540473,-7.451953,1.9369092
1587369507257,-7.1275387,-6.2979474,-7.1634517
1587369507266,-7.1275387,-6.2979474,-7.1634517
1587369507275,-6.716933,-6.7564373,-10.503363
1587369507287,-4.6351743,-9.988609,-2.7281928
1587369507296,-1.6496049,-11.4119625,-1.5095441
1587369507307,-0.9648633,-9.953894,-2.4672248
1587369507318,-2.360683,-9.478644,-1.8327614
1587369507329,-4.8015714,-9.028535,-1.0522517
1587369507338,-6.671443,-8.499416,-0.94930094
1587369507349,-7.0664864,-7.386112,-1.4891934
1587369507360,-6.787562,-6.209362,-2.1152773
1587369507371,-6.6893997,-5.3043537,-3.928885
1587369507381,-6.1985884,-5.403713,-5.3199162
1587369507393,-5.2504845,-6.0609217,-5.494693
1587369507404,-3.7349546,-6.9371996,-5.6299653
1587369507415,-2.5725696,-7.66384,-5.151125
1587369507426,-2.4624364,-8.313866,-4.1683054
1587369507435,-3.0753522,-8.582016,-3.0573955
1587369507445,-4.11683,-8.206126,-1.412579
1587369507457,-4.8781857,-7.8410106,-1.1683705
1587369507467,-5.8933277,-7.8948803,-1.6567876
1587369507478,-6.3913217,-7.656657,-1.7106571
1587369507489,-5.5282116,-7.916428,-1.7142484
1587369507500,-4.7405195,-7.3202715,-1.9285295
1587369507511,-4.390966,-7.217321,-2.480393
1587369507522,-4.6232033,-7.358579,-2.2385786
1587369507533,-5.201403,-7.9511437,-0.8690952
1587369507543,-5.7305217,-8.36175,-0.059855044
1587369507554,-5.4563856,-7.967903,-0.4201824
1587369507565,-5.222951,-7.632715,-1.9512744
1587369507576,-5.5509567,-7.7847466,-2.3199813
1587369507588,-5.9543796,-6.811504,-3.0921116
1587369507597,-5.9543796,-6.811504,-3.0921116
1587369507608,-5.2157683,-6.221333,-4.8015714
1587369507619,-6.0405707,-5.741296,-9.985018
1587369507630,-6.6786256,-7.502231,-9.372103
1587369507642,-8.118738,-8.366538,-3.6954503
1587369507649,-9.186552,-7.1287355,-3.0550013
1587369507660,-8.311471,-4.8542438,-4.8422728
1587369507671,-7.3789296,-6.543353,-3.9312792
1587369507682,-7.6590514,-8.171411,-2.5881321
1587369507694,-8.177396,-7.9355817,-1.2425907
1587369507705,-7.041347,-6.9371996,0.007182605
1587369507716,-6.3601966,-6.777985,0.07062895
1587369507727,-6.0118403,-7.1981673,-1.328782
1587369507738,-5.4049106,-9.143456,-2.0338743
1587369507749,-6.519411,-8.597578,-1.3730747
1587369507758,-7.086837,-7.7081323,-0.6715736
1587369507769,-6.9491706,-7.657854,0.06584055
1587369507780,-6.1112,-7.4603324,-0.20111294
1587369507792,-5.556942,-6.895301,-0.31483752
1587369507803,-4.856638,-7.064092,-0.29448682
1587369507814,-4.238934,-7.264008,-0.36511576
1587369507826,-4.6040497,-8.438364,-1.7609353
1587369507835,-4.7644615,-8.734048,-2.3546975
1587369507847,-5.0840874,-8.117541,-2.207454
1587369507858,-5.7843914,-8.428787,-1.9500773
1587369507869,-6.278794,-8.467094,-0.1400608
1587369507879,-3.870227,-8.277952,0.16280572
1587369507890,-2.7700913,-7.553706,-0.41180268
1587369507901,-2.2709002,-7.8290396,-0.6560113
1587369507912,-1.1827357,-9.107543,-0.89782566
1587369507923,-2.2158337,-10.777499,-1.0486604
1587369507934,-4.950012,-9.483433,-2.3343468
1587369507945,-6.9587474,-8.559271,-2.0518308
1587369507956,-7.5704656,-7.4806833,-0.8439561
1587369507968,-6.295553,-7.097611,0.8319851
1587369507975,-6.295553,-7.097611,0.8319851
1587369507987,-0.78888947,-7.9008656,1.7645266
1587369507998,4.131195,-7.669825,3.3746274
1587369508011,-0.7661445,-11.03727,-1.0043676
1587369508021,-3.5458126,-11.219229,-2.883816
1587369508033,-5.9878983,-11.874043,-5.5737014
1587369508043,-5.315128,-8.847773,3.1783028
1587369508054,-4.0497923,-9.52174,-1.6041151
1587369508064,-3.7361517,-8.89805,-5.104438
1587369508076,-4.406528,-8.808268,-1.9153614
1587369508083,-5.057751,-8.568848,-0.1412579
1587369508094,-3.2345665,-9.355343,1.3012487
1587369508105,-2.529474,-11.130644,3.0023289
1587369508115,-1.2485762,-11.543644,4.959589
1587369508126,-0.78290397,-11.314998,3.4261026
1587369508138,-1.4987702,-12.175713,1.4161704
1587369508149,-2.4073699,-11.680113,1.352724
1587369508160,-3.3925838,-10.644621,0.33518824
1587369508171,-3.2333694,-10.522516,-0.12569559
1587369508182,-3.1663318,-10.529699,-0.35673606
1587369508194,-3.2381577,-10.9343195,-0.61530983
1587369508203,-3.3782187,-11.113884,-0.51595044
1587369508214,-3.0131028,-10.8708725,-0.2765303
1587369508226,-1.067814,-11.125855,0.2741361
1587369508235,-1.067814,-11.125855,0.2741361
1587369508246,-1.067814,-11.125855,0.2741361
1587369508257,-1.067814,-11.125855,0.2741361
1587369508268,-1.067814,-11.125855,0.2741361
1587369508279,-1.067814,-11.125855,0.2741361
1587369508290,-1.067814,-11.125855,0.2741361
1587369508300,-1.067814,-11.125855,0.2741361
1587369508311,-2.8395233,-11.674128,0.15562311
1587369508325,-2.2744915,-12.811374,-1.1300632
1587369508334,-1.2653356,-13.597869,-3.4021606
1587369508343,0.2837129,-12.190078,-1.1001357
1587369508354,1.2569559,-8.543709,1.7298107
1587369508365,0.33518824,-5.3247046,5.2684407
1587369508376,-0.5470751,-5.49589,4.173094
1587369508387,-1.827973,-4.571728,1.685518
1587369508399,-3.70383,-5.603629,-0.31603462
1587369508405,-3.70383,-5.603629,-0.31603462
1587369508419,-4.7309427,-9.962274,-0.037110128
1587369508429,-4.2042184,-11.183316,0.11252748
1587369508441,-2.4181437,-10.6158905,-0.8678981
1587369508451,-0.06823475,-9.424775,1.1013328
1587369508463,1.7369933,-10.289082,0.62967503
1587369508475,1.210269,-7.667431,0.05626374
1587369508485,0.32561144,-9.317036,2.8407204
1587369508496,-0.6691794,-10.800244,3.0107086
1587369508508,-0.6691794,-10.800244,3.0107086
1587369508515,-0.8403648,-10.286688,0.89902276
1587369508526,-0.34715924,-10.216059,1.1887212
1587369508537,-0.52073884,-9.685743,-0.8343793
1587369508550,-0.076614454,-9.713276,-0.60573304
1587369508561,1.0582372,-9.108741,-0.7685388
1587369508572,1.2737153,-11.707646,-1.496376
1587369508584,-2.2146366,-13.837289,-1.0726024
1587369508593,-2.7222073,-11.145009,0.14963761
1587369508604,-2.5582044,-9.7324295,0.45848963
1587369508615,-1.400608,-9.307459,-0.60094464
1587369508625,0.11133038,-9.070433,0.7457938
1587369508637,0.5770026,-9.730036,0.8882488
1587369508646,1.6160861,-10.443508,1.2246342
1587369508657,1.7992426,-10.296265,-0.034715924
1587369508668,0.81761986,-9.706094,0.4441244
1587369508679,-0.24899697,-10.241198,0.46686932
1587369508691,-1.30484,-10.183737,0.5662287
1587369508702,-1.0486604,-9.7863,0.23702596
1587369508713,-0.49081135,-9.635465,0.45250413
1587369508724,0.051475335,-9.725247,0.65242
1587369508733,0.12928689,-9.818622,1.0151415
1587369508744,0.20949265,-10.010158,1.0366893
1587369508755,0.25977087,-10.199299,0.6404489
1587369508766,-0.011971008,-10.147824,0.5674258
1587369508777,-0.51954174,-10.699687,0.12808979
1587369508788,-0.8631097,-10.195708,1.0905589
1587369508799,-1.4401124,-9.458294,0.8870517
1587369508810,-1.2785037,-9.174581,1.2378023
1587369508825,-0.8619126,-9.176975,1.0977415
1587369508858,0.4405331,-10.096349,0.038307227
1587369508885,0.641646,-10.4171715,-0.439336
1587369508912,-0.23104046,-9.900024,-0.05626374
1587369508937,0.6895301,-9.540894,0.16879122
1587369508965,0.5650316,-9.712079,0.2753332
1587369508980,2.3175871,-8.713697,-1.2078748
1587369508991,2.3175871,-8.713697,-1.2078748
1587369509003,2.3175871,-8.713697,-1.2078748
1587369509050,2.3175871,-8.713697,-1.2078748
1587369509061,2.3175871,-8.713697,-1.2078748
1587369509073,0.4213795,-10.207679,0.142455
1587369509080,0.4213795,-10.207679,0.142455
1587369509091,-0.34476504,-10.007763,0.35314476
1587369509102,-0.6428431,-9.81503,0.45370123
1587369509113,-0.7158663,-9.4295635,0.3184288
1587369509124,-0.6512229,-9.226056,0.30645782
1587369509135,-0.58298814,-9.412804,0.49320555
1587369509146,-2.0015526,-9.424775,0.8439561
1587369509157,-2.7952304,-9.679757,0.45489833
1587369509168,-2.3702598,-8.955511,0.35793316
1587369509179,-1.9608512,-8.222886,0.4249708
1587369509188,-1.2162545,-8.244433,0.05746084
1587369509198,-0.48243165,-8.916007,-0.6619968
1587369509209,-0.48722005,-9.928755,-1.1468226
1587369509220,-0.8882488,-10.9426985,-1.2174516
1587369509231,-1.7705121,-11.611878,-0.9876082
1587369509242,-3.3267434,-11.6908865,0.09696517
1587369509253,-2.2218192,-12.401965,-0.17836803
1587369509264,-1.3970166,-13.127408,-0.80684596
1587369509275,0.108936176,-13.333309,-0.3842694
1587369509286,0.94092125,-12.999318,0.0047884034
1587369509295,2.0254946,-11.537658,-1.2054806
1587369509306,2.0745757,-10.014946,-1.7369933
1587369509316,1.1731589,-8.852561,-1.3395559
1587369509327,-0.29209262,-8.160637,-0.3196259
1587369509338,-0.6775591,-8.435969,0.05626374
1587369509349,-0.32680854,-8.838196,2.1092918
1587369509360,-1.2090719,-9.022549,2.5031378
1587369509371,-0.557849,-8.39048,1.1216835
1587369509382,0.92416185,-8.343793,-0.037110128
1587369509393,2.0171149,-7.9810715,-1.2629414
1587369509402,2.6252422,-8.069656,-1.5526398
1587369509413,2.5234885,-8.901642,-0.5770026
1587369509424,0.8678981,-10.734404,-1.2006922
1587369509435,0.8822633,-11.057621,-0.12928689
1587369509445,0.7433996,-10.370484,0.81043726
1587369509456,0.7433996,-10.370484,0.81043726
1587369509467,-0.36272156,-10.590752,0.89782566
1587369509478,-0.36272156,-10.590752,0.89782566
1587369509489,-0.02633622,-9.652225,1.7645266
1587369509500,-0.059855044,-10.803835,1.4736311
1587369509509,-0.038307227,-11.663354,1.0522517
1587369509520,-0.035913024,-11.748347,1.0199299
1587369509531,-0.6835446,-11.7543335,0.33279404
1587369509541,-1.5310919,-11.071986,-0.24779987
1587369509552,-1.460463,-10.398018,0.6931214
1587369509563,-1.033098,-10.767922,0.5386954
1587369509574,-0.93373865,-11.949461,0.30526072
1587369509585,-1.4413095,-13.340492,0.45489833
1587369509596,0.45250413,-10.636241,0.8702923
1587369509607,-0.6488287,-4.2820296,2.3942018
1587369509616,-0.6488287,-4.2820296,2.3942018
1587369509627,-0.0047884034,-6.1650696,3.0597897
1587369509638,2.4732103,-8.763975,-0.10055647
1587369509648,3.0825348,-9.827001,-1.7082629
1587369509659,2.5833437,-10.198102,-1.3730747
1587369509670,1.271321,-9.734824,-0.9696517
1587369509681,1.4389153,-8.805874,0.22026655
1587369509692,1.5502456,-7.4735007,0.8343793
1587369509703,1.186327,-7.3633676,0.017956512
1587369509714,0.9588778,-8.853758,1.8411411
1587369509722,1.3874398,-10.861296,2.89459
1587369509733,1.5801731,-12.504915,1.7262194
1587369509744,-0.59855044,-11.669339,1.411382
1587369509755,-3.7576995,-9.745598,-0.5470751
1587369509766,-3.5290532,-10.708067,-0.62129533
1587369509777,-0.52073884,-9.190144,-1.5777789
1587369509788,1.9309237,-10.7990465,-1.827973
1587369509799,2.6659436,-11.036073,-0.33159694
1587369509810,3.7493198,-8.5700445,-8.767567
1587369509821,-0.82360536,-11.206061,1.2892777
1587369509830,-1.745373,-11.136629,3.8546648
1587369509841,-1.5586253,-10.752359,4.6160207
1587369509852,-1.0929531,-10.509348,3.3159695
1587369509863,-0.38307226,-10.260351,1.99437
1587369509874,1.9033904,-12.02009,1.2689269
1587369509885,2.6132712,-13.668497,-0.6464345
1587369509895,1.79206,-14.40232,-1.9512744
1587369509906,1.7836803,-14.772224,-1.0881647
1587369509917,-1.0702082,-11.04565,-0.89303726
1587369509928,-3.0789435,-9.419987,-0.985214
1587369509937,-4.4400473,-8.226477,-0.2705448
1587369509948,-4.534618,-10.09994,-1.8686744
1587369509959,-3.6619315,-10.03769,-1.3215994
1587369509970,-4.367024,-7.517793,-0.7230489
1587369509981,-4.961983,-6.421249,-0.1388637
1587369509992,-5.4551888,-6.8198833,0.7613561
1587369510003,-4.921282,-7.955932,1.1312603
1587369510014,-4.021062,-7.916428,0.79607207
1587369510025,-2.2349873,-6.7085533,-0.35913026
1587369510036,-1.5095441,-5.967548,-1.4329298
1587369510044,-1.6484078,-6.0477533,-2.1440077
1587369510055,-2.1045034,-6.5924344,-2.1440077
1587369510066,-3.5350387,-6.7743936,-1.899799
1587369510077,-3.38181,-10.055647,0.35553896
1587369510088,-3.726575,-10.128671,1.5382746
1587369510099,-3.7852328,-10.204087,1.5634137
1587369510110,-3.3387144,-10.261548,0.61291564
1587369510121,-3.015497,-9.764751,-0.21906945
1587369510132,-2.5689783,-9.358934,-0.18195933
1587369510143,-2.3942018,-8.475474,-0.45729253
1587369510153,-2.8909986,-8.167819,-0.31364042
1587369510164,-2.3104045,-7.717709,-0.39504328
1587369510174,-1.8830396,-7.392098,0.11731588
1587369510185,-2.136825,-7.878121,0.38187516
1587369510196,-2.2098482,-8.689755,0.33399114
1587369510207,-3.4332852,-12.818556,-0.5590461
1587369510218,-0.5530606,-13.51048,-0.1592144
1587369510229,-2.4636335,-11.534067,0.61530983
1587369510240,-2.5187001,-7.821857,1.448492
1587369510251,-1.3371617,-5.9400144,1.7717092
1587369510260,-0.272939,-8.051701,0.8331822
1587369510271,-1.8471266,-8.810662,-1.8195933
1587369510282,-2.0841527,-8.798691,-2.8119898
1587369510293,-4.0282445,-9.169792,-2.6922798
1587369510304,-4.5058875,-10.778696,-1.9069817
1587369510315,-4.056975,-11.766304,0.021547815
1587369510326,-4.0019083,-12.172121,1.0642227
1587369510337,-3.0430303,-12.271481,0.49679685
1587369510348,-2.135628,-11.988965,0.78050977
1587369510359,-1.3263878,-10.7990465,0.29568392
1587369510368,-1.5885528,-10.957064,-0.3842694
1587369510379,-2.171541,-11.162966,-0.8619126
1587369510390,-1.9788077,-10.064027,0.17118542
1587369510401,-2.6994624,-9.26556,1.1492168
1587369510412,-1.8662802,-7.037756,1.2880806
1587369510424,-1.8327614,-6.1183825,1.1647792
1587369510436,-3.4332852,-6.203377,0.79128367
1587369510445,-3.7241807,-6.244078,0.40462008
1587369510457,-4.1240125,-8.14268,-0.16400282
1587369510470,-3.0502129,-12.149377,1.650802
1587369510475,-3.0502129,-12.149377,1.650802
1587369510490,-1.34195,-12.920309,0.79966336
1587369510499,-1.1288661,-12.672509,0.79367787
1587369510510,-1.0737995,-12.695254,0.4225766
1587369510521,-1.186327,-12.340913,1.3323733
1587369510533,-1.2497733,-12.277467,1.1264719
1587369510544,-0.9564836,-11.68131,1.4209588
1587369510555,-0.5351041,-10.861296,1.851915
1587369510566,-0.48243165,-9.949105,1.8602947
1587369510577,-0.46567222,-9.155427,2.030283
1587369510586,-0.46567222,-9.155427,2.030283
1587369510598,-0.7062895,-8.167819,1.7860745
1587369510610,-0.2633622,-9.003395,2.2828712
1587369510620,-0.05267244,-8.117541,2.2266076
1587369510631,0.641646,-7.9714947,2.5007436
1587369510643,0.5303157,-7.809886,1.9847932
1587369510653,0.2669535,-8.84059,2.2840683
1587369510665,0.1388637,-9.179369,1.6711528
1587369510675,-0.12330139,-8.880095,1.4209588
1587369510687,-0.44651863,-8.801085,2.0733786
1587369510695,-0.49679685,-8.684967,2.2756886
1587369510706,-1.2318168,-8.683769,1.0630256
1587369510719,-1.1779473,-9.727641,1.2150574
1587369510728,-0.90620536,-10.019734,1.2282255
1587369510740,-0.9516952,-9.758766,2.0602105
1587369510752,-1.8495208,-10.655395,1.2246342
1587369510762,-2.195483,-10.849325,1.448492
1587369510773,-1.4987702,-10.943896,1.934515
1587369510786,-0.8822633,-10.400413,1.5945383
1587369510796,-0.961272,-10.110714,1.7489643
1587369510807,-2.6611552,-8.755595,1.5777789
1587369510818,-2.5893292,-8.1163435,1.5215151
1587369510829,-1.2473791,-7.382521,1.745373
1587369510840,-0.22625206,-7.917625,2.2170308
1587369510851,-0.038307227,-8.857349,1.5466543
1587369510862,0.5781997,-9.194932,1.6627731
1587369510872,1.1001357,-9.089587,1.887828
1587369510883,1.1109096,-8.895657,1.7980455
1587369510894,0.59615624,-9.108741,1.0929531
1587369510905,0.59615624,-9.108741,1.0929531
1587369510914,-2.8802247,-10.6398325,1.0977415
1587369510925,-2.4313118,-10.33936,2.3475149
1587369510935,-2.100912,-9.908403,3.7373488
1587369510946,-3.323152,-11.201273,-5.771223
1587369510957,-0.92057055,-11.089942,-8.514978
1587369510968,-0.22744916,-9.640253,3.2261868
1587369510979,-1.0941502,-8.158242,13.989321
1587369510989,-1.0881647,-7.501034,7.3992805
1587369511000,-1.2258313,-8.517372,1.8112136
1587369511011,-1.6771383,-8.953117,-0.22505496
1587369511020,-2.1655555,-9.3026705,-0.01436521
1587369511031,-2.267309,-9.800665,1.1695676
1587369511042,-1.757344,-10.171766,1.6891093
1587369511053,0.5758055,-11.07438,1.0726024
1587369511063,1.9812019,-11.827356,0.7386112
1587369511074,0.557849,-10.990582,-1.5598224
1587369511085,-2.0638018,-9.564836,-1.8686744
1587369511096,-3.4979286,-8.415619,-0.9684546
1587369511108,-3.9492357,-7.5704656,0.020350715
1587369511118,-4.155137,-8.491036,0.78888947
1587369511129,-3.5661635,-8.506598,1.3982137
1587369511141,-2.5354595,-8.038532,1.6472107
1587369511149,-2.6671407,-7.823054,1.0127473
1587369511160,-2.1559787,-8.585608,1.4149733
1587369511171,-1.2904748,-9.726444,1.9153614
1587369511182,-0.9888053,-9.4295635,1.6280571
1587369511193,-0.736217,-8.785523,1.448492
1587369511203,-0.8631097,-7.410054,1.7058687
1587369511214,-3.5577838,-6.989872,1.9357121
1587369511225,-5.555745,-7.825448,1.8770541
1587369511234,-5.7424927,-9.42238,1.3634979
1587369511244,-5.54138,-10.656591,0.22625206
1587369511255,-5.2241483,-11.128249,0.34356794
1587369511266,-4.2197804,-11.720815,0.39983168
1587369511277,-2.3762453,-11.909956,1.2354081
1587369511288,-1.9752164,-11.167754,1.4377182
1587369511299,-1.6962919,-10.0664215,1.4652514
1587369511310,-1.9033904,-8.910022,1.7741034
1587369511321,-1.7022774,-7.9990277,1.567005
1587369511332,-1.7824832,-7.32506,0.6404489
1587369511341,-2.8778305,-6.969521,1.6771383
1587369511351,-3.9719806,-7.7213006,0.93613285
1587369511362,-6.754043,-6.1770406,1.1947067
1587369511373,-5.6551046,24.820688,-4.7297454
1587369511384,-3.072958,-5.2684407,-1.7657237
1587369511395,-7.9307933,-17.216705,6.692991
1587369511406,-4.571728,-7.9966335,-1.4772224
1587369511417,0.81283146,-10.837354,-5.233725
1587369511428,4.9416323,-15.907076,2.6396074
1587369511439,5.0757074,-14.298173,-0.037110128
1587369511448,3.2848446,-13.542802,-0.7457938
1587369511459,3.4967315,-14.288596,0.31244332
1587369511470,3.0095115,-12.552799,0.688333
1587369511480,2.2481554,-11.488577,-0.3172317
1587369511491,0.47524905,-10.466252,0.4189853
1587369511502,-2.360683,-11.179725,0.46926352
1587369511513,-3.787627,-12.278664,0.19871874
1587369511524,-5.0421886,-11.613075,0.7230489
1587369511534,-4.175488,-11.050438,-0.30645782
1587369511545,-3.9624038,-10.552444,-0.49320555
1587369511554,-3.1376014,-9.557653,-0.50038815
1587369511565,-2.4349031,-10.259154,0.16998832
1587369511576,-1.3611037,-8.875306,0.4261679
1587369511587,-0.94092125,-9.569624,0.842759
1587369511598,-1.2988545,-10.589554,0.320823
1587369511609,-1.5717934,-10.989386,0.046686932
1587369511620,-1.1779473,-9.018958,0.49081135
1587369511631,-1.1240777,-8.212111,0.78290397
1587369511641,-0.80684596,-7.979874,0.61770403
1587369511652,-0.7793127,-8.153454,0.760159
1587369511661,-0.48243165,-7.1023993,0.60693014
1587369511672,-0.20829555,-6.9288197,0.32202014
1587369511683,-0.6631939,-8.219295,1.3156139
1587369511694,-0.19871874,-8.889671,0.8367735
1587369511705,-0.5554548,-8.89446,0.7733272
1587369511716,-0.4441244,-8.838196,0.29448682
1587369511727,-0.89543146,-9.55885,0.6967127
1587369511738,-0.46088383,-9.5253315,0.4177882
1587369511749,-0.24660277,-10.801441,-0.14604631
1587369511760,-0.08259996,-12.150574,-0.17717093
1587369511769,-0.33638534,-13.685257,-0.04309563
1587369511779,-0.6464345,-14.234726,0.415394
1587369511790,-0.4141969,-13.00291,0.4429273
1587369511801,0.033518825,-11.980585,0.1388637
1587369511813,-0.019153614,-12.424709,0.439336
1587369511824,0.05865794,-13.502101,0.48602295
1587369511835,0.22146365,-14.273033,0.58298814
1587369511846,-0.08259996,-14.018051,-0.81642276
1587369511857,-0.31004912,-14.474147,0.15322891
1587369511867,1.0761937,-13.437457,0.79487497
1587369511878,0.8870517,-12.0488205,0.6919243
1587369511889,0.8870517,-10.18254,0.7733272
1587369511900,-0.09696517,-8.498219,-0.02873042
1587369511911,-0.35314476,-7.419631,0.60214174
1587369511922,-0.93732995,-7.141904,-0.17477672
1587369511933,0.6452374,-9.642648,-0.17956513
1587369511944,2.4552538,-8.090008,-0.45968673
1587369511954,2.042254,-4.677073,-0.40222588
1587369511965,0.46088383,-3.8857894,-0.92895025
1587369511976,0.45370123,-7.5908165,-0.5722142
1587369511985,0.89423436,-6.8282633,-0.09816227
1587369511996,0.92296475,-7.8888946,0.45968673
1587369512007,1.5777789,-11.33894,-0.40342298
1587369512018,2.123657,-10.924743,-0.50038815
1587369512029,1.7717092,-9.818622,-0.107739076
1587369512039,1.4867992,-9.967062,-0.029927522
1587369512050,1.3575124,-9.56723,0.016759412
1587369512061,0.91458505,-9.643845,-0.6536171
1587369512072,0.48362875,-10.064027,-0.557849
1587369512083,0.51714754,-10.260351,-0.08738836
1587369512092,0.6596026,-10.254366,0.20709845
1587369512102,0.7721301,-9.812635,0.25019407
1587369512113,0.7469909,-9.428367,-0.30885202
1587369512124,0.8870517,-9.482236,-0.4345476
1587369512135,0.6847417,-9.42238,-0.79846627
1587369512146,0.8726865,-9.556456,-0.7529764
1587369512157,0.89902276,-10.14543,-0.20470424
1587369512168,0.9923966,-9.661801,-0.06943185
1587369512178,0.89184016,-10.223241,-0.4297592
1587369512189,0.89184016,-9.941922,-0.48602295
1587369512198,1.340753,-9.454702,-0.11611878
1587369512209,1.5646108,-7.2580223,4.4316673
1587369512220,-1.7836803,-7.9487495,-3.5290532
1587369512230,0.8678981,-11.979388,-3.1064768
1587369512241,1.6639702,-10.411186,-0.59495914
1587369512252,1.5753847,-9.284714,-0.4285621
1587369512263,2.1308396,-8.327033,-0.008379706
1587369512274,1.7860745,-7.8613615,-0.61890113
1587369512285,1.9117701,-8.88608,0.7026982
1587369512295,1.8734628,-9.0237465,-0.6679823
1587369512306,1.2856863,-8.878897,-1.3515269
1587369512317,1.8387469,-8.209718,0.8499416
1587369512328,-0.3196259,-7.6710224,-1.483208
1587369512339,-0.45370123,-7.727286,-1.2916719
1587369512350,-1.365892,-8.848969,-1.1252748
1587369512361,-2.789245,-7.1263413,-3.1711202
1587369512371,-1.8207904,-9.038112,-1.0486604
1587369512382,-2.742558,-9.545682,-0.41299978
1587369512393,-1.8662802,-11.200075,-0.11492168
1587369512404,-2.7988217,-9.8437605,-1.8746599
1587369512413,-2.6384103,-10.423157,-1.2294226
1587369512424,-3.6391866,-10.364499,-3.8869865
1587369512434,-4.5633483,-11.036073,-2.7377696
1587369512445,-4.380192,-10.976217,-1.8674773
1587369512456,-3.8175547,-11.510124,-1.7082629
1587369512467,-2.5821466,-11.473015,-1.5957354
1587369512478,-2.1547816,-11.061212,-1.4820108
1587369512489,-1.9381063,-10.705673,-1.2725182
1587369512500,-1.8830396,-10.685322,-1.1839328
1587369512511,-1.6484078,-10.9426985,-1.1300632
1587369512519,-1.483208,-11.070788,-1.2078748
1587369512530,-1.4065934,-11.089942,-1.3084313
1587369512541,-1.353921,-10.83496,-1.400608
1587369512552,-1.3227965,-10.472239,-1.472434
1587369512562,-1.2940661,-10.115502,-1.5286977
1587369512573,-1.2892777,-9.911995,-1.472434
1587369512584,-1.4556746,-9.671378,-1.389834
1587369512595,-1.2018893,-9.487024,-1.3551182
1587369512606,-1.0833763,-9.180567,-1.3862427
1587369512618,-1.0989386,-7.892486,-0.7757214
1587369512626,-1.0989386,-7.892486,-0.7757214
1587369512638,-1.1707647,-8.548497,-0.5506664
1587369512650,-0.9516952,-8.917204,-0.7254431
1587369512660,-0.9624691,-9.387665,-0.8870517
1587369512671,-1.1623849,-9.689334,-0.9552865
1587369512683,-1.3670892,-9.832987,-0.94930094
1587369512693,-1.5179238,-9.825804,-1.0582372
1587369512705,-1.6687586,-9.853337,-1.1540052
1587369512714,-1.7884687,-9.868899,-1.1216835
1587369512726,-1.9117701,-9.78989,-1.1312603
1587369512734,-1.9812019,-9.76954,-1.1492168
1587369512746,-2.007538,-9.739613,-1.1683705
1587369512758,-2.019509,-9.606734,-1.115698
1587369512768,-2.0123265,-9.54209,-1.067814
1587369512780,-1.9871874,-9.498995,-1.043872
1587369512790,-1.9740193,-9.509769,-1.0642227
1587369512802,-1.9548657,-9.633071,-1.1145009
1587369512812,-1.9416976,-9.757569,-1.1480197
1587369512823,-1.8830396,-9.885659,-1.1563994
1587369512834,-1.8590976,-9.994595,-1.1659763
1587369512844,-1.8183962,-10.044873,-1.163582
1587369512855,-1.7884687,-10.05445,-1.1563994
1587369512866,-1.7860745,-10.023325,-1.2030864
1587369512877,-1.8183962,-10.006566,-1.2485762
1587369512888,-1.934515,-9.825804,-1.2808979
1587369512899,-2.12246,-9.688137,-1.2653356
1587369512910,-2.1212628,-9.67018,-1.3850456
1587369512921,-2.066196,-9.67018,-1.4939818
1587369512932,-1.9740193,-9.764751,-1.5095441
1587369512944,-1.9117701,-9.829395,-1.4999673
1587369512952,-1.946486,-9.831789,-1.3718776
1587369512964,-1.9656396,-9.813833,-1.3144168
1587369512975,-2.030283,-9.782708,-1.4305356
1587369512987,-2.134431,-9.714474,-1.6340426
1587369512997,-2.36188,-9.642648,-1.7860745
1587369513009,-2.8323407,-9.564836,-1.7741034
1587369513018,-2.8670566,-9.500193,-1.7741034
1587369513030,-2.767697,-9.400833,-1.7142484
1587369513042,-2.5797524,-9.25359,-1.5610195
1587369513052,-2.2768857,-9.096769,-1.5406688
1587369513064,-1.9213469,-9.03452,-1.5107412
1587369513073,-1.6292542,-9.057265,-1.4089876
1587369513085,-1.4425066,-9.15423,-1.2497733
1587369513097,-1.2413936,-9.338584,-1.1492168
1587369513107,-1.0690111,-9.55047,-1.1336545
1587369513119,-0.59136784,-10.087969,-1.0342951
1587369513129,-0.427365,-10.115502,-1.0726024
1587369513141,-0.29688102,-10.0508585,-1.1180922
1587369513151,-0.24061728,-9.961076,-1.0307038
1587369513163,-0.17477672,-9.836577,-0.89423436
1587369513170,-0.11971009,-9.746795,-0.7302315
1587369513182,-0.075417355,-9.713276,-0.5446809
1587369513193,-0.053869538,-9.586384,-0.521936
1587369513204,0.022744916,-9.5385,-0.4261679
1587369513215,0.01436521,-9.540894,-0.37948096
1587369513226,0.022744916,-9.57561,-0.33877954
1587369513237,0.11731588,-9.76116,-0.19033903
1587369513249,0.15442601,-9.874885,-0.17118542
1587369513260,0.20111294,-10.061633,-0.15203181
1587369513271,0.24779987,-10.278308,-0.11492168
1587369513280,0.31483752,-10.334572,-0.14724341
1587369513292,0.31483752,-10.277111,-0.34835634
1587369513304,0.40462008,-10.143036,-0.5446809
1587369513314,0.4201824,-9.969456,-0.6991069
1587369513325,0.35075054,-9.78989,-0.59495914
1587369513338,0.089782566,-9.668983,-0.11731588
1587369513348,0.06703765,-9.794679,-0.05865794
1587369513357,0.07062895,-9.885659,-0.045489833
1587369513369,0.059855044,-9.933543,-0.073023155
1587369513381,-0.0035913025,-10.036493,-0.20111294
1587369513389,0.11851298,-9.951499,-0.038307227
1587369513401,0.17956513,-9.933543,-0.10295067
1587369513413,0.17357962,-10.000581,-0.047884032
1587369513422,0.17118542,-10.04607,-0.046686932
1587369513434,0.4201824,-9.993398,-0.16759412
1587369513446,0.5506664,-10.005369,-0.4333505
1587369513457,0.51714754,-10.007763,-0.60453594
1587369513467,0.4309563,-9.999383,-0.5746084
1587369513479,0.39863458,-9.983821,-0.095768064
1587369513490,0.4369418,-9.933543,0.027533319
1587369513499,0.35913026,-9.910798,0.07062895
1587369513511,0.25737667,-9.91439,0.06344634
1587369513522,0.18435353,-9.900024,0.035913024
1587369513533,0.090979666,-9.896433,-0.017956512
1587369513544,-0.019153614,-9.93474,-0.09696517
1587369513555,-0.12090719,-9.937134,-0.19273324
1587369513566,-0.30645782,-9.977836,-0.2765303
1587369513577,-0.35434186,-10.135853,-0.22625206
1587369513589,-0.3854665,-10.163386,-0.20111294
1587369513599,-0.38307226,-10.129868,-0.17956513
1587369513611,-0.37469256,-10.111911,-0.17238252
1587369513621,-0.320823,-10.123882,-0.16519992
1587369513632,-0.31364042,-10.121488,-0.15682021
1587369513644,-0.34955344,-10.035296,-0.15203181
1587369513654,-0.41180268,-9.896433,-0.18914193
1587369513666,-0.4429273,-9.794679,-0.2825158
1587369513676,-0.4297592,-9.710882,-0.37469256
1587369513688,-0.32680854,-9.738416,-0.4237737
1587369513699,-0.32441434,-9.805453,-0.4141969
1587369513708,-0.32441434,-9.862914,-0.39624038
1587369513722,-0.36152446,-9.91439,-0.41060558
1587369513732,-0.40222588,-9.945514,-0.46447513
1587369513742,-0.4357447,-9.950302,-0.45370123
1587369513754,-0.4405331,-9.962274,-0.46327803
1587369513763,-0.439336,-9.974244,-0.50158525
1587369513775,-0.39624038,-9.944317,-0.51595044
1587369513787,-0.37349546,-9.922769,-0.5374983
1587369513798,-0.37469256,-9.903615,-0.5243302
1587369513807,-0.37708676,-9.915586,-0.51235914
1587369513819,-0.415394,-9.880871,-0.51595044
1587369513827,-0.415394,-9.880871,-0.51595044
1587369513839,-0.48362875,-9.844957,-0.5243302
1587369513851,-0.49200845,-9.871294,-0.5554548
1587369513860,-0.45729253,-9.856929,-0.59376204
1587369513872,-0.4441244,-9.844957,-0.63087213
1587369513883,-0.44651863,-9.792285,-0.61530983
1587369513894,-0.46208093,-9.77792,-0.5566519
1587369513905,-0.48003745,-9.817424,-0.49559975
1587369513916,-0.50517654,-9.866506,-0.49440265
1587369513927,-0.5315128,-9.909601,-0.47046062
1587369513935,-0.51834464,-9.929952,-0.45609543
1587369513946,-0.48602295,-9.925163,-0.4357447
1587369513957,-0.44771573,-9.913192,-0.40222588
1587369513968,-0.34955344,-9.910798,-0.4297592
1587369513980,-0.31004912,-9.925163,-0.46208093
1587369513992,-0.25139117,-9.925163,-0.49919105
1587369514004,-0.24779987,-9.896433,-0.46926352
1587369514013,-0.2693477,-9.854534,-0.44891283
1587369514025,-0.30286652,-9.866506,-0.46208093
1587369514036,-0.34596214,-9.878476,-0.49081135
1587369514046,-0.37229836,-9.885659,-0.50158525
1587369514057,-0.36990416,-9.862914,-0.46926352
1587369514069,-0.36272156,-9.859323,-0.45848963
1587369514077,-0.35913026,-9.865308,-0.49559975
1587369514088,-0.35314476,-9.870096,-0.5374983
1587369514099,-0.31603462,-9.883265,-0.5626374
1587369514110,-0.30406362,-9.880871,-0.5470751
1587369514121,-0.31004912,-9.876082,-0.5650316
1587369514132,-0.32441434,-9.860519,-0.5638345
1587369514142,-0.34237084,-9.849746,-0.5614403
1587369514153,-0.37948096,-9.864111,-0.5542577
1587369514164,-0.41180268,-9.886856,-0.5267244
1587369514175,-0.4369418,-9.904813,-0.5494693
1587369514186,-0.45729253,-9.898827,-0.5566519
1587369514196,-0.47524905,-9.907207,-0.5446809
1587369514207,-0.44532153,-9.907207,-0.50278234
1587369514218,-0.41180268,-9.928755,-0.59017074
1587369514229,-0.40701428,-9.916783,-0.5686229
1587369514239,-0.4309563,-9.873688,-0.5758055
1587369514250,-0.4441244,-9.873688,-0.5506664
1587369514259,-0.4381389,-9.866506,-0.5386954
1587369514271,-0.4357447,-9.859323,-0.5482722
1587369514283,-0.45130703,-9.847352,-0.557849
1587369514292,-0.45729253,-9.848549,-0.5542577
1587369514304,-0.45609543,-9.828198,-0.5650316
1587369514316,-0.45489833,-9.838972,-0.5781997
1587369514326,-0.4201824,-9.882068,-0.5614403
1587369514339,-0.35194764,-9.928755,-0.6344634
1587369514348,-0.32561144,-9.903615,-0.6727707
1587369514359,-0.32920274,-9.882068,-0.6572084
1587369514368,-0.33997664,-9.860519,-0.6380547
1587369514379,-0.36511576,-9.879673,-0.6440403
1587369514392,-0.39384618,-9.885659,-0.6536171
1587369514401,-0.4381389,-9.900024,-0.6584055
1587369514412,-0.47764325,-9.895236,-0.65242
1587369514423,-0.50038815,-9.882068,-0.6464345
1587369514433,-0.49440265,-9.879673,-0.6332663
1587369514445,-0.50637364,-9.890448,-0.6548142
1587369514457,-0.50637364,-9.885659,-0.6572084
1587369514469,-0.48123455,-9.883265,-0.6500258
1587369514477,-0.48123455,-9.883265,-0.6500258
1587369514488,-0.46088383,-9.871294,-0.6871359
1587369514500,-0.47405192,-9.861717,-0.688333
1587369514512,-0.47644615,-9.871294,-0.676362
1587369514522,-0.48003745,-9.880871,-0.6835446
1587369514533,-0.51116204,-9.888053,-0.6835446
1587369514545,-0.5231331,-9.88925,-0.6488287
1587369514556,-0.5410896,-9.877279,-0.6428431
1587369514566,-0.521936,-9.89763,-0.61530983
1587369514579,-0.50996494,-9.907207,-0.6368576
1587369514585,-0.50996494,-9.907207,-0.6368576
1587369514597,-0.50637364,-9.878476,-0.6452374
1587369514609,-0.51595044,-9.82341,-0.6859388
1587369514621,-0.49559975,-9.822212,-0.6691794
1587369514631,-0.48482585,-9.850943,-0.6512229
1587369514642,-0.47285482,-9.860519,-0.6464345
1587369514654,-0.46686932,-9.880871,-0.6404489
1587369514663,-0.45489833,-9.902418,-0.63087213
1587369514674,-0.4309563,-9.900024,-0.6368576
1587369514685,-0.4261679,-9.909601,-0.63087213
1587369514694,-0.4333505,-9.878476,-0.63206923
1587369514705,-0.4333505,-9.865308,-0.6392518
1587369514716,-0.4369418,-9.876082,-0.6536171
1587369514727,-0.4225766,-9.933543,-0.61291564
1587369514738,-0.41299978,-9.915586,-0.60932434
1587369514749,-0.40462008,-9.902418,-0.60932434
1587369514760,-0.4249708,-9.908403,-0.59974754
1587369514770,-0.4213795,-9.928755,-0.5722142
1587369514781,-0.415394,-9.892841,-0.5494693
1587369514793,-0.41299978,-9.871294,-0.51355624
1587369514801,-0.40581718,-9.870096,-0.50517654
1587369514813,-0.3854665,-9.864111,-0.5386954
1587369514824,-0.40102878,-9.853337,-0.58657944
1587369514836,-0.4237737,-9.853337,-0.5674258
1587369514846,-0.4321534,-9.871294,-0.521936
1587369514858,-0.4417302,-9.91439,-0.5315128
1587369514868,-0.45250413,-9.949105,-0.5386954
1587369514879,-0.47405192,-9.967062,-0.4237737
1587369514891,-0.48602295,-9.89763,-0.4405331
1587369514901,-0.48123455,-9.85214,-0.4201824
1587369514913,-0.45130703,-9.8677025,-0.4345476
1587369514923,-0.4213795,-9.882068,-0.48961425
1587369514934,-0.39504328,-9.900024,-0.5351041
1587369514946,-0.39624038,-9.915586,-0.5554548
1587369514956,-0.3878607,-9.916783,-0.5434838
1587369514968,-0.4321534,-9.959879,-0.5542577
1587369514978,-0.50397944,-9.9790325,-0.5542577
1587369514990,-0.59136784,-10.005369,-0.5398925
1587369515000,-0.6344634,-9.992201,-0.5374983
1587369515012,-0.6811504,-9.91439,-0.5614403
1587369515019,-0.7422025,-9.858126,-0.59495914
1587369515031,-0.78529817,-9.794679,-0.61770403
1587369515042,-0.80325466,-9.7479925,-0.59615624
1587369515054,-0.7577648,-9.738416,-0.61650693
1587369515065,-0.6871359,-9.752781,-0.700304
1587369515076,-0.59495914,-9.739613,-0.7541735
1587369515087,-0.50637364,-9.746795,-0.81043726
1587369515097,-0.40462008,-9.829395,-0.93493575
1587369515108,-0.47285482,-9.870096,-0.90500826
1587369515119,-0.49919105,-9.878476,-0.8846575
1587369515128,-0.51595044,-9.862914,-0.8343793
1587369515139,-0.5446809,-9.849746,-0.8475474
1587369515149,-0.5255273,-9.799467,-0.8331822
1587369515161,-0.5542577,-9.746795,-0.842759
1587369515173,-0.59735334,-9.725247,-0.82360536
1587369515185,-0.59855044,-9.7240505,-0.82719666
1587369515195,-0.60094464,-9.722853,-0.8571242
1587369515206,-0.60214174,-9.734824,-0.8750807
1587369515219,-0.5758055,-9.781511,-0.93852705
1587369515228,-0.557849,-9.785102,-0.9540894
1587369515242,-0.5602432,-9.821015,-0.9804256
1587369515252,-0.5530606,-9.862914,-0.94092125
1587369515261,-0.5542577,-9.886856,-0.93014735
1587369515273,-0.5386954,-9.883265,-0.94331545
1587369515285,-0.5231331,-9.864111,-0.93852705
1587369515295,-0.50397944,-9.844957,-0.92655605
1587369515307,-0.48722005,-9.850943,-0.92655605
1587369515317,-0.47165772,-9.835381,-0.94570965
1587369515329,-0.39504328,-9.8042555,-1.0235212
1587369515339,-0.35314476,-9.782708,-0.9816227
1587369515351,-0.36990416,-9.7863,-0.94570965
1587369515361,-0.37110126,-9.813833,-0.92535895
1587369515372,-0.37828386,-9.818622,-0.8882488
1587369515384,-0.39025488,-9.871294,-0.92535895
1587369515393,-0.35673606,-9.884461,-0.9959879
1587369515404,-0.35913026,-9.873688,-1.0510546
1587369515415,-0.35434186,-9.8198185,-1.067814
1587369515426,-0.36870706,-9.816227,-1.0163386
1587369515438,-0.3196259,-9.838972,-0.9959879
1587369515449,-0.29448682,-9.873688,-0.9540894
1587369515458,-0.2885013,-9.882068,-0.9528923
1587369515470,-0.25737667,-9.920375,-0.9696517
1587369515481,-0.20231004,-9.911995,-0.9959879
1587369515493,-0.18555063,-9.910798,-1.0749966
1587369515503,-0.15203181,-9.85214,-1.1432313
1587369515515,-0.18914193,-9.76954,-1.2569559
1587369515524,-0.2741361,-9.689334,-1.3299791
1587369515536,-0.33638534,-9.636662,-1.2725182
1587369515548,-0.41060558,-9.478644,-0.9959879
1587369515558,-0.4381389,-9.461885,-0.93254155
1587369515570,-0.50397944,-9.441534,-0.8403648
1587369515579,-0.62009823,-9.41041,-0.8295909
1587369515591,-0.6955156,-9.421184,-1.0223241
1587369515603,-0.7422025,-9.427169,-1.3120226
1587369515613,-0.8463503,-9.560047,-1.5143325
1587369515625,-0.8523358,-9.712079,-1.4796166
1587369515634,-0.79966336,-9.800665,-1.5406688
1587369515646,-0.7565677,-10.038888,-1.6196774
1587369515658,-0.4345476,-10.500969,-1.7178397
1587369515668,-0.12449849,-10.481815,-1.8100165
1587369515680,0.017956512,-10.395624,-2.0171149
1587369515690,0.15083471,-10.371682,-2.1643584
1587369515701,0.2801216,-10.34774,-2.1416135
1587369515713,0.24061728,-10.277111,-2.0290859
1587369515722,0.16639702,-10.181343,-1.8255788
1587369515733,0.1592144,-9.96347,-1.7190368
1587369515744,0.15682021,-9.774328,-1.6472107
1587369515754,0.010773907,-9.668983,-1.8195933
1587369515765,-0.18076223,-9.5732155,-1.922544
1587369515776,-0.79726917,-9.688137,-2.0614076
1587369515786,-1.0761937,-9.680955,-2.112883
1587369515798,-1.4640543,-9.593566,-2.007538
1587369515808,-1.4640543,-9.593566,-2.007538
1587369515819,-1.6747441,-9.496601,-1.9129672
1587369515831,-1.5753847,-9.382876,-1.6807296
1587369515841,-1.364695,-9.295488,-1.3623008
1587369515853,-1.1049241,-9.239224,-1.1827357
1587369515863,-0.830788,-9.249998,-1.1815386
1587369515875,-0.6332663,-9.227253,-1.1875241
1587369515884,-0.5793968,-9.132683,-1.3826514
1587369515898,-0.5650316,-8.90643,-1.6292542
1587369515908,-0.521936,-8.907627,-1.62686
1587369515918,-0.521936,-8.907627,-1.62686
1587369515929,-0.50757074,-9.050082,-1.780089
1587369515941,-0.49440265,-9.222465,-1.7896658
1587369515951,-0.41299978,-9.39365,-1.8375498
1587369515963,-0.29688102,-9.562442,-1.9560628
1587369515972,-0.22266077,-9.694122,-2.1092918
1587369515984,-0.1376666,-9.750386,-2.2038627
1587369515996,-0.022744916,-10.035296,-2.4732103
1587369516004,-0.142455,-9.8198185,-2.5019407
1587369516016,-0.34835634,-9.657013,-2.3594859
1587369516029,-0.5746084,-9.770737,-2.2780828
1587369516039,-0.5770026,-9.781511,-2.172738
1587369516048,-0.5243302,-9.835381,-2.0817583
1587369516059,-0.35314476,-10.004171,-1.934515
1587369516070,-0.05267244,-10.143036,-2.0697873
1587369516081,0.22744916,-10.152613,-1.9452889
1587369516092,0.4225766,-10.284293,-2.1918917
1587369516103,0.37948096,-10.538078,-2.420538
1587369516112,0.8678981,-11.640609,-3.122039
1587369516123,0.7182605,-12.02009,-3.4249055
1587369516134,0.39983168,-11.623849,-3.6619315
1587369516145,0.18076223,-11.349713,-3.654749
1587369516157,-0.008379706,-11.067198,-3.7098155
1587369516169,-0.7457938,-10.049662,-3.9444473
1587369516179,-0.7350199,-9.89763,-4.224569
1587369516190,-0.93732995,-9.707291,-4.0761285
1587369516202,-1.4137762,-9.7084875,-3.0705638
1587369516212,-2.3870192,-10.31901,-2.336741
1587369516224,-2.6623523,-10.763134,-1.4736311
1587369516233,-2.9317,-11.014524,-0.557849
1587369516245,-2.8119898,-11.171345,0.045489833
1587369516258,-2.1643584,-11.976994,-0.5243302
1587369516267,-2.4600422,-12.427104,-1.4987702
1587369516279,-2.979584,-12.4869585,-2.055422
1587369516289,-3.0346506,-11.862072,-2.1416135
1587369516301,-2.8778305,-10.875661,-1.8267759
1587369516311,-2.7126305,-9.992201,-1.4796166
1587369516322,-2.60968,-9.417592,-1.2497733
1587369516332,-2.3953989,-9.0476885,-1.1073183
1587369516344,-1.8255788,-8.7125,-1.1827357
1587369516354,-1.1408371,-8.632295,-0.9528923
1587369516366,-0.5398925,-9.179369,-0.6560113
1587369516375,0.015562311,-9.768343,-0.34476504
1587369516387,0.31483752,-10.44231,-1.2593501
1587369516398,0.16759412,-12.968193,-1.4030021
1587369516409,0.21068975,-14.076709,-1.3934253
1587369516420,-0.025139118,-14.434642,-1.1384429
1587369516431,-1.2892777,-12.129025,0.6512229
1587369516440,-1.9405005,-10.955867,0.91338795
1587369516451,-1.7501614,-9.901221,0.30645782
1587369516462,-1.3790601,-9.028535,-0.31244332
1587369516474,-0.92775315,-8.596381,-0.47046062
1587369516486,-0.37349546,-8.313866,-1.2318168
1587369516496,0.37229836,-8.207323,-1.8028339
1587369516508,1.7178397,-7.6710224,-1.2174516
1587369516518,1.7178397,-7.6710224,-1.2174516
1587369516529,1.9081788,-8.243237,-1.2593501
1587369516541,1.3718776,-8.230068,-1.246182
1587369516549,0.78050977,-7.9343843,-1.2868834
1587369516561,0.7278373,-7.3968863,-1.377863
1587369516573,-0.19752164,-7.275979,-1.638831
1587369516583,-0.760159,-7.3765354,-1.127669
1587369516594,-0.9600749,-7.657854,-0.9804256
1587369516606,-0.9900024,-7.9475527,-0.79367787
1587369516616,-1.0845734,-8.170214,-0.7266402
1587369516628,-1.388637,-8.301894,-0.7182605
1587369516638,-1.5251064,-8.128315,-0.78769237
1587369516650,-1.5095441,-7.574057,-1.4640543
1587369516658,-1.5095441,-7.574057,-1.4640543
1587369516669,-1.6220716,-6.7803793,-1.9847932
1587369516681,-1.7753005,-6.697779,-2.0254946
1587369516693,-1.827973,-6.519411,-2.1859062
1587369516704,-2.1511903,-6.47033,-2.337938
1587369516713,-2.4037786,-6.495469,-2.5306711
1587369516724,-2.8993783,-6.9731126,-2.304419
1587369516735,-3.204639,-7.2843585,-2.4744074
1587369516747,-3.406949,-7.37055,-2.8622682
1587369516758,-3.7600937,-7.704541,-3.8175547
1587369516767,-3.7600937,-7.704541,-3.8175547
1587369516778,-4.7896004,-8.36175,-4.3275194
1587369516789,-5.7017913,-8.925584,-4.3873744
1587369516800,-6.657078,-9.442732,-4.3059716
1587369516812,-7.28795,-10.058042,-4.1515455
1587369516824,-7.5441294,-10.614694,-3.7014358
1587369516834,-7.326257,-10.649409,-3.6032736
1587369516846,-7.398083,-11.797429,-4.146757
1587369516856,-6.613982,-11.668142,-4.6842556
1587369516868,-4.1958385,-8.829816,-4.477157
1587369516876,-4.1958385,-8.829816,-4.477157
1587369516888,-1.8064252,-12.489353,-0.19153613
1587369516900,0.5243302,-16.426619,-0.0011971008
1587369516909,3.071761,-21.057003,2.7006595
1587369516921,6.7504516,-27.469873,1.2258313
1587369516933,9.593566,-30.092722,-3.4739866
1587369516943,7.5165963,-23.540989,-4.4556093
1587369516954,2.1440077,-11.288661,-7.776367
1587369516966,-0.8451532,-2.3630772,-4.9308586
1587369516977,-0.016759412,-0.14844051,-1.1109096
1587369516987,2.3906105,-0.034715924,-0.21906945
1587369516999,0.92775315,-2.172738,-0.9864111
1587369517008,-0.20829555,-5.7640405,-0.78290397
1587369517020,-1.328782,-11.908759,-1.0462662
1587369517035,-2.160767,-18.331205,-1.151611
1587369517047,-1.4377182,-19.797653,-4.010288
1587369517056,-1.4377182,-19.797653,-4.010288
1587369517066,-1.3239936,-16.461334,-5.6802435
1587369517076,-1.8267759,-12.076353,-4.892551
1587369517085,-1.555034,-6.443994,-2.4672248
1587369517097,-1.1192893,-4.959589,-1.3551182
1587369517108,-1.079785,-5.3223104,-1.1013328
1587369517119,-1.1085154,-5.9029045,-0.9947908
1587369517130,-1.1312603,-6.5241995,-0.9552865
1587369517141,-1.1192893,-6.8929067,-0.9696517
1587369517152,-1.2294226,-7.267599,-0.9864111
1587369517163,-1.2282255,-7.429208,-1.0510546
1587369517174,-0.7098808,-7.6985555,-1.6041151
1587369517186,-0.32321724,-8.324639,-1.1109096
1587369517196,-0.6572084,-8.796297,-1.5119383
1587369517208,-0.8798691,-8.84059,-2.3427265
1587369517218,-1.091756,-8.619126,-2.5246856
1587369517230,-1.1707647,-8.676587,-2.3666685
1587369517240,-1.3335704,-8.42759,-2.1176715
1587369517251,-1.4808137,-8.336611,-1.7597382
1587369517263,-1.4520833,-8.577228,-1.1935096
1587369517273,-1.5682021,-9.02614,-0.89303726
1587369517285,-1.5801731,-9.810242,-0.92057055
1587369517294,-1.389834,-10.401609,-1.2246342
1587369517307,-1.2677298,-10.717644,-1.2785037
1587369517313,-1.1384429,-10.569203,-1.3132197
1587369517324,-1.1659763,-10.436325,-1.4676456
1587369517336,-1.1216835,-10.06283,-1.6723499
1587369517349,-1.1911154,-9.220071,-2.0614076
1587369517358,-1.4197617,-8.92319,-2.3822308
1587369517370,-1.4927847,-8.949526,-2.6994624
1587369517383,-1.4784195,-9.329007,-2.885013
1587369517392,-1.9189527,-9.54209,-2.9759927
1587369517403,-1.99437,-9.14226,-2.790442
1587369517414,-1.9177556,-8.404845,-2.7114334
1587369517423,-1.5957354,-8.599973,-2.8299465
1587369517434,-1.4915876,-8.704121,-3.1711202
1587369517445,-1.5514427,-8.790312,-3.7481227
1587369517456,-1.602918,-9.106346,-4.6926355
1587369517467,-1.0402806,-11.110293,-5.354632
1587369517478,-0.7110779,-11.088745,-4.832696
1587369517489,-0.4249708,-10.850522,-4.461595
1587369517500,-0.7721301,-10.409989,-4.1826706
1587369517512,-1.1935096,-9.465476,-3.3315318
1587369517524,-2.1392193,-7.9307933,-2.078167
1587369517532,-3.7960067,-5.49589,-2.3989902
1587369517543,-5.434838,-5.41329,-2.2242134
1587369517555,-7.41604,-6.362591,-1.0402806
1587369517567,-5.1810527,-9.895236,2.0518308
1587369517577,-5.1810527,-9.895236,2.0518308
1587369517589,-0.93014735,-14.389153,1.5358804
1587369517599,-0.14724341,-16.324863,0.31364042
1587369517610,-0.23822308,-17.551893,-1.2641385
1587369517622,-0.736217,-18.776527,-2.3810337
1587369517632,-1.7082629,-18.624495,-2.088941
1587369517644,-2.954445,-17.92898,-1.1240777
1587369517654,-3.4859576,-16.722301,-0.51714754
1587369517666,-3.0190883,-15.267824,0.1448492
1587369517676,-2.098518,-13.893553,1.0259154
1587369517688,-1.3359646,-12.543222,0.8535329
1587369517698,-0.8511387,-12.099098,0.94930094
1587369517710,-0.94331545,-11.554418,0.046686932
1587369517720,-1.1540052,-10.850522,-0.59136784
1587369517731,-1.5897499,-9.813833,-0.30406362
1587369517743,-1.839944,-8.963891,0.008379706
1587369517750,-1.9093759,-7.8649526,0.33399114
1587369517761,-1.8531121,-5.3833623,0.18435353
1587369517773,-1.436521,-4.4568067,-0.2789245
1587369517783,-0.92895025,-4.035427,-0.6751649
1587369517794,-0.5566519,-3.9468415,-1.1360487
1587369517805,-0.21068975,-4.3059716,-1.0067618
1587369517816,0.074220255,-4.4520183,-1.435324
1587369517827,-0.17836803,-5.0302176,-1.8794483
1587369517839,-0.36631286,-6.4020953,-1.3395559
1587369517851,-0.4333505,-6.82946,-1.1827357
1587369517859,-0.545878,-7.3549876,-0.93493575
1587369517871,-0.8846575,-7.690176,-0.7098808
1587369517883,-0.9540894,-7.6865845,-0.8583213
1587369517893,-1.5107412,-8.202535,-0.8295909
1587369517904,-1.4532804,-8.317456,-1.388637
1587369517916,-1.3491327,-8.195353,-1.9512744
1587369517926,-1.3982137,-8.112753,-2.4001873
1587369517938,-1.5382746,-7.997831,-2.7581203
1587369517948,-1.7980455,-7.916428,-3.0765493
1587369517959,-2.4863784,-7.503428,-3.7912183
1587369517969,-3.4871547,-6.980295,-3.642778
1587369517981,-4.176685,-6.953959,-2.6024973
1587369517991,-4.76087,-7.2448545,-2.007538
1587369518002,-4.9081135,-7.7608047,-3.108871
1587369518014,-5.021838,-8.596381,-5.068525
1587369518024,-5.309142,-9.68694,-5.3079453
1587369518036,-5.697003,-11.208455,-4.450821
1587369518046,-6.0321913,-12.542026,-3.5003228
1587369518058,-5.7365074,-13.263878,-3.7349546
1587369518067,-5.7365074,-13.263878,-3.7349546
1587369518080,-5.3043537,-9.7084875,-5.631162
1587369518090,-5.342661,-7.9607205,-5.020641
1587369518101,-4.9679685,-8.325836,-2.9017725
1587369518112,-2.9113493,-11.85489,-1.8567034
1587369518122,-0.4177882,-15.692795,-1.353921
1587369518133,2.1547816,-20.214245,0.6991069
1587369518145,4.9176903,-24.825478,1.7477672
1587369518157,6.7121444,-25.274391,1.9189527
1587369518167,5.7005944,-17.998411,-3.6403837
1587369518179,-1.4401124,-4.912902,-1.922544
1587369518187,-1.4401124,-4.912902,-1.922544
1587369518199,-0.89064306,-5.0002904,-0.2861071
1587369518211,-0.17118542,-5.6646814,-1.3563153
1587369518221,-0.07182605,-8.604761,-1.2114661
1587369518232,-0.80924016,-13.563152,-1.9859903
1587369518244,-1.520318,-17.981651,-2.4672248
1587369518254,-1.5885528,-19.484013,-2.835932
1587369518266,-1.7202339,-18.09418,-3.1615434
1587369518275,-1.6555905,-14.68723,-3.4691982
1587369518287,-1.555034,-10.71525,-3.513491
1587369518295,-1.377863,-8.063671,-3.1759086
1587369518307,-1.2066777,-6.3578024,-2.469619
1587369518318,-0.46806642,-4.7800236,-1.2294226
1587369518330,-0.15682021,-4.489128,-1.4520833
1587369518340,0.074220255,-4.283227,-1.496376
1587369518352,0.45848963,-4.667496,-1.816002
1587369518362,0.7757214,-5.6000376,-1.7525556
1587369518374,0.92296475,-6.135142,-1.541866
1587369518384,1.2844892,-6.6247563,-1.9237411
1587369518396,0.81043726,-7.7667904,-2.0410569
1587369518404,0.35913026,-8.433576,-2.1679497
1587369518415,-0.46686932,-8.949526,-2.6324248
1587369518426,-2.303222,-9.028535,-2.005144
1587369518438,-3.0190883,-8.9279785,-1.1839328
1587369518449,-2.8694508,-8.799889,-1.0342951
1587369518460,-2.6264393,-8.728063,-0.961272
1587369518471,-2.5234885,-9.053674,-1.1552023
1587369518482,-2.542642,-9.186552,-1.4760253
1587369518493,-2.633622,-9.345766,-1.6891093
1587369518504,-2.7353754,-9.548077,-1.8543092
1587369518513,-2.8407204,-9.856929,-1.9656396
1587369518525,-2.8562827,-10.125079,-2.088941
1587369518537,-2.8299465,-10.365696,-2.4612393
1587369518547,-2.741361,-10.676943,-2.6850972
1587369518559,-2.2301989,-11.206061,-2.6850972
1587369518569,-2.5067291,-10.84334,-2.6635494
1587369518580,-2.5605986,-10.09994,-2.4600422
1587369518592,-2.4157495,-9.279925,-2.1631613
1587369518602,-2.4121583,-8.154651,-1.7992426
1587369518614,-1.8207904,-7.845799,-1.6795325
1587369518622,-1.4903905,-7.5884223,-2.2158337
1587369518634,-0.93972415,-7.560889,-4.52145
1587369518645,-0.1352724,-8.573636,-5.318719
1587369518657,0.60573304,-10.406398,-5.171476
1587369518667,0.60573304,-10.406398,-5.171476
1587369518679,-1.4030021,-9.118318,-2.89459
1587369518689,-2.956839,-7.654263,-2.5725696
1587369518701,-3.764882,-6.4966664,-2.7521348
1587369518711,-4.9416323,-5.6407394,-2.8790276
1587369518723,-6.8198833,-5.547365,-2.8191724
1587369518730,-7.654263,-7.064092,-1.8507179
1587369518741,-6.733692,-8.889671,-0.05865794
1587369518752,-4.429273,-10.794258,1.3970166
1587369518763,-1.79206,-13.103466,1.0821792
1587369518774,0.17597382,-14.458584,0.08140286
1587369518785,1.4784195,-15.8065195,-0.6404489
1587369518796,1.1755531,-17.538725,-1.5334862
1587369518807,-2.1978772,-19.63844,-0.676362
1587369518818,-2.7377696,-18.92018,-0.0023942017
1587369518829,-2.1320367,-18.558655,0.7194576
1587369518839,-1.7956513,-17.37113,0.7589619
1587369518851,-1.6651673,-15.915456,1.2569559
1587369518860,-2.3762453,-12.7335615,0.6356605
1587369518872,-2.3223755,-11.21444,-0.045489833
1587369518884,-2.3918076,-9.703699,0.37469256
1587369518894,-2.2230163,-8.640674,0.36391866
1587369518906,-2.0721815,-7.8302364,0.46447513
1587369518915,-1.910573,-6.8773446,0.6847417
1587369518927,-1.541866,-5.674258,-0.23343466
1587369518939,-1.0522517,-5.007473,-0.47764325
1587369518947,-1.0522517,-5.007473,-0.47764325
1587369518959,-0.51834464,-4.453215,-0.90740246
1587369518971,-0.37469256,-4.367024,-1.3754689
1587369518981,-0.22625206,-4.483143,-1.5753847
1587369518992,-0.045489833,-4.6830587,-1.578976
1587369519004,-0.06943185,-4.97156,-1.4221559
1587369519014,-0.25498247,-5.363012,-1.3862427
1587369519026,-0.60094464,-5.7640405,-1.4185646
1587369519036,-0.6332663,-6.0250087,-1.2126632
1587369519049,-0.5638345,-7.1466923,-1.3694834
1587369519055,-0.5638345,-7.1466923,-1.3694834
1587369519066,-0.48841715,-7.6482773,-1.4041992
1587369519078,-0.85473,-8.514978,-2.2134395
1587369519089,-1.103727,-8.608353,-2.4851813
1587369519100,-1.5011644,-8.504205,-2.822764
1587369519111,-1.8938135,-8.1797905,-3.2010477
1587369519122,-2.3942018,-7.7105265,-3.0992942
1587369519133,-2.8886044,-7.339425,-2.3989902
1587369519144,-3.5075054,-7.0940194,-2.3295584
1587369519154,-4.0138793,-6.8893156,-4.175488
1587369519165,-4.7201686,-7.2711906,-5.744887
1587369519178,-5.590461,-9.382876,-3.9851487
1587369519188,-5.755661,-10.809821,-2.8407204
1587369519197,-5.755661,-10.809821,-2.8407204
1587369519209,-5.7125654,-12.417527,-3.3123782
1587369519221,-5.8502316,-11.945869,-4.7309427
1587369519231,-6.1303535,-10.447099,-6.087258
1587369519242,-6.6486983,-8.950723,-6.355408
1587369519254,-6.7887588,-8.445546,-3.5410242
1587369519264,-5.3582234,-10.947487,-0.59376204
1587369519276,-2.5594015,-16.371552,-0.35434186
1587369519285,0.8619126,-23.201012,2.0266917
1587369519298,5.3247046,-30.248344,3.4404678
1587369519307,7.5465236,-20.876242,-5.3618145
1587369519319,-1.174356,-1.3227965,-3.9432502
1587369519331,-1.9764135,-2.1859062,-1.2318168
1587369519341,-0.8619126,-2.9783869,1.1252748
1587369519353,-0.47524905,-3.7193923,-0.581791
1587369519363,-1.1767502,-5.995081,-2.147599
1587369519375,-0.80325466,-7.3466077,-0.38187516
1587369519382,-1.2449849,-12.776657,-2.8802247
1587369519393,-2.44448,-18.7466,-2.360683
1587369519404,-2.6431987,-21.59929,-2.3642743
1587369519416,-2.566584,-19.950882,-3.107674
1587369519427,-1.7884687,-15.21156,-3.4715924
1587369519438,-0.9552865,-7.8410106,-3.015497
1587369519448,-0.50158525,-5.864597,-2.4361002
1587369519459,0.10534488,-4.619612,-2.019509
1587369519470,0.4237737,-3.9145198,-1.6711528
1587369519481,0.49919105,-3.90614,-1.3922282
1587369519490,0.3866636,-4.4544125,-1.541866
1587369519500,-0.059855044,-5.3115363,-1.1803415
1587369519511,-0.11611878,-6.3709707,-1.258153
1587369519522,-0.1340753,-8.341399,-1.6472107
1587369519533,-0.05267244,-8.863335,-1.8866309
1587369519544,-0.38187516,-9.214086,-2.184709
1587369519556,-0.9696517,-9.063251,-2.6539726
1587369519568,-1.9560628,-8.366538,-1.8459295
1587369519579,-2.1679497,-8.186973,-1.3970166
1587369519591,-2.030283,-8.021772,-1.163582
1587369519599,-2.0973208,-8.252813,-1.163582
1587369519611,-2.1440077,-8.730456,-0.9900024
1587369519623,-2.2278047,-9.200917,-1.1492168
1587369519633,-2.384625,-9.5253315,-1.2521675
1587369519645,-2.291251,-9.884461,-1.1168951
1587369519654,-2.1811178,-10.1382475,-1.3251907
1587369519666,-1.9716251,-10.028113,-1.4221559
1587369519678,-1.7381904,-9.986216,-2.018312
1587369519688,-1.7381904,-9.986216,-2.018312
1587369519699,-1.8662802,-9.3733,-2.9759927
1587369519709,-2.005144,-9.091981,-3.2465374
1587369519722,-2.134431,-8.987833,-3.1064768
1587369519732,-2.5629928,-9.006987,-3.098097
1587369519742,-3.1028855,-7.4351935,-2.6192567
1587369519753,-2.7485435,-6.8641763,-2.6180596
1587369519764,-2.7246015,-7.0006456,-2.9712043
1587369519776,-2.8538885,-7.739257,-3.3243492
1587369519785,-2.5127146,-8.995016,-3.9252937
1587369519796,-1.6579847,-10.793061,-4.38498
1587369519807,-0.8403648,-11.798626,-4.7381253
1587369519816,-0.37469256,-11.981782,-4.277241
1587369519827,0.15682021,-11.421539,-3.072958
1587369519837,-0.34476504,-10.466252,-1.6316484
1587369519849,-2.4839842,-8.063671,-1.1360487
1587369519861,-3.1040826,-7.0844426,-1.4664485
1587369519873,-5.177461,-6.191406,-1.508347
1587369519883,-7.047333,-6.5361705,-1.033098
1587369519895,-7.111976,-7.735666,0.14844051
1587369519904,-5.2840033,-9.204509,1.0977415
1587369519916,-2.6623523,-11.177331,0.2837129
1587369519924,-1.0989386,-12.97777,-1.1887212
1587369519936,-0.4285621,-15.035586,-2.043451
1587369519948,-1.7238252,-18.887857,-1.9081788
1587369519958,-3.8271315,-18.61851,-0.5590461
1587369519970,-3.465607,-17.81286,0.59615624
1587369519980,-2.3127987,-17.147272,1.1587936
1587369519991,-1.4209588,-15.477317,1.3742718
1587369520003,-0.93254155,-14.073117,1.3599066
1587369520013,-0.8499416,-12.495338,0.92535895
1587369520025,-1.0977415,-11.295844,-0.51834464
1587369520033,-1.3491327,-9.995792,-0.47644615
1587369520045,-1.2449849,-8.541314,1.1384429
1587369520057,-1.3682863,-7.3765354,0.23463176
1587369520067,-1.6723499,-6.742072,0.12330139
1587369520079,-1.79206,-5.5820813,0.24420857
1587369520089,-1.6938977,-5.2636523,-0.47046062
1587369520100,-1.3359646,-5.1642933,-0.8750807
1587369520111,-0.9983821,-4.9799395,-1.602918
1587369520124,-0.62368953,-5.1930237,-1.5346833
1587369520133,-0.31603462,-5.5485625,-1.6400281
1587369520145,-0.079008654,-6.007052,-1.721431
1587369520156,0.11971009,-6.1530986,-1.851915
1587369520167,-0.6787562,-6.9647326,-1.0642227
1587369520179,-1.0295067,-7.4088573,-0.92296475
1587369520189,-1.0618285,-7.4615297,-0.92655605
1587369520201,-0.9648633,-7.478289,-1.1121067
1587369520211,-0.79726917,-7.4004774,-1.2030864
1587369520223,-0.8319851,-7.40766,-1.4628572
1587369520233,-0.79966336,-7.37055,-1.5861586
1587369520244,-0.8810662,-7.374141,-1.6412252
1587369520253,-1.0534488,-7.4735007,-1.5885528
1587369520264,-1.2689269,-7.60997,-1.5227122
1587369520275,-1.5119383,-7.5225816,-1.6220716
1587369520287,-2.005144,-7.785944,-0.90740246
1587369520298,-2.3511062,-7.8637557,-1.9285295
1587369520309,-2.9233203,-7.854179,-5.1523223
1587369520320,-4.084508,-8.15106,-6.1890116
1587369520332,-5.4061074,-8.486248,-5.5701103
1587369520341,-6.513426,-9.428367,-4.3897686
1587369520352,-6.9024835,-10.158598,-3.642778
1587369520361,-6.787562,-10.611102,-3.5446155
1587369520372,-6.489484,-10.770316,-4.0222588
1587369520383,-6.591237,-10.473435,-4.8745947
1587369520394,-7.1167645,-9.884461,-5.864597
1587369520405,-7.53575,-8.803479,-6.2392898
1587369520418,-5.281609,-7.5082164,-2.9771898
1587369520427,-2.7712884,-11.022904,0.05746084
1587369520438,0.21667525,-17.225084,-1.0055647
1587369520448,2.801216,-23.120806,0.47165772
1587369520459,5.9507885,-28.802246,2.2110453
1587369520468,7.575254,-31.31975,1.1719618
1587369520479,6.129156,-23.122004,-2.767697
1587369520490,1.7058687,-10.035296,-1.8866309
1587369520501,-0.31124622,-4.3275194,-2.7042508
1587369520512,-0.90740246,-5.255273,-1.8315643
1587369520523,0.18794483,-5.5150437,-0.6931214
1587369520535,0.81283146,-4.9536033,-1.271321
1587369520545,0.8595184,-5.175067,-1.733402
1587369520557,0.3184288,-6.703765,-1.8710686
1587369520568,-2.1416135,-14.997279,-2.517503
1587369520576,-2.1416135,-14.997279,-2.517503
1587369520587,-2.3451207,-16.537949,-4.1946416
1587369520598,-2.184709,-14.982914,-4.701015
1587369520609,-2.220622,-12.25951,-4.0138793
1587369520620,-2.1930888,-9.021352,-3.6140475
1587369520631,-1.6867151,-5.2684407,-3.2130187
1587369520641,-1.4149733,-4.5441947,-2.6036944
1587369520652,-1.3299791,-4.450821,-2.1392193
1587369520663,-1.6172832,-4.5513773,-2.1332338
1587369520674,-1.6915035,-4.9548006,-2.087744
1587369520683,-2.0326772,-5.7257333,-1.7908629
1587369520693,-1.5897499,-5.9412117,-1.9596541
1587369520704,-1.258153,-7.004237,-1.9979613
1587369520715,-1.2485762,-7.952341,-1.5239093
1587369520726,-1.4748282,-8.784326,-1.7357962
1587369520737,-2.0506337,-9.427169,-2.3558946
1587369520748,-2.4779987,-9.28232,-2.1655555
1587369520758,-2.8048072,-8.735245,-1.7345991
1587369520769,-2.634819,-8.208521,-1.282095
1587369520780,-2.5893292,-8.028955,-1.1252748
1587369520789,-2.384625,-7.843405,-0.61530983
1587369520800,-2.1679497,-8.176199,-0.700304
1587369520810,-1.7932571,-8.990228,-0.7170634
1587369520821,-1.6220716,-9.619903,-0.89662856
1587369520832,-1.5765818,-10.07121,-1.0486604
1587369520843,-2.1033063,-10.266336,-1.3204023
1587369520854,-2.48159,-10.396821,-1.5143325
1587369520864,-2.8072014,-10.208876,-1.6699557
1587369520875,-3.1950622,-9.952697,-1.8495208
1587369520886,-3.2920272,-9.797073,-1.6986861
1587369520895,-3.1387985,-9.825804,-1.2018893
1587369520905,-3.0550013,-9.582792,-0.6368576
1587369520916,-2.6982653,-8.699332,-0.24301147
1587369520928,-1.7717092,-6.314707,-1.0079589
1587369520938,-0.7517793,-6.517017,-1.7310078
1587369520949,0.2669535,-7.467515,-2.8670566
1587369520960,0.91817635,-9.011775,-4.050989
1587369520971,1.4496891,-10.29387,-5.2660465
1587369520982,1.541866,-11.438298,-6.197391
1587369520993,1.163582,-11.9374895,-6.2704144
1587369521001,0.50038815,-11.583148,-5.591658
1587369521013,-0.51355624,-10.679337,-4.6100354
1587369521024,-2.0242975,-9.627085,-3.7181952
1587369521036,-3.289633,-8.474277,-3.2429461
1587369521047,-5.380968,-7.1826053,-2.2732944
1587369521058,-7.0186024,-7.3657618,-1.365892
1587369521069,-6.3589997,-9.682152,0.18315643
1587369521079,-3.1830912,-11.468226,0.6392518
1587369521090,-0.40821138,-13.049597,0.5793968
1587369521101,0.7218518,-14.630966,0.11372458
1587369521110,0.9600749,-16.419436,0.08259996
1587369521121,0.2717419,-16.996437,-0.50876784
1587369521132,-1.1659763,-16.73547,-0.58298814
1587369521142,-2.741361,-15.580268,-0.4369418
1587369521153,-3.526659,-14.753071,-0.14724341
1587369521164,-3.4512417,-14.247894,0.06584055
1587369521175,-3.1028855,-14.028825,0.1436521
1587369521186,-2.695871,-13.754689,0.37110126
1587369521197,-2.6168625,-13.582306,0.061052144
1587369521207,-2.303222,-12.958616,0.63087213
1587369521218,-2.3786395,-11.750742,-0.20829555
1587369521229,-2.3020248,-10.581175,-0.557849
1587369521240,-2.1703439,-9.281123,0.7158663
1587369521251,-2.2254105,-8.189367,0.8535329
1587369521264,-2.1068976,-7.314286,0.5793968
1587369521273,-1.6938977,-6.5984197,0.4261679
1587369521284,-0.49679685,-5.9663506,-0.1592144
1587369521295,-0.29568392,-5.4743423,-1.1552023
1587369521306,-0.15442601,-5.4300494,-1.3634979
1587369521316,-0.1388637,-5.457583,-1.2689269
1587369521327,-0.5506664,-5.993884,-1.5454572
1587369521338,-0.712275,-6.0860605,-1.8782512
1587369521349,-0.90859956,-6.266823,-1.5933412
1587369521359,-1.2354081,-6.4978633,-0.92655605
1587369521370,-1.4437037,-6.505046,-0.89782566
1587369521381,-1.22224,-6.453571,-0.8295909
1587369521392,-1.1300632,-6.517017,-0.9576807
1587369521405,-1.1827357,-6.7085533,-1.210269
1587369521414,-1.1947067,-6.8988924,-1.553837
1587369521426,-1.198298,-7.0712748,-1.8710686
1587369521435,-1.198298,-7.0712748,-1.8710686
1587369521446,-1.198298,-7.0712748,-1.8710686
1587369521456,-1.8052281,-6.906075,-2.7257986
1587369521467,-2.790442,-6.727707,-3.4847605
1587369521481,-2.790442,-6.727707,-3.4847605
1587369521493,-4.0940847,-6.731298,-3.4919431
1587369521502,-4.7201686,-7.1143703,-3.927688
1587369521511,-6.397307,-8.949526,-4.661511
1587369521522,-6.9743094,-9.829395,-4.1000705
1587369521533,-7.699753,-11.71842,-2.9783869
1587369521541,-8.2995,-13.238738,-1.9033904
1587369521552,-8.154651,-13.837289,-2.597709
1587369521563,-7.645883,-13.51886,-4.2281604
1587369521574,-7.27957,-12.37922,-5.7903767
1587369521585,-6.955156,-10.305841,-6.5206084
1587369521596,-6.941988,-7.787141,-5.886145
1587369521606,-5.6084175,-6.566098,-0.7374141
1587369521617,-2.8622682,-10.220847,-0.9828198
1587369521628,-0.027533319,-13.900735,-3.7541082
1587369521640,1.7585411,-17.237055,-2.433706
1587369521647,3.4320881,-21.045033,1.7238252
1587369521658,3.4320881,-21.045033,1.7238252
1587369521669,5.366603,-21.805191,-2.3199813
1587369521679,5.366603,-21.805191,-2.3199813
1587369521690,5.366603,-21.805191,-2.3199813
1587369521702,-1.246182,-4.5382094,-2.3750482
1587369521712,-1.1252748,-5.3127337,-0.074220255
1587369521723,-0.5638345,-5.141548,-0.19632454
1587369521734,-0.8511387,-5.1918263,-1.5921441
1587369521745,-0.8511387,-5.1918263,-1.5921441
1587369521754,-3.181894,-11.669339,-2.6659436
1587369521765,-3.7924154,-15.55872,-2.4109612
1587369521776,-3.7924154,-15.55872,-2.4109612
1587369521787,-2.7844565,-15.6233635,-2.7509377
1587369521798,-2.1045034,-12.337321,-3.3411086
1587369521808,-1.5837644,-9.794679,-3.2477345
1587369521820,-1.2198458,-8.322245,-2.1511903
1587369521830,-0.8822633,-7.6027875,-1.103727
1587369521841,-0.2741361,-7.1047935,-0.5566519
1587369521852,0.5662287,-7.0485296,-0.7529764
1587369521861,0.89782566,-7.1586633,-1.0654198
1587369521872,1.1192893,-7.358579,-1.4377182
1587369521883,1.1085154,-7.6111674,-1.827973
1587369521894,1.1288661,-8.069656,-1.2964603
1587369521905,1.1420342,-8.450335,-1.353921
1587369521916,0.93134445,-8.811859,-2.0638018
1587369521927,-0.06823475,-8.678981,-2.1667526
1587369521938,-0.6943185,-8.206126,-2.1667526
1587369521949,-1.7166426,-8.355764,-1.8363527
1587369521960,-2.2134395,-8.259995,-1.6603789
1587369521969,-2.6431987,-8.244433,-1.401805
1587369521979,-2.9724014,-8.325836,-1.4449008
1587369521990,-3.1603463,-8.529344,-1.4568717
1587369522001,-3.2968156,-8.690952,-1.5586253
1587369522014,-3.2585084,-8.714894,-1.4927847
1587369522025,-3.3446999,-8.550891,-1.9309237
1587369522036,-3.2609026,-8.463503,-2.255338
1587369522047,-3.1112652,-8.693346,-3.0550013
1587369522058,-3.0023289,-9.096769,-3.0873232
1587369522069,-3.1627405,-9.500193,-3.0370448
1587369522078,-3.1112652,-9.251195,-2.566584
1587369522089,-3.25372,-8.562862,-2.3834279
1587369522100,-3.1543608,-7.976283,-1.9680338
1587369522111,-2.8431146,-7.9068513,-1.9297266
1587369522122,-2.6240451,-8.309077,-1.8614918
1587369522133,-2.6312277,-8.820239,-2.372654
1587369522144,-2.0338743,-9.494206,-3.0226796
1587369522154,-1.3874398,-10.316615,-3.8869865
1587369522165,-0.130484,-11.162966,-4.5286326
1587369522176,1.9764135,-11.9135475,-3.8989575
1587369522185,0.9744401,-11.368867,-3.1483753
1587369522196,-1.1444284,-10.6158905,-2.304419
1587369522207,-2.4660277,-9.397242,-1.4065934
1587369522217,-5.070919,-7.5584946,-1.6927006
1587369522228,-6.894104,-7.656657,-1.3730747
1587369522239,-7.7428484,-8.158242,-0.7529764
1587369522250,-6.3697734,-9.255983,0.15682021
1587369522261,-3.9396589,-10.788273,0.16879122
1587369522272,-2.0805612,-11.719617,-0.12808979
1587369522283,-1.1528081,-13.232753,-0.3890578
1587369522292,-1.3371617,-14.98052,-1.3922282
1587369522303,-2.27928,-16.23987,-1.8016368
1587369522314,-3.669114,-16.197971,-1.2437878
1587369522325,-4.607641,-15.630546,-0.80684596
1587369522336,-4.06296,-15.42225,0.017956512
1587369522347,-2.717419,-15.334862,0.48003745
1587369522358,-0.15442601,-16.044743,0.38067806
1587369522369,0.08499416,-15.725117,-0.061052144
1587369522380,-0.02633622,-14.369999,-0.4237737
1587369522390,-0.94331545,-11.230003,0.25977087
1587369522401,-1.3299791,-9.3421755,0.23822308
1587369522412,-1.8962077,-7.811083,1.6112977
1587369522423,-2.1308396,-6.649895,1.3347675
1587369522434,-2.2613235,-5.911284,0.770933
1587369522445,-2.0338743,-5.4659624,0.58538234
1587369522456,-1.4987702,-5.3642087,-0.25139117
1587369522466,-0.8475474,-5.2169657,-0.59615624
1587369522477,-0.45130703,-4.847061,-1.7058687
1587369522488,-0.40102878,-4.856638,-1.9201498
1587369522499,-0.5686229,-5.069722,-2.147599
1587369522508,-1.0462662,-5.499481,-1.7645266
1587369522519,-1.2797008,-5.7065797,-1.4700398
1587369522530,-1.271321,-6.015432,-1.3347675
1587369522541,-1.2976574,-6.2249246,-1.1839328
1587369522552,-1.3551182,-6.3829417,-1.0785879
1587369522562,-1.4401124,-6.5241995,-1.2006922
1587369522574,-1.4999673,-6.8067155,-1.4221559
1587369522585,-1.5562311,-7.1550717,-1.661576
1587369522596,-1.4987702,-7.4112515,-1.8770541
1587369522608,-1.5981296,-7.587225,-2.6491842
1587369522615,-1.5981296,-7.587225,-2.6491842
1587369522626,-1.8626889,-7.350199,-2.9592333
1587369522638,-2.6120741,-6.82946,-3.3207579
1587369522649,-3.2094274,-6.658275,-2.7389667
1587369522661,-3.9624038,-6.659472,-2.3343468
1587369522672,-4.4879313,-6.8545995,-3.490746
1587369522683,-5.0745106,-7.2843585,-4.6591167
1587369522695,-5.813122,-7.9331875,-4.4568067
1587369522704,-6.3805475,-9.551667,-3.1771057
1587369522715,-6.3578024,-11.480197,-2.1440077
1587369522724,-5.7999535,-13.109451,-2.268506
1587369522735,-5.542577,-13.978547,-3.7337575
1587369522746,-5.8478374,-13.340492,-6.0980315
1587369522757,-7.1191587,-8.826224,-7.0784574
1587369522768,-7.3466077,-7.86615,-3.7804444
1587369522779,-5.9400144,-10.053253,-1.5358804
1587369522790,-3.550601,-14.505271,-1.7944542
1587369522802,-0.9935937,-19.21706,0.5650316
1587369522813,2.0733786,-24.177845,1.9141643
1587369522824,4.8015714,-25.623943,1.4496891
1587369522834,3.3279405,-20.4812,-3.9372647
1587369522846,-0.29927522,-5.4659624,-2.7964275
1587369522856,-1.4449008,-4.3047748,-2.5378537
1587369522868,-0.062249243,-4.638766,0.09696517
1587369522878,-0.035913024,-4.927267,-1.1851299
1587369522890,0.10175357,-6.6630635,-2.1164744
1587369522900,-0.50397944,-10.392033,-2.0769699
1587369522911,-1.3215994,-15.027207,-2.267309
1587369522923,-2.813187,-18.805258,-1.3479356
1587369522933,-4.0653543,-19.609709,-1.258153
1587369522945,-3.2668881,-15.986085,-2.742558
1587369522955,-2.4181437,-12.672509,-4.607641
1587369522967,-2.1428106,-9.809045,-3.6260185
1587369522976,-1.7238252,-7.988254,-2.432509
1587369522988,0.107739076,-5.8586116,-0.8583213
1587369523000,0.8702923,-5.469554,-0.8822633
1587369523010,1.3084313,-5.720945,-1.2509704
1587369523022,0.9816227,-6.069301,-0.80684596
1587369523031,1.2892777,-6.721721,-1.3395559
1587369523043,1.4808137,-7.6626425,-1.4401124
1587369523051,1.0019734,-8.298303,-1.4999673
1587369523063,-0.08020575,-8.631097,-2.100912
1587369523074,-0.4441244,-8.735245,-2.6384103
1587369523086,-0.7625532,-8.591593,-2.5809495
1587369523095,-1.2533646,-8.0445175,-2.3546975
1587369523107,-1.7106571,-7.6015906,-1.9608512
1587369523119,-1.9021933,-7.795521,-1.8028339
1587369523129,-2.1571758,-8.1642275,-1.4903905
1587369523140,-2.2948422,-8.841787,-1.1647792
1587369523152,-2.5390508,-9.16261,-1.4915876
1587369523160,-2.7617116,-9.446322,-1.8602947
1587369523172,-3.107674,-9.672575,-2.0087352
1587369523183,-3.3147724,-9.801862,-2.0231004
1587369523195,-3.4404678,-9.692925,-1.9812019
1587369523205,-3.406949,-9.697714,-1.9752164
1587369523217,-3.2968156,-9.698911,-2.2637177
1587369523227,-3.0705638,-9.813833,-2.5617957
1587369523239,-2.621651,-10.158598,-2.8670566
1587369523249,-2.7281928,-10.108319,-2.694674
1587369523260,-3.3806129,-9.743204,-2.3056161
1587369523270,-3.4045548,-7.6650367,-2.1045034
1587369523282,-3.1124623,-6.76362,-2.315193
1587369523292,-2.834735,-6.3805475,-2.4265234
1587369523304,-2.645593,-6.5122285,-3.0370448
1587369523313,-2.134431,-7.4842744,-4.1802764
1587369523325,-1.3431472,-8.965088,-5.1786585
1587369523337,-0.5494693,-10.390836,-5.5485625
1587369523347,0.051475335,-11.692084,-3.9372647
1587369523358,-1.5502456,-11.652579,-2.8491
1587369523369,-2.634819,-10.891224,-1.9237411
1587369523379,-4.084508,-9.566033,-1.6292542
1587369523390,-5.6419363,-8.423999,-1.6472107
1587369523401,-6.646304,-7.8517847,-1.2725182
1587369523412,-6.95755,-8.028955,-1.34195
1587369523422,-6.355408,-9.226056,-0.6751649
1587369523433,-4.259285,-10.760739,0.055066638
1587369523444,-2.1045034,-11.749545,0.31004912
1587369523456,-0.9576807,-12.7575035,-0.022744916
1587369523468,-1.3156139,-14.911088,-1.8543092
1587369523478,-1.3156139,-14.911088,-1.8543092
1587369523489,-3.858256,-15.225925,0.20470424
1587369523501,-3.205836,-15.87236,0.6715736
1587369523511,-2.3535004,-16.105795,0.61052144
1587369523523,-1.7549498,-16.415844,-0.021547815
1587369523532,-1.7034745,-15.619772,-0.20709845
1587369523544,-2.007538,-14.55914,0.17597382
1587369523556,-2.2828712,-12.769475,0.32920274
1587369523566,-2.3523033,-11.133038,-0.20231004
1587369523578,-2.1643584,-7.52737,0.91937345
1587369523588,-2.1643584,-7.52737,0.91937345
1587369523599,-1.8794483,-5.0900726,0.095768064
1587369523611,-1.7417817,-4.6950297,-0.36272156
1587369523621,-1.638831,-4.84347,-0.36750996
1587369523633,-1.3946224,-5.3259015,-0.5614403
1587369523643,-1.3706805,-5.650316,-0.8487445
1587369523654,-1.1719618,-5.5102553,-1.3503298
1587369523666,-1.0929531,-5.7029886,-1.8411411
1587369523676,-1.1192893,-5.8921304,-1.8842367
1587369523688,-1.7944542,-6.159084,-1.3156139
1587369523698,-1.9608512,-6.0824695,-1.234211
1587369523710,-1.8171991,-6.0585275,-1.1552023
1587369523719,-1.5251064,-6.0848637,-1.4425066
1587369523730,-1.2497733,-6.4044895,-1.6747441
1587369523742,-1.0618285,-6.8282633,-1.8710686
1587369523753,-0.89303726,-7.2101383,-2.0027497
1587369523764,-0.7769185,-7.428011,-2.1188686
1587369523774,-0.7781156,-7.639898,-2.349909
1587369523785,-1.0749966,-7.78355,-2.516306
1587369523796,-1.4437037,-7.777564,-2.718616
1587369523808,-2.779668,-7.7332716,-1.9668367
1587369523815,-2.779668,-7.7332716,-1.9668367
1587369523826,-3.6475663,-7.902063,-0.830788
1587369523837,-5.069722,-7.675811,-4.3275194
1587369523848,-5.7640405,-8.249222,-5.0002904
1587369523859,-6.1626754,-9.202114,-4.423288
1587369523870,-6.208165,-10.377667,-3.7852328
1587369523881,-5.8801594,-11.46224,-3.429694
1587369523892,-5.471948,-12.10269,-3.8893807
1587369523903,-5.395334,-11.956643,-5.139154
1587369523913,-5.6215854,-10.427945,-6.2871737
1587369523924,-6.1088057,-8.596381,-7.253234
1587369523935,-6.8127007,-7.5920134,-6.187814
1587369523946,-5.2145715,-11.469423,-1.5023615
1587369523957,-2.9879637,-15.799337,-1.5993267
1587369523967,2.7114334,-25.936386,3.9911342
1587369523978,4.6818614,-27.712885,1.2629414
1587369523989,4.859032,-19.959263,-0.51235914
1587369524001,2.0649989,-9.269152,-2.5222914
1587369524013,-1.0642227,-5.5365915,-4.0737343
1587369524022,-2.6360161,-4.6686935,-3.775656
1587369524035,-1.7788919,-4.68665,-0.58777654
1587369524044,-0.94092125,-4.832696,-0.32920274
1587369524056,-1.2521675,-4.9667716,-0.4441244
1587369524067,0.07182605,-6.021417,-1.5059528
1587369524078,-0.9792285,-15.003265,-2.1906946
1587369524089,-2.3570917,-17.5902,-1.9093759
1587369524099,-3.8367083,-18.565838,-2.385822
1587369524110,-4.0545807,-16.517597,-2.4181437
1587369524121,-3.120842,-12.307394,-2.822764
1587369524132,-2.3798366,-9.072827,-3.2369606
1587369524142,-1.7381904,-7.015011,-2.7605145
1587369524153,-0.23702596,-5.129577,-1.0833763
1587369524165,0.24181437,-4.97156,-1.2174516
1587369524175,0.36631286,-4.993108,-1.6472107
1587369524187,0.23582886,-5.3354783,-1.508347
1587369524197,0.39743748,-6.0764837,-1.5610195
1587369524209,0.10295067,-8.279149,-1.6124948
1587369524218,-0.20231004,-9.003395,-1.8614918
1587369524230,-0.50996494,-9.349358,-2.2122424
1587369524242,-0.93493575,-9.362526,-2.1787236
1587369524250,-1.2665327,-9.358934,-1.7812861
1587369524262,-1.6460136,-9.346964,-1.5275006
1587369524273,-2.0039468,-9.065644,-1.5358804
1587369524285,-2.0685902,-9.035717,-1.234211
1587369524295,-2.0446482,-8.930372,-1.0702082
1587369524307,-2.0111294,-8.820239,-1.0043676
1587369524317,-2.0638018,-8.932767,-0.9995792
1587369524328,-2.3666685,-8.998607,-1.103727
1587369524340,-2.552219,-8.887277,-1.4520833
1587369524351,-2.8048072,-8.719683,-1.8734628
1587369524360,-2.9233203,-8.696938,-2.135628
1587369524371,-3.0322564,-8.773552,-2.5270798
1587369524382,-2.9724014,-9.058462,-3.0992942
1587369524393,-3.0909145,-9.32781,-3.0190883
1587369524404,-3.429694,-9.425972,-2.7820623
1587369524415,-3.714604,-8.896853,-2.3451207
1587369524426,-3.8259344,-8.013393,-1.7537527
1587369524437,-3.453636,-7.351396,-1.6017209
1587369524448,-3.0430303,-7.916428,-1.9309237
1587369524459,-2.5115175,-8.774749,-2.7162218
1587369524469,-1.5658079,-9.975441,-3.513491
1587369524481,-0.6572084,-10.990582,-3.930082
1587369524491,0.46567222,-11.33894,-4.1503487
1587369524503,1.3814543,-11.542446,-3.750517
1587369524513,1.3910311,-11.174936,-3.205836
1587369524524,-0.45370123,-10.257957,-2.4851813
1587369524536,-1.8100165,-9.275137,-2.0829554
1587369524547,-2.7222073,-8.12233,-2.2361844
1587369524556,-4.214992,-6.955156,-2.4037786
1587369524568,-7.747637,-7.6614456,-1.6484078
1587369524576,-7.747637,-7.6614456,-1.6484078
1587369524588,-2.8491,-11.536461,1.3263878
1587369524600,-1.5574282,-13.278243,0.22385786
1587369524610,-1.1815386,-15.691598,-0.8499416
1587369524622,-1.5801731,-17.652449,-1.8495208
1587369524632,-2.6420016,-18.667591,-1.6136919
1587369524644,-4.3406878,-18.495209,-0.91578215
1587369524653,-4.844667,-17.524359,0.48602295
1587369524665,-4.5142674,-16.399084,1.436521
1587369524677,-3.6391866,-15.279796,1.6543933
1587369524685,-2.9233203,-13.995306,1.7322049
1587369524698,-2.445677,-11.858481,0.4429273
1587369524708,-2.2613235,-10.827777,-0.51235914
1587369524719,-2.0159178,-9.928755,-0.89303726
1587369524731,-1.6136919,-8.327033,-0.38307226
1587369524740,-1.4496891,-7.0126166,-0.025139118
1587369524751,-1.3395559,-6.0250087,0.0047884034
1587369524763,-1.388637,-5.57849,-0.5734113
1587369524774,-1.2389994,-5.4551888,-0.090979666
1587369524786,-1.1767502,-5.5581393,-0.10175357
1587369524794,-1.0965444,-5.828684,-0.49679685
1587369524806,-1.0929531,-6.1243677,-0.8822633
1587369524818,-1.0642227,-6.0621185,-1.614889
1587369524828,-1.2904748,-6.30513,-1.401805
1587369524840,-1.6077064,-6.455965,-1.5023615
1587369524850,-1.448492,-6.467936,-1.4053963
1587369524862,-1.3000516,-6.63553,-1.2761095
1587369524872,-1.2437878,-6.7360864,-1.1540052
1587369524884,-1.1994951,-6.8426285,-1.1025299
1587369524893,-1.1994951,-7.129933,-1.1971009
1587369524907,-1.1336545,-7.3765354,-1.3922282
1587369524917,-1.0977415,-7.505822,-1.5454572
1587369524927,-1.0833763,-7.529764,-1.6759412
1587369524939,-1.282095,-7.4854717,-2.2290018
1587369524949,-1.6208745,-7.380127,-2.5151088
1587369524960,-2.1799207,-7.3537903,-2.9221232
1587369524972,-2.8921957,-7.2592196,-3.0945058
1587369524982,-3.630807,-7.1969705,-2.7581203
1587369524994,-4.307169,-7.1287355,-2.1823149
1587369525003,-4.987122,-7.1407065,-3.2848446
1587369525018,-6.567295,-7.666234,-4.867412
1587369525025,-6.567295,-7.666234,-4.867412
1587369525037,-7.1945763,-11.69807,-1.9871874
1587369525049,-6.477513,-12.192472,-3.0597897
1587369525058,-5.935226,-11.783064,-5.023035
1587369525069,-6.019023,-10.571598,-7.0305734
1587369525081,-6.530185,-9.674969,-6.5110316
1587369525092,-6.64391,-10.560823,-3.6475663
1587369525103,-5.5844755,-14.495694,-1.6687586
1587369525114,-3.2549171,-20.82716,0.61291564
1587369525123,0.2825158,-27.746403,1.8100165
1587369525134,3.5972881,-31.672894,0.81043726
1587369525145,4.9021277,-22.406137,-0.4177882
1587369525156,4.950012,-8.746018,-3.9875429
1587369525167,-1.6424223,-0.9588778,-3.690662
1587369525178,-2.6982653,-2.1643584,-1.6484078
1587369525190,-1.3730747,-2.6024973,0.7218518
1587369525202,-0.93134445,-3.6391866,-0.58298814
1587369525212,-1.3347675,-4.8255134,-1.9668367
1587369525223,-1.1492168,-8.505402,-2.2038627
1587369525232,-2.195483,-14.353239,-2.3104045
1587369525244,-3.1256304,-18.768147,-2.0805612
1587369525255,-4.0282445,-20.808006,-1.5562311
1587369525266,-2.6288335,-13.935451,-3.0969
1587369525277,-2.0003555,-10.213664,-4.83509
1587369525288,-1.7621324,-6.291962,-2.303222
1587369525299,-1.0175357,-5.333084,-1.3682863
1587369525309,-0.2789245,-4.985925,-0.7493851
1587369525320,0.10534488,-5.2516813,-1.115698
1587369525331,0.079008654,-5.6946087,-1.2186487
1587369525339,-0.31364042,-6.3350577,-1.0187328
1587369525350,-0.36750996,-6.9264255,-1.2030864
1587369525361,-0.20350714,-7.854179,-1.6376339
1587369525372,-0.36750996,-8.595184,-1.3180081
1587369525383,-0.46447513,-9.050082,-1.0977415
1587369525393,-0.6428431,-9.305065,-1.4556746
1587369525404,-0.62608373,-9.275137,-1.8016368
1587369525415,-1.0259154,-8.7053175,-1.8914193
1587369525426,-1.3192052,-8.354567,-1.7190368
1587369525437,-1.4401124,-8.0445175,-1.6903064
1587369525446,-1.4760253,-7.715315,-1.6184803
1587369525456,-1.6484078,-7.714118,-1.7489643
1587369525467,-1.9021933,-8.902839,-1.4209588
1587369525478,-2.1990743,-9.813833,-1.3970166
1587369525489,-2.4037786,-10.102334,-1.5526398
1587369525499,-2.5222914,-10.1226845,-1.6208745
1587369525511,-2.7461493,-9.929952,-1.8363527
1587369525523,-2.9113493,-9.698911,-1.9189527
1587369525535,-2.8898015,-9.731233,-1.9859903
1587369525547,-2.825158,-9.676167,-2.0745757
1587369525554,-2.6443958,-9.726444,-2.2720973
1587369525566,-2.5701754,-9.799467,-2.4516625
1587369525578,-2.789245,-8.728063,-2.3750482
1587369525590,-2.9412768,-7.7967176,-2.3235726
1587369525600,-2.755726,-7.037756,-2.3750482
1587369525612,-2.6910827,-6.6666546,-2.5677812
1587369525622,-2.8670566,-6.5840545,-2.9472623
1587369525634,-2.5151088,-7.4950485,-3.4404678
1587369525643,-1.7310078,-8.699332,-4.295198
1587369525655,-0.80445176,-9.745598,-4.997896
1587369525663,0.08140286,-10.573992,-5.1930237
1587369525675,1.0127473,-11.131841,-5.0625396
1587369525687,1.1240777,-11.291056,-4.1455603
1587369525697,-0.6476316,-10.84334,-1.8351556
1587369525708,-5.0541596,-7.475895,-0.7398083
1587369525719,-7.314286,-7.2699933,-0.29927522
1587369525731,-8.117541,-7.825448,0.094570965
1587369525740,-7.1287355,-8.635885,0.8834604
1587369525751,-4.4280763,-10.668563,1.4867992
1587369525761,-2.529474,-12.218808,1.4425066
1587369525772,-1.2054806,-13.245921,1.5981296
1587369525783,-0.46447513,-15.33127,0.6356605
1587369525794,-0.6979098,-16.41345,-0.7086837
1587369525806,-1.9740193,-16.18241,-1.2737153
1587369525816,-4.0138793,-15.251065,-0.7733272
1587369525828,-5.363012,-13.838486,0.24420857
1587369525838,-4.3861775,-13.729549,0.5626374
1587369525850,-3.4715924,-13.937845,0.48961425
1587369525860,-2.7281928,-14.330494,0.33758244
1587369525872,-2.586935,-14.68723,-0.18674773
1587369525879,-2.231396,-14.189237,-0.688333
1587369525891,-2.112883,-12.995727,-1.033098
1587369525903,-1.8327614,-11.860875,-0.50517654
1587369525915,-1.8327614,-9.217676,0.78290397
1587369525925,-1.79206,-8.117541,0.5506664
1587369525937,-1.6256629,-7.3322425,0.46926352
1587369525947,-1.5119383,-6.7684083,0.44891283
1587369525959,-1.2042835,-6.235698,-0.045489833
1587369525969,-0.92775315,-5.8226986,-0.36391866
1587369525981,-0.7757214,-5.542577,-1.0893618
1587369525988,-0.8858546,-5.6790466,-1.3156139
1587369526000,-0.90620536,-5.556942,-1.483208
1587369526012,-1.2521675,-5.732916,-1.1420342
1587369526024,-1.8327614,-5.741296,-1.1240777
1587369526034,-2.2278047,-5.932832,-1.1959038
1587369526046,-2.4708161,-6.0597243,-1.1599907
1587369526056,-2.5234885,-5.9878983,-1.2425907
1587369526067,-2.349909,-5.8813562,-1.2749124
1587369526078,-2.1894975,-6.125565,-1.3084313
1587369526089,-2.0649989,-6.4152637,-1.5011644
1587369526099,-1.8950106,-6.609194,-1.7944542
1587369526110,-1.8950106,-6.609194,-1.7944542
1587369526121,-1.8950106,-6.609194,-1.7944542
1587369526133,-1.899799,-6.873753,-2.60968
1587369526142,-2.6324248,-6.8330517,-3.0992942
1587369526154,-3.1830912,-6.8246717,-2.847903
1587369526166,-3.843891,-6.939594,-1.9440918
1587369526176,-4.5980644,-7.0329676,-1.8710686
1587369526188,-6.505046,-7.2448545,-5.0302176
1587369526198,-7.381324,-8.355764,-4.381389
1587369526210,-7.5908165,-9.574412,-2.9580362
1587369526220,-7.394492,-11.155783,-2.3415294
1587369526232,-6.727707,-12.235568,-3.2489316
1587369526242,-6.147113,-12.5504055,-5.3402667
1587369526253,-6.4044895,-11.704055,-6.8761473
1587369526265,-6.781576,-9.818622,-7.4268136
1587369526275,-7.2723875,-7.651869,-6.8067155
1587369526287,-7.7919292,-5.967548,-4.83509
1587369526297,-7.2065473,-6.3661823,-1.1875241
1587369526309,-2.6300306,-15.9262295,-2.0685902
1587369526317,-2.6300306,-15.9262295,-2.0685902
1587369526329,2.1655555,-27.81344,2.730587
1587369526341,5.9986725,-22.850262,-2.7281928
1587369526351,5.9986725,-22.850262,-2.7281928
1587369526363,0.20829555,-3.7134068,-2.992752
1587369526372,-1.6795325,-3.003526,-3.1304188
1587369526383,-0.9804256,-3.3411086,0.35434186
1587369526395,0.08140286,-2.9137435,0.17956513
1587369526406,-0.23942018,-2.2529438,-0.7733272
1587369526417,-0.48243165,-3.8367083,-2.0278888
1587369526426,-1.7848774,-7.819463,-3.1376014
1587369526436,-3.0885203,-12.656947,-3.53863
1587369526448,-5.3737855,-18.988413,-0.89902276
1587369526459,-5.0182467,-18.266562,-2.195483
1587369526471,-4.2185836,-15.557523,-3.4380736
1587369526483,-2.7617116,-10.323798,-2.6420016
1587369526493,-1.5873557,-8.317456,-3.858256
1587369526504,-1.2150574,-7.0593038,-2.5330653
1587369526516,-0.748188,-5.9926867,-0.8583213
1587369526526,-0.2861071,-5.425261,-0.47405192
1587369526538,-0.17118542,-5.8825536,-1.1623849
1587369526548,-0.22625206,-6.715736,-0.91099375
1587369526559,0.019153614,-7.4830775,-1.0702082
1587369526570,-0.046686932,-8.277952,-1.0175357
1587369526581,-0.2885013,-9.332599,-1.4915876
1587369526592,-0.7038953,-8.974665,-2.5127146
1587369526604,-1.1911154,-8.723274,-2.2876596
1587369526613,-1.5478514,-8.542512,-2.0159178
1587369526625,-1.922544,-8.267179,-2.2637177
1587369526637,-2.2421699,-7.9786773,-2.3020248
1587369526645,-2.4420857,-7.9834657,-2.1200657
1587369526656,-2.64679,-8.128315,-1.7729063
1587369526668,-2.4756045,-8.39886,-1.5813702
1587369526680,-2.4133554,-8.500613,-1.4425066
1587369526690,-2.4049757,-8.711303,-1.400608
1587369526702,-2.493561,-8.963891,-1.3682863
1587369526712,-2.566584,-9.084799,-1.4520833
1587369526723,-2.6384103,-9.370906,-1.5406688
1587369526735,-2.7042508,-9.338584,-2.1152773
1587369526744,-2.3918076,-9.291897,-2.3343468
1587369526758,-2.0350714,-9.536105,-2.2421699
1587369526767,-1.7298107,-10.024523,-2.3594859
1587369526777,-2.0530279,-10.596737,-2.12246
1587369526788,-2.1763294,-9.461885,-2.1703439
1587369526799,-2.19668,-8.37372,-2.2996306
1587369526810,-1.9381063,-7.013814,-2.4420857
1587369526821,-1.6903064,-7.6135616,-2.9712043
1587369526833,-1.0761937,-8.7951,-3.9193082
1587369526845,-0.4321534,-9.810242,-4.9308586
1587369526854,-0.1412579,-10.600328,-5.5461683
1587369526868,-0.095768064,-11.419145,-4.900931
1587369526878,-1.043872,-11.283873,-3.3985693
1587369526887,-2.9628246,-10.776301,-2.492364
1587369526898,-4.1455603,-9.782708,-2.0530279
1587369526909,-5.4911017,-8.597578,-1.7405846
1587369526921,-7.2209125,-7.541735,-1.4520833
1587369526932,-8.772355,-7.393295,-0.89782566
1587369526943,-8.917204,-7.6746135,-0.44771573
1587369526954,-6.9252286,-8.669404,0.25977087
1587369526964,-3.930082,-10.183737,1.365892
1587369526975,-1.7585411,-11.670536,1.970428
1587369526986,-0.50038815,-12.641385,1.62686
1587369526997,-0.8475474,-15.061923,-0.2681506
1587369527008,-1.9500773,-15.915456,-0.59855044
1587369527018,-3.41892,-15.471332,-1.0223241
1587369527029,-4.629189,-14.443022,0.19393034
1587369527040,-4.4220905,-14.29937,-0.02873042
1587369527051,-3.7217865,-14.7399025,0.01316811
1587369527062,-3.107674,-15.048755,0.20949265
1587369527072,-2.8072014,-14.626178,-0.010773907
1587369527083,-2.5330653,-13.800179,0.17717093
1587369527094,-2.373851,-12.798205,0.044292733
1587369527106,-2.4756045,-11.174936,0.11971009
1587369527115,-2.2996306,-9.508572,0.29927522
1587369527127,-2.349909,-8.121132,1.673547
1587369527139,-2.565387,-5.7424927,0.56982
1587369527149,-2.6551697,-5.317522,0.088585466
1587369527161,-2.5965118,-5.2756233,-0.2681506
1587369527170,-2.5474305,-4.9296613,-1.079785
1587369527182,-2.5306711,-4.8865657,-1.79206
1587369527190,-1.9740193,-4.923676,-2.2170308
1587369527202,-2.03148,-5.270835,-2.4899697
1587369527214,-2.078167,-5.722142,-2.303222
1587369527224,-2.078167,-5.864597,-2.303222
1587369527235,-1.9261353,-6.113594,-1.9979613
1587369527247,-1.7932571,-6.113594,-1.982399
1587369527257,-1.6017209,-5.90889,-1.9440918
1587369527269,-1.6771383,-6.1926026,-2.055422
1587369527279,-1.827973,-6.527791,-2.147599
1587369527290,-1.9249382,-6.7684083,-2.3582888
1587369527300,-2.0470424,-6.933608,-2.6144683
1587369527312,-2.042254,-6.9719152,-2.8395233
1587369527322,-2.0817583,-6.9838862,-2.991555
1587369527334,-2.3020248,-6.944382,-3.015497
1587369527344,-2.7222073,-7.053318,-2.89459
1587369527356,-3.2429461,-7.2029557,-1.99437
1587369527366,-3.6619315,-7.451953,-1.1994951
1587369527378,-4.23654,-7.514202,-3.8546648
1587369527387,-6.563704,-8.755595,-4.712986
1587369527399,-7.3777328,-9.925163,-3.4129345
1587369527406,-7.3777328,-9.925163,-3.4129345
1587369527417,-7.69257,-11.4119625,-2.2337902
1587369527428,-6.7731967,-13.059174,-2.966416
1587369527439,-6.289568,-11.897985,-4.7046065
1587369527450,-6.465542,-10.072407,-6.0764837
1587369527461,-7.843405,-8.276755,-4.033033
1587369527472,-7.1945763,-8.4347725,-2.4001873
1587369527483,-5.626374,-12.212823,-2.0494366
1587369527494,-4.0426097,-17.367538,-0.20111294
1587369527506,-1.7501614,-24.75365,-0.11611878
1587369527514,1.6472107,-30.012516,-1.5251064
1587369527526,4.5645456,-26.998215,-1.6950948
1587369527538,2.0590134,-6.2249246,-5.2444987
1587369527548,-1.0307038,-1.7381904,-3.9109285
1587369527559,-2.1499932,-2.3463178,-2.3558946
1587369527571,-0.7733272,-2.1667526,0.85473
1587369527581,0.06943185,-2.5378537,-0.5650316
1587369527593,-0.32321724,-3.2680852,-2.2948422
1587369527603,-0.6368576,-5.993884,-1.8195933
1587369527615,-0.7589619,-10.43034,-0.7302315
1587369527622,-2.542642,-16.537949,-1.7741034
1587369527634,-3.4404678,-20.375854,-1.5191209
1587369527646,-2.517503,-20.809204,-3.0585926
1587369527658,-1.9500773,-11.759122,-4.3598413
1587369527668,-1.970428,-8.200141,-4.0904937
1587369527680,-1.1611878,-5.391742,-2.2002714
1587369527690,-0.51235914,-4.7776294,-1.3443443
1587369527702,-0.06344634,-4.8003745,-1.2904748
1587369527712,-0.051475335,-5.353435,-1.5191209
1587369527724,-0.45130703,-6.0728927,-1.6519991
1587369527731,-1.0845734,-6.8306575,-1.5981296
1587369527742,-1.9656396,-7.5189905,-1.7956513
1587369527753,-2.4480712,-7.98586,-1.5382746
1587369527764,-2.1499932,-8.359355,-1.7034745
1587369527775,-1.8531121,-8.798691,-1.5741876
1587369527786,-1.7034745,-9.012972,-1.5717934
1587369527797,-1.7776948,-8.438364,-2.5438392
1587369527808,-2.1823149,-8.246828,-2.3020248
1587369527819,-2.4612393,-8.457518,-2.1068976
1587369527830,-2.6192567,-8.65863,-1.7609353
1587369527840,-2.741361,-8.852561,-1.4676456
1587369527852,-2.8072014,-8.9279785,-1.70946
1587369527862,-2.669535,-9.068039,-1.6220716
1587369527874,-2.6252422,-9.160215,-1.745373
1587369527883,-2.4516625,-9.459491,-1.6448165
1587369527895,-2.3199813,-9.532514,-1.6496049
1587369527907,-2.315193,-9.44752,-2.043451
1587369527917,-2.469619,-9.202114,-2.4181437
1587369527929,-2.6839,-8.892065,-2.5617957
1587369527939,-2.7760768,-8.7053175,-2.7820623
1587369527950,-2.8455088,-8.694544,-2.360683
1587369527962,-3.1914709,-8.186973,-1.8028339
1587369527972,-3.1184478,-7.7572136,-1.2521675
1587369527984,-2.966416,-7.0940194,-1.0067618
1587369527993,-2.7868507,-6.637924,-0.7170634
1587369528005,-2.5773582,-6.55293,-0.7086837
1587369528017,-2.5378537,-6.967127,-1.4437037
1587369528027,-2.5773582,-7.451953,-2.3535004
1587369528039,-0.8355764,-11.18571,-4.237737
1587369528049,0.4417302,-12.99453,-4.8877625
1587369528061,1.5131354,-13.415909,-5.3378725
1587369528071,1.4736311,-12.6461735,-4.5238442
1587369528083,-0.91219085,-11.61547,-2.895787
1587369528092,-3.0969,-10.284293,-2.0733786
1587369528103,-4.4915223,-8.801085,-2.0913353
1587369528114,-6.209362,-7.3777328,-2.2493525
1587369528125,-9.465476,-6.5864487,-2.5893292
1587369528137,-8.998607,-7.53575,-1.7585411
1587369528149,-4.189853,-10.242394,1.2090719
1587369528159,-2.124854,-11.21085,1.3730747
1587369528170,-0.7110779,-12.966996,0.8834604
1587369528182,-0.60812724,-15.204378,-0.04309563
1587369528192,-1.3204023,-16.431406,-0.5506664
1587369528204,-2.7234044,-16.680403,-1.0187328
1587369528214,-3.6176388,-16.284163,-1.0857705
1587369528225,-3.5003228,-16.326061,-0.63206923
1587369528238,-2.112883,-15.995662,0.25378537
1587369528248,-1.780089,-15.46774,0.7038953
1587369528257,-1.9812019,-14.459781,0.60573304
1587369528269,-2.1057005,-13.269863,0.6631939
1587369528277,-2.1057005,-13.269863,0.6631939
1587369528289,-2.31639,-9.817424,0.8678981
1587369528301,-2.0398598,-8.611943,1.0690111
1587369528311,-1.9776106,-7.7608047,0.47524905
1587369528323,-2.2517467,-7.0940194,0.0023942017
1587369528332,-2.4827871,-6.7444663,0.14844051
1587369528344,-2.2038627,-6.1088057,-0.58298814
1587369528356,-2.0721815,-5.829881,-0.9840169
1587369528366,-1.5717934,-5.093664,-1.3263878
1587369528378,-1.2425907,-5.195418,-2.0530279
1587369528386,-1.2425907,-5.195418,-2.0530279
1587369528397,-1.22224,-5.771223,-1.4389153
1587369528409,-1.2174516,-5.8574142,-1.365892
1587369528420,-1.3239936,-5.791574,-1.3838485
1587369528431,-1.3730747,-6.0130377,-1.3275849
1587369528442,-1.4927847,-6.5206084,-1.6280571
1587369528453,-1.4796166,-6.8905125,-1.7585411
1587369528464,-1.3335704,-7.043741,-1.6867151
1587369528475,-1.0821792,-7.297527,-1.6077064
1587369528488,-0.91578215,-8.008605,-1.7968484
1587369528493,-0.91578215,-8.008605,-1.7968484
1587369528507,-0.78170687,-8.121132,-1.7860745
1587369528519,-0.6500258,-7.811083,-2.1308396
1587369528529,-0.9624691,-7.587225,-2.540248
1587369528540,-1.5155296,-7.1514807,-3.0669725
1587369528552,-2.4313118,-6.64391,-3.7852328
1587369528562,-3.6607344,-6.367379,-3.9384618
1587369528574,-6.2871737,-6.160281,-3.9971197
1587369528584,-7.5070195,-6.5804634,-3.5924997
1587369528596,-8.378509,-7.5225816,-2.956839
1587369528604,-8.298303,-9.109938,-2.493561
1587369528616,-7.4375877,-11.216835,-1.6340426
1587369528627,-6.0597243,-14.638149,-4.483143
1587369528639,-6.3087215,-13.508086,-6.6642604
1587369528649,-7.1383123,-10.723629,-7.7189064
1587369528661,-8.693346,-7.550115,-6.9024835
1587369528671,-9.367314,-5.6419363,-3.0933087
1587369528683,-7.121553,-8.186973,-1.353921
1587369528692,-3.9671922,-13.3464775,-2.3535004
1587369528704,-1.2689269,-18.677168,1.6172832
1587369528712,2.3535004,-23.80914,5.1247888
1587369528724,5.9890957,-27.392061,-1.0127473
1587369528735,4.7058034,-22.254105,-6.3111157
1587369528747,0.8403648,-10.004171,-2.3523033
1587369528756,-0.80445176,-5.055357,-1.8016368
1587369528768,-0.91338795,-4.3754034,-0.7541735
1587369528780,0.17956513,-4.7907977,-1.7956513
1587369528789,0.2633622,-7.6027875,-1.1456255
1587369528799,-0.39264908,-12.106281,-2.5773582
1587369528810,-1.827973,-16.545132,-2.8814218
1587369528819,-3.1675289,-18.701109,-1.6208745
1587369528830,-3.882198,-18.571823,-2.4253263
1587369528841,-3.5697548,-15.939398,-3.6762967
1587369528852,-2.8658595,-12.411542,-3.6858735
1587369528864,-2.4253263,-9.770737,-3.3602622
1587369528875,-1.9141643,-8.289924,-2.5510218
1587369528887,-1.1791444,-7.491457,-1.6017209
1587369528897,-0.62847793,-6.909666,-1.0019734
1587369528909,-0.10414778,-6.894104,-1.7980455
1587369528919,-0.33877954,-7.1287355,-1.7992426
1587369528931,-0.94690675,-7.1646485,-1.6304513
1587369528940,-0.41180268,-7.5848308,-2.0937295
1587369528952,-0.46806642,-8.01459,-1.6304513
1587369528964,-0.7733272,-8.139089,-1.4999673
