@ HyperIMU -ianovir - 2018
@ Date:Mon Apr 20 10:02:03 GMT+02:00 2020, Sampling Rate:10ms

timestamp,K6DS3TR_Accelerometer.x,K6DS3TR_Accelerometer.y,K6DS3TR_Accelerometer.z
1587369723202,0.0,0.0,0.0
1587369723213,0.0,0.0,0.0
1587369723224,-1.4616601,0.7038953,9.836577
1587369723236,-1.5861586,0.6607997,9.801862
1587369723245,-1.5861586,0.6607997,9.801862
1587369723256,-1.5861586,0.6607997,9.801862
1587369723268,-1.6041151,0.78529817,9.785102
1587369723279,-1.3467385,0.91338795,9.7084875
1587369723290,-1.2246342,0.91817635,9.716867
1587369723301,-1.0977415,0.9552865,9.794679
1587369723312,-1.1540052,0.9624691,9.860519
1587369723321,-1.1204864,0.80684596,9.902418
1587369723332,-1.2413936,0.80804306,9.835381
1587369723343,-1.3335704,0.80924016,9.90601
1587369723354,-1.4437037,0.8403648,9.892841
1587369723366,-1.5107412,0.8523358,9.791088
1587369723377,-1.5131354,0.8810662,9.737218
1587369723388,-1.5107412,0.90261406,9.703699
1587369723399,-1.5047557,0.91578215,9.631873
1587369723411,-1.340753,0.8810662,9.579201
1587369723420,-1.340753,0.8810662,9.579201
1587369723433,-1.2318168,0.7685388,9.520543
1587369723442,-1.2318168,0.7685388,9.520543
1587369723454,-1.4341269,0.676362,9.698911
1587369723465,-1.541866,0.7541735,9.77792
1587369723476,-1.5849615,0.830788,9.792285
1587369723487,-1.5562311,0.8607155,9.885659
1587369723498,-1.4987702,0.9816227,9.888053
1587369723509,-1.3623008,0.92057055,9.604341
1587369723521,-1.0462662,0.81402856,9.246407
1587369723530,-1.0462662,0.81402856,9.246407
1587369723543,-1.1935096,0.7685388,9.3733
1587369723552,-1.780089,0.81283146,9.779117
1587369723564,-1.8614918,0.8511387,9.949105
1587369723575,-1.8303672,0.91578215,10.117896
1587369723586,-1.7118542,1.1001357,9.921572
1587369723597,-1.5215151,1.2054806,9.581595
1587369723608,-1.0857705,0.9959879,8.892065
1587369723619,-0.6607997,0.7254431,8.63828
1587369723630,-0.56982,0.50397944,8.728063
1587369723642,-0.7086837,0.2861071,9.485827
1587369723649,-1.0905589,0.20709845,10.089166
1587369723660,-1.4688427,0.09696517,10.344149
1587369723671,-2.0087352,0.46327803,10.029311
1587369723686,-2.0087352,0.46327803,10.029311
1587369723695,-1.8866309,0.5554548,9.691729
1587369723706,-1.1300632,0.6955156,9.011775
1587369723717,-0.8331822,0.48243165,8.763975
1587369723728,-0.91817635,0.4225766,9.147048
1587369723740,-1.055843,0.29568392,9.485827
1587369723749,-1.3682863,0.22266077,9.691729
1587369723762,-1.7034745,0.29807812,9.731233
1587369723771,-1.7034745,0.29807812,9.731233
1587369723782,-1.3311762,0.7062895,9.461885
1587369723794,-1.1324574,0.59615624,9.249998
1587369723805,-0.6859388,0.6452374,8.981848
1587369723816,-0.7613561,0.7697359,8.807071
1587369723827,-0.7613561,0.7697359,8.807071
1587369723839,-1.4185646,0.6548142,9.308656
1587369723848,-1.3359646,0.5638345,9.303867
1587369723860,-1.1085154,0.7565677,9.618706
1587369723869,-1.0905589,0.8738836,9.880871
1587369723881,-1.3036429,1.0642227,9.834184
1587369723897,-1.3156139,0.9600749,9.054871
1587369723904,-1.4616601,0.93613285,8.760384
1587369723913,-1.9141643,0.985214,8.602366
1587369723924,-1.9141643,0.985214,8.602366
1587369723935,-3.145981,0.6560113,9.487024
1587369723946,-3.2190042,0.81402856,9.973047
1587369723957,-2.6156654,0.81043726,10.006566
1587369723968,-1.8471266,0.8451532,9.940725
1587369723977,-1.282095,1.1168951,9.910798
1587369723988,-1.1791444,0.8762778,9.697714
1587369724001,-1.234211,0.51595044,9.372103
1587369724012,-1.7513585,-0.005985504,9.163807
1587369724022,-1.7513585,-0.005985504,9.163807
1587369724034,-2.2661119,0.45848963,11.121067
1587369724044,-2.6396074,0.557849,10.494983
1587369724056,-2.0207062,0.4309563,9.44752
1587369724066,-2.0626047,0.6584055,9.029732
1587369724078,-2.1176715,0.4165911,8.842984
1587369724086,-2.0901382,0.6715736,9.306262
1587369724099,-2.3906105,1.0043676,9.428367
1587369724108,-2.6647465,1.0271125,9.838972
1587369724120,-2.8874073,1.3503298,9.991004
1587369724133,-2.6731262,1.3934253,10.449493
1587369724143,-2.4408886,1.3192052,10.0029745
1587369724153,-1.3455414,1.1647792,8.921992
1587369724165,-1.2210429,1.8543092,9.046491
1587369724175,-1.2210429,1.8543092,9.046491
1587369724188,-1.2006922,0.8750807,8.508993
1587369724194,-1.5263035,0.7422025,9.00579
1587369724206,-1.3024458,0.49081135,9.238028
1587369724218,-0.89782566,0.24540567,8.977059
1587369724231,0.2825158,0.19871874,8.969876
1587369724241,0.2825158,0.19871874,8.969876
1587369724252,1.0139444,-0.21667525,9.469068
1587369724262,0.6859388,-0.093373865,10.392033
1587369724274,0.6859388,-0.093373865,10.392033
1587369724284,-0.9516952,0.78170687,12.129025
1587369724297,-1.1791444,0.8595184,11.455058
1587369724304,-1.0043676,1.1133038,10.685322
1587369724316,-0.90620536,1.5023615,9.88925
1587369724328,-0.6392518,1.5921441,9.543288
1587369724338,-0.94690675,1.4341269,9.694122
1587369724350,-1.2629414,1.2940661,9.564836
1587369724361,-1.270124,1.3934253,9.258378
1587369724371,-1.2413936,1.5107412,8.9519205
1587369724383,-1.3515269,1.6220716,9.349358
1587369724395,-1.3311762,1.5933412,9.696517
1587369724405,-1.1540052,1.4389153,9.846154
1587369724417,-0.8750807,1.3862427,9.932345
1587369724428,-0.6464345,1.353921,10.133459
1587369724439,-0.40342298,1.270124,10.143036
1587369724451,-0.18195933,1.2366052,9.973047
1587369724461,0.2873042,0.81043726,9.660604
1587369724472,0.2873042,0.81043726,9.660604
1587369724481,-0.51834464,1.2485762,9.570822
1587369724493,-0.6392518,1.0941502,9.601946
1587369724505,-0.59974754,1.0726024,9.436746
1587369724515,-0.5710171,1.1815386,9.533711
1587369724527,-0.6536171,1.1659763,9.800665
1587369724537,-0.78529817,1.283292,10.052056
1587369724549,-0.65242,1.388637,9.929952
1587369724559,-0.557849,1.3299791,9.516952
1587369724571,-0.581791,1.2797008,10.09156
1587369724581,-0.25019407,1.4951789,9.962274
1587369724594,-0.17238252,1.4772224,9.779117
1587369724604,-0.2681506,1.553837,9.464279
1587369724614,-0.6931214,1.3479356,9.548077
1587369724626,-0.5734113,1.5298948,8.986636
1587369724635,-0.5554548,1.5693992,8.895657
1587369724647,-0.7398083,1.7142484,8.831013
1587369724657,-0.6452374,1.6831238,9.563639
1587369724670,-0.8882488,1.8986019,10.26514
1587369724680,-0.90740246,1.6436194,10.606314
1587369724691,-0.78290397,1.376666,10.490194
1587369724701,-0.6679823,1.292869,8.8884735
1587369724714,-1.2174516,1.234211,8.062474
1587369724724,-1.2174516,1.234211,8.062474
1587369724734,-2.384625,1.4700398,7.1059904
1587369724745,-2.5594015,1.9644425,7.776367
1587369724758,-2.7329812,2.1942859,8.713697
1587369724768,-2.741361,1.6579847,8.905233
1587369724778,-2.3882163,1.4173675,9.379285
1587369724790,-1.8435353,1.3084313,9.23683
1587369724800,-0.92296475,1.0163386,9.115923
1587369724812,0.0047884034,1.0402806,8.8777
1587369724822,0.0047884034,1.0402806,8.8777
1587369724834,0.08499416,0.79726917,9.227253
1587369724844,0.15442601,0.90021986,10.492589
1587369724857,0.15442601,0.90021986,10.492589
1587369724867,-0.36631286,0.9600749,12.516887
1587369724877,0.07182605,1.13964,11.920731
1587369724889,0.38307226,1.3682863,10.830172
1587369724900,0.4357447,1.3299791,9.694122
1587369724910,0.32202014,1.4173675,8.965088
1587369724923,0.5267244,1.1899183,8.783129
1587369724933,0.47644615,0.93972415,8.780735
1587369724946,0.30047232,1.1492168,9.774328
1587369724955,0.30047232,1.1492168,9.774328
1587369724969,1.0654198,0.7386112,10.283096
1587369724978,1.6759412,0.8283938,10.0987425
1587369724989,1.5275006,0.94092125,9.892841
1587369725000,0.62847793,0.6655881,9.449914
1587369725011,-0.39504328,0.78050977,9.653421
1587369725022,-0.39504328,0.78050977,9.653421
1587369725034,0.35434186,0.4177882,7.976283
1587369725044,-0.14724341,1.4377182,7.9343843
1587369725056,-0.14724341,1.4377182,7.9343843
1587369725067,-2.4768016,1.1839328,8.762778
1587369725076,-3.489549,1.6555905,9.172187
1587369725088,-2.742558,1.3072342,8.998607
1587369725100,-1.3275849,1.7345991,8.143877
1587369725110,-0.94810385,0.7649474,9.361329
1587369725123,-0.7074866,0.6727707,10.0987425
1587369725133,-0.4381389,0.30765492,11.35929
1587369725143,0.055066638,0.545878,11.180922
1587369725155,0.055066638,0.545878,11.180922
1587369725165,0.90500826,0.7110779,10.205285
1587369725177,2.111686,0.05267244,10.13705
1587369725185,2.0446482,0.47165772,9.947908
1587369725197,1.5071499,0.8655039,9.427169
1587369725210,0.7338228,1.1875241,9.308656
1587369725220,0.46088383,1.6484078,8.498219
1587369725231,1.5957354,1.5179238,9.112331
1587369725242,1.4281414,4.8219223,9.587581
1587369725252,1.4281414,4.8219223,9.587581
1587369725264,2.3127987,3.9480386,9.5732155
1587369725274,2.6563668,2.1918917,9.23683
1587369725286,2.7940333,0.8595184,9.593566
1587369725294,2.4301147,0.21787235,10.375273
1587369725307,2.2182279,-0.19273324,10.696096
1587369725317,2.0326772,-0.724246,10.247183
1587369725329,1.5777789,-0.89303726,9.160215
1587369725341,2.3762453,0.1400608,7.728483
1587369725351,2.3762453,0.1400608,7.728483
1587369725361,3.8869865,2.3523033,8.091205
1587369725374,4.811148,2.6491842,8.178593
1587369725384,4.6351743,3.0693667,8.77834
1587369725394,3.217807,1.8746599,9.417592
1587369725406,1.2533646,0.1592144,9.606734
1587369725416,2.042254,-1.2126632,8.589199
1587369725428,2.9879637,-1.9512744,8.103176
1587369725438,3.1016884,-1.8806454,7.5908165
1587369725450,3.0597897,-0.15801731,7.1969705
1587369725461,2.9855695,0.34237084,8.182184
1587369725471,2.755726,0.90141696,8.224083
1587369725483,2.385822,0.038307227,9.02614
1587369725493,2.7006595,-1.1168951,9.415198
1587369725505,3.1507695,-1.7776948,8.396465
1587369725514,3.5170822,-2.8167782,7.9128366
1587369725526,4.0462008,-2.6132712,7.3525934
1587369725536,4.0462008,-2.6132712,7.3525934
1587369725548,4.247314,0.40701428,8.003817
1587369725558,4.321534,0.58777654,8.090008
1587369725570,4.003105,-0.9540894,9.3026705
1587369725584,2.2589293,-3.7301662,7.799112
1587369725594,1.2593501,-5.41329,6.975507
1587369725604,1.2593501,-5.41329,6.975507
1587369725617,2.5821466,-6.9719152,5.055357
1587369725623,3.3913867,-3.9133227,7.773973
1587369725635,4.6662993,-1.4520833,9.690532
1587369725647,5.5748987,-0.7637503,10.858902
1587369725659,5.9567738,-0.37828386,12.253524
1587369725669,6.528988,1.1899183,13.10586
1587369725681,7.2568254,-0.89184016,11.493365
1587369725691,6.7767878,0.39504328,9.643845
1587369725705,5.7496753,1.7932571,10.741586
1587369725715,6.381745,1.827973,10.404003
1587369725725,4.134786,0.007182605,11.147403
1587369725737,4.134786,0.007182605,11.147403
1587369725748,4.4208937,-1.6783354,12.451046
1587369725758,4.155137,-2.7820623,12.299014
1587369725770,4.6806645,-2.9125464,11.220427
1587369725780,4.7656584,-2.896984,10.509348
1587369725793,4.3263226,-1.7417817,10.473435
1587369725803,4.3263226,-1.7417817,10.473435
1587369725813,4.8255134,-0.19871874,12.631808
1587369725826,4.88058,0.19871874,13.681665
1587369725836,4.88058,0.19871874,13.681665
1587369725848,4.642357,-0.8726865,14.335282
1587369725858,4.0258503,-1.7561469,14.365211
1587369725870,3.6607344,-2.4001873,14.264654
1587369725880,3.4009635,-2.2613235,13.721169
1587369725893,3.2393548,-0.260968,12.920309
1587369725903,3.2393548,-0.260968,12.920309
1587369725913,4.211401,-0.48961425,13.199234
1587369725925,4.0438066,-0.4417302,12.187684
1587369725936,4.0438066,-0.4417302,12.187684
1587369725946,3.9001546,-0.5758055,10.275913
1587369725958,4.0222588,-1.2246342,9.7563715
1587369725968,4.209007,-1.5107412,9.113529
1587369725981,4.4639893,-1.5406688,8.695741
1587369726002,4.903325,-1.5729905,8.152257
1587369726009,5.0876784,-1.1540052,7.680599
1587369726016,5.427655,-1.0845734,7.8086886
1587369726025,5.6419363,-1.4437037,7.8170686
1587369726034,5.6419363,-1.4437037,7.8170686
1587369726046,5.674258,-1.8722657,7.53575
1587369726055,5.8825536,-2.5570073,7.9236107
1587369726068,5.7975593,-3.0681696,8.033744
1587369726077,5.4982843,-3.004723,7.7213006
1587369726087,5.306748,-2.8802247,7.350199
1587369726098,5.189432,-2.717419,6.8330517
1587369726109,5.5485625,-1.5777789,6.2141504
1587369726120,5.744887,-1.2114661,5.529409
1587369726131,5.853823,-1.3156139,5.08289
1587369726143,5.829881,-2.4959552,6.1411276
1587369726154,5.5150437,-3.6020765,6.8007298
1587369726166,5.2085857,-4.3358994,7.3202715
1587369726174,4.739322,-4.572925,7.2209125
1587369726186,4.4687777,-4.911705,7.3729444
1587369726198,4.402937,-5.354632,7.735666
1587369726209,4.381389,-5.4563856,8.329428
1587369726220,4.23654,-5.3486466,8.218098
1587369726231,3.807978,-5.141548,7.896077
1587369726241,3.2477345,-4.2556934,6.7564373
1587369726253,2.7748797,-3.8402996,6.4140663
1587369726264,2.718616,-4.414908,6.362591
1587369726274,2.859874,-4.697424,6.7600284
1587369726286,2.859874,-4.697424,6.7600284
1587369726296,2.9616275,-4.8781857,7.5321584
1587369726308,3.205836,-4.996699,7.78355
1587369726318,3.2812533,-4.819528,7.771579
1587369726330,2.966416,-4.734534,7.395689
1587369726340,2.6013002,-4.6232033,7.1466923
1587369726352,2.336741,-4.297592,6.815095
1587369726362,2.4253263,-4.0940847,6.327875
1587369726374,2.9508536,-4.1802764,6.781576
1587369726384,2.9508536,-4.1802764,6.781576
1587369726396,4.050989,-4.667496,8.031349
1587369726406,4.3155484,-5.0637364,8.355764
1587369726418,4.3766007,-5.269638,8.288726
1587369726428,4.337096,-4.981137,7.867347
1587369726441,4.179079,-4.590882,7.0820484
1587369726451,3.53863,-4.5801077,6.919243
1587369726461,2.9161377,-4.38498,6.375759
1587369726474,3.180697,-3.5901055,4.223372
1587369726484,3.180697,-3.5901055,4.223372
1587369726494,1.9213469,-3.5458126,7.7320743
1587369726506,3.8762126,-5.6922145,8.36175
1587369726517,6.0561333,-7.6494746,9.835381
1587369726527,7.1766195,-7.5225816,9.895236
1587369726539,6.8665705,-6.6654577,9.108741
1587369726549,6.244078,-5.66109,7.8996687
1587369726561,5.3342814,-4.8817773,5.281609
1587369726572,5.1439424,-4.6938324,4.301183
1587369726582,5.1439424,-4.6938324,4.301183
1587369726595,5.1762643,-4.5992613,4.175488
1587369726605,5.985504,-5.00867,6.0489507
1587369726616,6.8222775,-5.3223104,7.529764
1587369726627,6.779182,-5.6646814,8.280347
1587369726638,6.4523735,-5.6060233,8.752005
1587369726650,6.009446,-5.437232,8.831013
1587369726659,6.184223,-5.261258,8.298303
1587369726673,5.6431336,-4.936844,6.1530986
1587369726683,5.6431336,-4.936844,6.1530986
1587369726694,4.7656584,-4.9176903,3.417723
1587369726704,4.7381253,-5.1140146,2.9879637
1587369726716,4.7381253,-5.1140146,2.9879637
1587369726724,5.461174,-5.7017913,5.353435
1587369726736,6.980295,-5.401319,6.7959414
1587369726748,6.9048777,-5.5102553,6.467936
1587369726758,6.133945,-6.3230867,4.6806645
1587369726771,9.001001,-4.0138793,7.0449386
1587369726781,9.001001,-4.0138793,7.0449386
1587369726792,9.49301,-4.9308586,7.1754227
1587369726803,9.677363,-4.735731,6.4499793
1587369726813,9.677363,-4.735731,6.4499793
1587369726825,9.374496,-6.009446,3.514688
1587369726834,9.374496,-6.009446,3.514688
1587369726846,8.577228,-5.8226986,0.48482585
1587369726856,8.048109,-5.5844755,0.088585466
1587369726868,7.2987237,-5.243302,0.7565677
1587369726878,7.7847466,-5.3378725,2.0937295
1587369726890,8.820239,-5.448006,3.6415808
1587369726906,8.522161,-6.9767036,4.3035774
1587369726916,8.522161,-6.9767036,4.3035774
1587369726926,7.764396,-7.9607205,1.4149733
1587369726936,7.699753,-7.848193,3.2453403
1587369726948,7.4950485,-7.5549035,3.8618474
1587369726958,6.7384806,-11.769896,2.9173348
1587369726971,5.8586116,-7.3537903,5.2660465
1587369726981,6.5146227,-7.4854717,0.90620536
1587369726991,4.88896,-5.374983,-1.9069817
1587369727004,5.7065797,-5.7305217,-1.0127473
1587369727014,5.7065797,-5.7305217,-1.0127473
1587369727024,5.866991,-6.042965,1.5646108
1587369727037,5.445612,-5.9902925,1.9764135
1587369727047,4.8985367,-6.6247563,1.0450691
1587369727059,4.3538556,-6.564901,0.15203181
1587369727071,3.1854854,-6.2261214,-0.16280572
1587369727082,3.1316159,-6.980295,-0.7038953
1587369727092,3.7696705,-8.244433,0.32441434
1587369727101,4.2185836,-9.4774475,1.1049241
1587369727113,4.2185836,-9.4774475,1.1049241
1587369727125,5.068525,-8.943541,0.45130703
1587369727134,5.033809,-9.192537,0.60094464
1587369727145,6.279991,-9.235633,0.37708676
1587369727156,6.951565,-8.294712,1.5454572
1587369727165,6.951565,-8.294712,1.5454572
1587369727176,5.8945246,-6.5936313,2.3810337
1587369727187,7.052121,-6.8426285,0.6548142
1587369727199,8.1558485,-7.667431,-0.4309563
1587369727212,8.263587,-7.231686,0.19512744
1587369727222,3.9432502,-9.659407,-1.5753847
1587369727232,3.9432502,-9.659407,-1.5753847
1587369727244,2.3020248,-6.817489,-1.1791444
1587369727254,3.2932243,-7.443573,0.7338228
1587369727266,3.2932243,-7.443573,0.7338228
1587369727274,5.554548,-9.890448,3.9719806
1587369727286,6.3326635,-11.075577,3.1890767
1587369727298,6.4523735,-11.355699,1.1180922
1587369727308,8.475474,-10.62427,-2.2780828
1587369727321,6.4463882,-8.9519205,-1.9428947
1587369727331,6.4463882,-8.9519205,-1.9428947
1587369727343,5.9483943,-8.422802,0.15203181
1587369727353,5.9268465,-8.819042,0.63087213
1587369727364,5.9268465,-8.819042,0.63087213
1587369727374,7.0724716,-9.229648,0.19393034
1587369727387,6.894104,-9.755175,-0.6332663
1587369727397,6.327875,-9.555259,-1.021127
1587369727407,5.5377884,-8.813056,-1.1013328
1587369727419,5.3223104,-8.22528,-1.6555905
1587369727430,5.2289367,-7.323863,-1.2976574
1587369727440,4.4244847,-7.536947,-0.7793127
1587369727453,5.092467,-8.7125,0.7302315
1587369727463,5.092467,-8.7125,0.7302315
1587369727473,6.4416,-6.7444663,2.6060886
1587369727486,6.1303535,-7.8865004,2.8107927
1587369727492,6.381745,-8.65863,1.4760253
1587369727504,5.5365915,-7.3609734,1.115698
1587369727516,5.7257333,-6.501455,0.49679685
1587369727528,5.9783216,-6.671443,1.0354922
1587369727538,5.729325,-7.4483614,0.961272
1587369727550,5.7365074,-7.785944,0.60453594
1587369727560,5.3043537,-7.441179,0.40940848
1587369727572,4.97156,-6.7013707,0.12928689
1587369727582,4.775235,-6.851008,0.19752164
1587369727594,5.424064,-8.305486,-0.30286652
1587369727602,4.5166616,-8.845378,-0.5758055
1587369727615,4.5166616,-8.845378,-0.5758055
1587369727625,3.716998,-9.315839,-0.997185
1587369727637,3.9025488,-8.815451,-1.2593501
1587369727647,4.11683,-8.063671,-1.1121067
1587369727659,5.079299,-6.7708025,-0.047884032
1587369727669,5.6946087,-7.1622543,0.51834464
1587369727681,4.4759603,-8.303091,1.0869676
1587369727692,4.4759603,-8.303091,1.0869676
1587369727702,3.4440591,-8.846576,-0.15562311
1587369727714,3.4440591,-8.846576,-0.15562311
1587369727724,3.1639376,-8.971074,-1.2689269
1587369727736,3.5446155,-8.50181,-1.8028339
1587369727746,3.5446155,-8.50181,-1.8028339
1587369727758,4.0521865,-8.500613,-1.7106571
1587369727769,3.8259344,-8.774749,-1.376666
1587369727779,2.6886885,-9.672575,-1.8662802
1587369727791,2.6324248,-9.97185,-2.4995465
1587369727802,3.0382419,-12.236765,-2.171541
1587369727812,3.0382419,-12.236765,-2.171541
1587369727825,2.598906,-9.989806,-3.4261026
1587369727835,2.4756045,-9.214086,-2.7389667
1587369727845,2.4756045,-9.214086,-2.7389667
1587369727857,2.7748797,-8.993818,-0.9564836
1587369727867,2.705448,-8.845378,-0.19512744
1587369727879,2.920926,-8.680179,0.074220255
1587369727889,3.6332011,-8.916007,-0.019153614
1587369727902,4.31076,-10.232818,-0.7338228
1587369727912,4.31076,-10.232818,-0.7338228
1587369727922,4.758476,-11.307815,0.1388637
1587369727934,5.0146556,-11.868058,0.07182605
1587369727945,5.0146556,-11.868058,0.07182605
1587369727955,5.446809,-11.662156,-0.78290397
1587369727967,5.683835,-11.391612,-1.1719618
1587369727977,5.523423,-11.121067,-1.0522517
1587369727989,5.463568,-10.022128,-1.2066777
1587369728000,4.441244,-9.045294,0.6979098
1587369728010,3.3674448,-8.062474,1.2808979
1587369728021,2.1559787,-6.671443,1.1839328
1587369728034,2.8538885,-9.471462,0.8463503
1587369728040,2.8538885,-9.471462,0.8463503
1587369728052,2.1308396,-11.572374,-6.469133
1587369728064,2.4133554,-9.767146,-3.572149
1587369728076,2.6683378,-7.475895,-0.8738836
1587369728086,2.9161377,-6.921637,0.5231331
1587369728098,4.134786,-6.4906807,1.0019734
1587369728108,2.5797524,-7.868544,0.59376204
1587369728120,2.5845408,-9.415198,-1.127669
1587369728131,3.7217865,-10.159795,-1.8267759
1587369728142,3.7217865,-10.159795,-1.8267759
1587369728152,4.0426097,-8.231265,-3.0478187
1587369728164,3.7804444,-8.331821,-2.1296425
1587369728174,3.0681696,-7.73806,-1.7633295
1587369728185,2.610877,-7.5309615,-1.9369092
1587369728196,2.5605986,-7.845799,-1.6903064
1587369728207,2.9113493,-8.277952,-1.6304513
1587369728220,2.7736826,-8.875306,-1.4053963
1587369728229,2.421735,-8.687361,-0.8283938
1587369728240,2.906561,-8.372523,-1.4664485
1587369728251,3.6834793,-9.029732,-1.769315
1587369728261,3.6834793,-9.029732,-1.769315
1587369728273,3.799598,-8.322245,0.037110128
1587369728283,3.9145198,-9.099164,0.45130703
1587369728295,3.9145198,-9.099164,0.45130703
1587369728305,2.9843724,-10.196905,-0.78170687
1587369728317,1.9452889,-9.082404,-0.17956513
1587369728327,3.4512417,-8.542512,-2.3092074
1587369728339,4.107253,-9.002198,-2.1631613
1587369728349,4.07134,-9.873688,-2.1775265
1587369728362,2.8766334,-10.125079,-1.4281414
1587369728368,2.9317,-10.056845,-1.0139444
1587369728380,3.1256304,-9.665392,-0.33758244
1587369728392,2.919729,-9.950302,-0.076614454
1587369728404,2.755726,-10.693702,-1.411382
1587369728415,2.2589293,-10.763134,-2.4468741
1587369728426,1.9512744,-11.280281,-2.9891608
1587369728436,2.0614076,-10.986992,-2.1200657
1587369728448,2.8694508,-9.864111,-0.7338228
1587369728458,2.4528596,-10.776301,-0.11372458
1587369728470,2.670732,-11.140221,-0.02873042
1587369728479,2.8634653,-10.521319,-0.32920274
1587369728491,2.7880478,-10.597934,-0.20590134
1587369728501,2.779668,-10.509348,-0.31004912
1587369728513,1.388637,-10.893618,-0.24061728
1587369728523,1.1671734,-10.636241,-0.7386112
1587369728535,1.0115502,-10.45069,-1.1444284
1587369728546,0.29209262,-8.848969,-1.1563994
1587369728556,0.050278235,-8.799889,-1.270124
1587369728568,0.20111294,-8.957906,-1.2868834
1587369728578,0.2681506,-9.294291,-1.3347675
1587369728590,0.51834464,-9.759963,-1.0749966
1587369728601,0.6344634,-9.2547865,-1.271321
1587369728611,0.32680854,-8.465898,-1.5490485
1587369728623,-0.17118542,-8.135497,-3.9827545
1587369728633,-2.670732,-7.926005,-3.333926
1587369728645,-2.670732,-7.926005,-3.333926
1587369728655,-0.41180268,-9.671378,-3.9671922
1587369728667,-1.9800048,-9.078813,-2.834735
1587369728677,-1.9800048,-9.078813,-2.834735
1587369728689,-3.7960067,-8.724471,-2.5306711
1587369728697,-3.0454245,-10.873267,-3.0083144
1587369728710,-1.091756,-12.731168,-3.620033
1587369728721,1.6304513,-13.290214,-4.209007
1587369728731,4.7189717,-10.763134,-1.1779473
1587369728743,4.7189717,-10.763134,-1.1779473
1587369728753,3.6272156,-5.993884,4.746505
1587369728765,0.15682021,-8.280347,0.5662287
1587369728775,0.15682021,-8.280347,0.5662287
1587369728787,0.48482585,-9.441534,0.50038815
1587369728797,1.0606314,-9.460688,2.15957
1587369728809,1.4891934,-8.789114,2.9747956
1587369728820,1.3838485,-9.036914,1.9620483
1587369728831,1.5622166,-9.77792,0.18674773
1587369728841,2.0123265,-10.234015,-0.770933
1587369728854,1.2665327,-9.7479925,-0.21787235
1587369728864,-0.46088383,-8.880095,0.60812724
1587369728874,-0.46088383,-8.880095,0.60812724
1587369728886,-2.0530279,-11.625047,0.82360536
1587369728896,-1.5813702,-13.26268,-0.7194576
1587369728908,0.15801731,-11.597513,-2.7222073
1587369728916,0.9756372,-11.267113,-2.2876596
1587369728928,1.2270284,-10.960655,0.24301147
1587369728940,1.283292,-9.714474,-0.06344634
1587369728951,0.32561144,-9.226056,-0.49799395
1587369728961,-2.5091233,-10.077195,-2.955642
1587369728973,-2.5091233,-10.077195,-2.955642
1587369728983,-1.9692309,-10.4171715,-2.3678656
1587369728995,-1.5658079,-10.521319,-1.578976
1587369729005,-1.0606314,-10.703279,-1.1216835
1587369729017,-0.7697359,-10.6637745,-0.9935937
1587369729025,-0.7697359,-10.6637745,-0.9935937
1587369729037,-0.5386954,-10.042479,-1.5370775
1587369729049,-0.6691794,-9.689334,-2.385822
1587369729059,-0.5805939,-9.260772,-2.5306711
1587369729071,-0.18555063,-9.070433,-1.8974048
1587369729081,-0.50637364,-9.233239,-2.457648
1587369729093,-0.7649474,-9.100361,-2.8060043
1587369729103,-0.52073884,-9.36492,-1.3826514
1587369729115,-0.11611878,-9.935937,-2.6204538
1587369729125,-0.11611878,-9.935937,-2.6204538
1587369729137,0.29328972,-10.395624,-2.6803088
1587369729147,0.08379706,-9.495404,-2.018312
1587369729159,0.17956513,-8.747216,-1.946486
1587369729169,0.2777274,-8.811859,-1.4185646
1587369729182,-0.10654198,-9.132683,-1.5682021
1587369729192,-0.10654198,-9.132683,-1.5682021
1587369729202,1.0690111,-11.384429,-1.6005238
1587369729215,-0.3842694,-12.308591,-0.32441434
1587369729225,-0.3842694,-12.308591,-0.32441434
1587369729235,-1.3323733,-10.576386,-3.084929
1587369729246,-1.1492168,-10.096349,-2.4947581
1587369729257,-1.2006922,-9.652225,-2.2158337
1587369729269,-1.4544775,-8.980651,-1.8507179
1587369729279,-1.3108255,-8.391677,-2.1212628
1587369729290,-0.8870517,-7.551312,-1.6998832
1587369729301,-0.5722142,-9.436746,-2.280477
1587369729312,-0.90261406,-9.696517,-2.4289176
1587369729323,-0.90261406,-9.696517,-2.4289176
1587369729334,-0.074220255,-8.86932,-1.8303672
1587369729345,-0.59136784,-10.299856,-2.2601264
1587369729355,-0.63087213,-9.40203,-1.650802
1587369729367,-0.6488287,-8.640674,-2.100912
1587369729378,-0.33518824,-8.175002,-2.8455088
1587369729388,-0.005985504,-9.051279,-3.6523547
1587369729400,-0.08619126,-9.999383,-3.1124623
1587369729411,-0.14604631,-10.997766,-0.9780314
1587369729421,-0.14604631,-10.997766,-0.9780314
1587369729433,-0.80086046,-9.844957,-1.6555905
1587369729443,-3.6822822,-9.993398,0.44651863
1587369729456,-3.2968156,-9.363723,-1.0450691
1587369729461,-3.8247373,-8.856153,-0.94570965
1587369729476,-3.8247373,-8.856153,-0.94570965
1587369729486,-4.8362875,-8.7053175,-1.9847932
1587369729498,-4.8494554,-8.544906,-2.1068976
1587369729507,-5.1678843,-8.939949,-1.5346833
1587369729519,-5.2564697,-9.339781,-1.5023615
1587369729532,-3.110068,-9.768343,-1.1109096
1587369729542,-3.110068,-9.768343,-1.1109096
1587369729552,-2.5833437,-8.724471,-0.6859388
1587369729564,-2.3008277,-7.406463,0.7182605
1587369729572,-2.3008277,-7.406463,0.7182605
1587369729584,-1.6041151,-8.154651,-2.7246015
1587369729596,-2.5929205,-8.768764,-3.0059202
1587369729606,-3.654749,-8.147469,-2.2852654
1587369729618,-3.9073372,-7.511808,-1.1432313
1587369729628,-3.53863,-6.0597243,-1.5610195
1587369729640,-4.144363,-5.4527946,-1.5885528
1587369729651,-4.581305,-6.021417,-1.7310078
1587369729661,-3.335123,-5.8681884,-1.5143325
1587369729674,-3.335123,-5.8681884,-1.5143325
1587369729680,-2.8526914,-7.289147,-1.4879963
1587369729693,-1.5921441,-7.029376,-0.19632454
1587369729705,-1.5921441,-7.029376,-0.19632454
1587369729715,-1.0462662,-8.801085,-0.82240826
1587369729726,-0.5530606,-12.017695,0.40222588
1587369729739,0.5279215,-14.148535,1.2150574
1587369729748,0.5506664,-10.33098,0.31244332
1587369729761,0.19393034,-10.552444,-0.5758055
1587369729771,0.19393034,-10.552444,-0.5758055
1587369729781,-1.7836803,-9.588778,-1.7106571
1587369729793,-4.378995,-8.414422,-1.7465701
1587369729803,-4.2173862,-8.22528,-1.2569559
1587369729815,-3.132813,-8.133103,-2.0015526
1587369729825,-2.3247697,-9.099164,-1.3156139
1587369729837,-1.6675615,-10.217256,-0.2777274
1587369729847,-1.4736311,-10.708067,0.1436521
1587369729858,-0.9600749,-11.669339,-0.48841715
1587369729871,-1.186327,-12.836513,0.8726865
1587369729881,-1.541866,-9.668983,-0.10654198
1587369729891,-1.8219875,-9.52174,-0.090979666
1587369729903,-1.8219875,-9.52174,-0.090979666
1587369729913,-1.5071499,-9.904813,0.079008654
1587369729925,-1.3503298,-10.607511,-0.18435353
1587369729935,-0.7637503,-11.951855,-0.34117374
1587369729947,-0.37948096,-12.741941,0.19632454
1587369729957,-0.37948096,-12.741941,0.19632454
1587369729969,-0.6691794,-10.741586,0.30406362
1587369729979,-0.6859388,-11.670536,-0.11133038
1587369729991,1.0103531,-11.361684,-0.30166942
1587369730002,1.0103531,-11.361684,-0.30166942
1587369730012,0.82599956,-10.941502,0.2813187
1587369730024,0.82599956,-10.941502,0.2813187
1587369730034,0.02633622,-11.604695,-0.16759412
1587369730046,-0.25139117,-12.424709,-0.33279404
1587369730056,-0.25139117,-12.424709,-0.33279404
1587369730068,-0.36511576,-11.385626,-0.5363012
1587369730078,-0.21428105,-11.224017,-0.34237084
1587369730090,-0.2621651,-10.627861,-0.2669535
1587369730100,-0.23463176,-10.108319,-0.088585466
1587369730113,-0.36272156,-9.564836,0.10055647
1587369730119,-0.36272156,-9.564836,0.10055647
1587369730131,-0.21428105,-8.704121,0.3842694
1587369730144,-0.48362875,-8.59279,0.11492168
1587369730154,-0.48362875,-8.59279,0.11492168
1587369730166,-0.5626374,-9.143456,-0.02873042
1587369730176,-0.545878,-9.5732155,-0.09935937
1587369730188,-0.50517654,-9.921572,-0.11372458
1587369730199,-0.46327803,-10.13705,-0.073023155
1587369730209,-0.39264908,-10.193314,0.009576807
1587369730222,-0.2765303,-10.201694,0.077811554
1587369730228,-0.110133275,-10.187328,0.12689269
1587369730240,0.051475335,-10.171766,0.16400282
1587369730253,0.2633622,-10.146626,0.17717093
1587369730263,0.60812724,-10.000581,0.2741361
1587369730275,0.78290397,-9.903615,0.29568392
1587369730285,0.89064306,-9.842564,0.30645782
1587369730297,0.9720459,-9.818622,0.23223756
1587369730307,0.9744401,-9.809045,0.11971009
1587369730318,0.79367787,-9.871294,-0.022744916
1587369730330,0.6871359,-9.911995,-0.05865794
1587369730337,0.61291564,-9.89763,-0.06703765
1587369730349,0.49200845,-9.8042555,-0.08140286
1587369730361,0.30286652,-9.685743,-0.01316811
1587369730371,0.30286652,-9.685743,-0.01316811
1587369730382,0.12689269,-9.824607,0.11611878
1587369730393,0.020350715,-9.927557,0.1328782
1587369730404,0.020350715,-9.927557,0.1328782
1587369730416,-0.1448492,-10.024523,0.23582886
1587369730429,-0.17118542,-9.967062,0.2765303
1587369730438,-0.1448492,-9.892841,0.29328972
1587369730452,-0.06943185,-9.793482,0.23822308
1587369730462,0.08619126,-9.813833,0.051475335
1587369730472,0.08619126,-9.813833,0.051475335
1587369730484,0.1604115,-9.949105,-0.095768064
1587369730494,0.14724341,-10.029311,-0.17238252
1587369730506,0.053869538,-10.030508,-0.19393034
1587369730516,-0.020350715,-9.967062,-0.19752164
1587369730528,-0.05746084,-9.9550905,-0.21787235
1587369730538,-0.17238252,-9.884461,-0.047884032
1587369730550,-0.19752164,-9.797073,0.073023155
1587369730558,-0.15562311,-9.617508,0.1604115
1587369730571,-0.08619126,-9.437943,0.21068975
1587369730581,-0.045489833,-9.64983,0.30047232
1587369730593,0.050278235,-9.668983,0.31483752
1587369730603,0.050278235,-9.668983,0.31483752
1587369730617,0.19752164,-10.168175,0.06464344
1587369730627,0.23463176,-10.150218,-0.023942016
1587369730636,-0.17597382,-9.950302,-0.038307227
1587369730649,-0.8535329,-9.810242,0.22266077
1587369730659,-0.14844051,-9.446322,0.34715924
1587369730671,0.320823,-9.051279,-0.08140286
1587369730681,1.1875241,-8.917204,0.01436521
1587369730693,1.401805,-9.224859,-0.079008654
1587369730703,1.401805,-9.224859,-0.079008654
1587369730715,0.61650693,-9.452309,-0.29807812
1587369730725,0.4285621,-9.466674,-0.47764325
1587369730738,0.4285621,-9.466674,-0.47764325
1587369730748,0.24899697,-9.221268,-0.47285482
1587369730758,-0.41180268,-10.613496,0.053869538
1587369730770,-0.61530983,-12.236765,-0.016759412
1587369730779,-0.8559271,-12.248735,-0.4441244
1587369730792,-0.5303157,-11.536461,0.06703765
1587369730802,-0.5303157,-11.536461,0.06703765
1587369730812,-0.25019407,-10.964247,-0.051475335
1587369730824,-0.12928689,-10.923545,-0.06344634
1587369730834,-0.12928689,-10.923545,-0.06344634
1587369730846,0.19752164,-9.423578,0.39025488
1587369730856,0.19512744,-8.4108305,1.2294226
1587369730868,0.31244332,-8.297106,0.61650693
1587369730878,0.22625206,-8.635885,0.3890578
1587369730890,0.09935937,-8.993818,0.25857377
1587369730900,-0.009576807,-9.357738,0.28491
1587369730913,-0.17118542,-10.067618,0.21308395
1587369730923,-0.24061728,-10.232818,0.18914193
1587369730933,-0.24061728,-10.232818,0.18914193
1587369730945,-0.25019407,-10.311827,0.075417355
1587369730955,-0.23942018,-10.228029,0.051475335
1587369730966,-0.19512744,-10.080787,0.059855044
1587369730978,-0.1400608,-9.928755,0.09935937
1587369730989,-0.047884032,-9.7563715,0.1436521
1587369730999,0.033518825,-9.757569,0.21906945
1587369731011,0.11492168,-9.7863,0.25258827
1587369731021,0.3196259,-9.862914,0.24181437
1587369731033,0.3196259,-9.862914,0.24181437
1587369731043,0.49799395,-9.91798,0.16519992
1587369731055,0.5758055,-9.896433,0.18555063
1587369731065,0.61530983,-9.816227,0.24779987
1587369731077,0.6404489,-9.664195,0.33159694
1587369731086,0.6404489,-9.664195,0.33159694
1587369731099,0.7398083,-9.392453,0.5315128
1587369731104,0.7589619,-9.31105,0.5662287
1587369731119,0.7757214,-9.240421,0.6332663
1587369731129,0.7613561,-9.233239,0.7182605
1587369731142,0.7290344,-9.313444,0.6895301
1587369731152,0.7290344,-9.313444,0.6895301
1587369731163,0.5626374,-9.483433,0.58298814
1587369731172,0.46327803,-9.582792,0.7026982
1587369731185,0.46327803,-9.582792,0.7026982
1587369731195,0.40222588,-9.730036,0.80205756
1587369731207,0.39025488,-9.730036,0.82480246
1587369731215,0.2873042,-9.610326,0.7170634
1587369731227,0.19033903,-9.570822,0.60214174
1587369731239,0.044292733,-9.534908,0.521936
1587369731249,-0.08738836,-9.518148,0.4141969
1587369731261,-0.2693477,-9.440337,0.17717093
1587369731272,-0.34237084,-9.421184,0.046686932
1587369731282,-0.34237084,-9.421184,0.046686932
1587369731294,-0.20949265,-9.527725,-0.08259996
1587369731305,-0.1400608,-9.703699,-0.10055647
1587369731315,-0.11611878,-9.981427,-0.094570965
1587369731327,-0.18674773,-10.307038,0.017956512
1587369731340,-0.29927522,-10.511743,0.23463176
1587369731350,-0.4429273,-10.564415,0.5530606
1587369731361,-0.61890113,-10.573992,1.1611878
1587369731371,-0.6823475,-10.364499,1.7322049
1587369731381,-0.7673417,-10.149021,2.007538
1587369731392,-0.78170687,-10.086772,2.1511903
1587369731403,-0.7146692,-10.189722,2.243367
1587369731414,-0.59256494,-10.269928,2.3678656
1587369731426,-0.33877954,-10.433931,2.1416135
1587369731435,-0.33877954,-10.433931,2.1416135
1587369731445,0.34117374,-10.494983,1.6484078
1587369731456,0.6835446,-10.389638,1.5095441
1587369731467,0.9672575,-10.21965,1.448492
1587369731478,1.1360487,-10.030508,1.3551182
1587369731489,1.1839328,-9.956287,1.2545617
1587369731500,1.1228806,-9.811439,1.3599066
1587369731511,0.92057055,-9.522937,1.5741876
1587369731522,0.7493851,-9.362526,1.7896658
1587369731533,0.7493851,-9.362526,1.7896658
1587369731542,0.29328972,-9.036914,1.8602947
1587369731553,0.12928689,-9.028535,1.9273324
1587369731564,-0.04070143,-8.998607,1.7908629
1587369731574,-0.142455,-9.060856,1.673547
1587369731585,-0.18315643,-9.147048,1.5239093
1587369731596,-0.18435353,-9.190144,1.3479356
1587369731607,-0.15801731,-9.193734,1.2749124
1587369731617,-0.10055647,-9.210494,1.2246342
1587369731628,-0.08619126,-9.267955,1.1444284
1587369731639,-0.08499416,-9.27394,1.198298
1587369731648,-0.03232172,-9.330204,1.4209588
1587369731659,0.079008654,-9.488221,1.6256629
1587369731669,0.24420857,-9.507375,1.8255788
1587369731680,0.35673606,-9.569624,1.9883845
1587369731691,0.37828386,-9.842564,2.0111294
1587369731702,0.32680854,-9.980229,2.0841527
1587369731713,0.2681506,-9.938332,1.9285295
1587369731723,0.1340753,-9.958682,1.8136078
1587369731734,-0.01316811,-9.941922,1.7788919
1587369731745,-0.2765303,-9.969456,1.7908629
1587369731754,-0.62728083,-10.146626,2.0015526
1587369731765,-1.1324574,-10.232818,2.0446482
1587369731776,-1.0953473,-10.387244,2.3247697
1587369731787,-1.3036429,-10.127473,2.4061728
1587369731797,-1.3922282,-10.111911,2.6252422
1587369731808,-1.3431472,-9.974244,2.6803088
1587369731819,-1.2593501,-9.980229,2.5510218
1587369731831,-1.103727,-10.13705,2.5007436
1587369731843,-0.6584055,-10.866084,2.4492683
1587369731855,-0.48722005,-11.192893,2.5103204
1587369731863,-0.48722005,-11.192893,2.5103204
1587369731875,-0.090979666,-11.328165,2.8048072
1587369731887,0.08499416,-11.070788,3.1651347
1587369731897,0.39624038,-10.742783,3.503914
1587369731909,0.6452374,-10.5919485,3.3411086
1587369731919,0.8475474,-10.607511,2.9963434
1587369731932,0.9756372,-10.551247,2.7329812
1587369731945,1.3814543,-9.478644,2.0087352
1587369731955,1.8291701,-9.033323,1.3084313
1587369731965,1.8291701,-9.033323,1.3084313
1587369731978,2.6120741,-9.255983,-0.10175357
1587369731988,2.9400797,-9.80665,-1.5346833
1587369731998,3.515885,-10.84334,-3.181894
1587369732011,3.357868,-12.62702,-4.0342298
1587369732021,0.521936,-15.915456,-2.2732944
1587369732031,0.521936,-15.915456,-2.2732944
1587369732043,-0.81402856,-14.25388,0.5303157
1587369732054,-1.3611037,-12.404359,1.0366893
1587369732064,-1.3611037,-12.404359,1.0366893
1587369732076,-1.3814543,-9.211691,0.5638345
1587369732084,-0.6356605,-8.531737,-0.31004912
1587369732096,1.0630256,-7.5082164,-0.94211835
1587369732108,1.4053963,-7.651869,-0.8834604
1587369732119,1.127669,-8.37372,-0.6979098
1587369732130,0.7697359,-9.465476,-0.32680854
1587369732141,0.46447513,-11.012131,0.33997664
1587369732151,0.37948096,-12.599486,1.0342951
1587369732163,0.37948096,-12.599486,1.0342951
1587369732173,0.35913026,-11.525687,0.2717419
1587369732185,0.48602295,-10.443508,0.142455
1587369732194,0.40581718,-9.464279,0.1388637
1587369732206,0.7721301,-8.287529,0.272939
1587369732216,0.7721301,-8.287529,0.272939
1587369732228,0.4285621,-7.0964136,0.51954174
1587369732238,-0.03232172,-7.086837,0.7230489
1587369732250,-0.49440265,-7.4950485,0.5650316
1587369732261,-0.9768343,-8.076839,0.39983168
1587369732271,-1.436521,-8.579621,0.30166942
1587369732283,-1.7549498,-8.858546,0.48123455
1587369732294,-1.4640543,-8.763975,0.985214
1587369732303,-0.47285482,-8.243237,1.3239936
1587369732316,-0.47285482,-8.243237,1.3239936
1587369732326,0.46686932,-7.9212165,1.1791444
1587369732338,1.0127473,-8.198944,0.61171854
1587369732348,1.3275849,-8.505402,0.17118542
1587369732360,1.4305356,-8.722076,-0.05865794
1587369732371,1.8136078,-8.718486,-0.10414778
1587369732381,1.8231846,-8.9279785,-0.24660277
1587369732393,1.6448165,-8.692149,0.6428431
1587369732403,1.4568717,-8.342596,1.0127473
1587369732415,1.4568717,-8.342596,1.0127473
1587369732425,1.0869676,-7.7488337,1.4341269
1587369732437,0.91578215,-7.5572977,1.6651673
1587369732447,0.81163436,-7.3633676,1.8854338
1587369732458,0.7386112,-7.2963295,2.2613235
1587369732471,0.91937345,-7.406463,2.6970682
1587369732480,0.91937345,-7.406463,2.6970682
1587369732491,1.2330139,-7.4591355,2.791639
1587369732502,1.5370775,-7.3525934,2.8275523
1587369732513,1.5370775,-7.3525934,2.8275523
1587369732522,2.3403323,-7.429208,2.5462334
1587369732533,3.0969,-8.453926,3.1711202
1587369732545,3.6523547,-9.279925,3.8510735
1587369732557,4.238934,-10.360908,3.8965633
1587369732567,4.2940006,-11.8094,3.2225955
1587369732579,4.1395745,-13.057976,2.4169466
1587369732588,3.8977604,-13.977349,1.8459295
1587369732599,3.763685,-14.104242,1.8303672
1587369732611,3.763685,-13.735536,2.349909
1587369732623,5.521029,-11.414356,4.1096473
1587369732632,5.521029,-11.414356,4.1096473
1587369732644,4.7381253,-9.932345,3.3650506
1587369732654,1.7166426,-11.44189,1.6436194
1587369732665,-0.7146692,-13.085509,0.8415619
1587369732676,-2.3104045,-15.1062155,1.7381904
1587369732687,-5.0362034,-18.010382,1.316811
1587369732698,-6.9767036,-19.569008,2.15957
1587369732710,-6.0285997,-18.312052,3.9468415
1587369732719,-2.7832594,-14.308947,4.429273
1587369732730,-0.6332663,-10.607511,3.570952
1587369732740,0.17597382,-8.265982,2.2972364
1587369732752,-1.5071499,-7.217321,-0.0011971008
1587369732762,-1.5071499,-7.217321,-0.0011971008
1587369732775,-1.067814,-8.983045,0.6703765
1587369732785,-1.0905589,-12.127829,-0.23822308
1587369732795,-1.0115502,-15.19959,0.32321724
1587369732807,-0.6679823,-16.488867,1.0019734
1587369732817,-0.21906945,-16.023195,1.1623849
1587369732831,1.1994951,-13.396755,1.4425066
1587369732842,1.4317327,-8.91481,2.397793
1587369732852,1.508347,-7.2544312,1.70946
1587369732864,1.508347,-7.2544312,1.70946
1587369732874,0.7625532,-5.366603,1.8207904
1587369732886,0.46327803,-5.020641,1.6172832
1587369732896,0.46327803,-5.020641,1.6172832
1587369732908,0.4297592,-5.2061915,1.5849615
1587369732918,0.59136784,-5.592855,1.3838485
1587369732930,0.47764325,-6.307524,0.4429273
1587369732941,0.15322891,-6.8569937,0.6955156
1587369732951,-0.25019407,-7.302315,1.234211
1587369732963,-0.25019407,-7.302315,1.234211
1587369732973,0.272939,-8.23366,1.0366893
1587369732986,0.7589619,-9.024943,1.0522517
1587369732996,0.7589619,-9.024943,1.0522517
1587369733006,1.5167267,-9.285912,0.78410107
1587369733018,1.6244658,-9.252393,0.37588966
1587369733028,1.5406688,-9.31943,0.30526072
1587369733040,1.401805,-9.472659,0.2717419
1587369733051,1.2856863,-9.5971575,0.48362875
1587369733061,1.2186487,-9.555259,0.62129533
1587369733073,1.2114661,-9.472659,0.7302315
1587369733084,1.2006922,-9.391256,0.7793127
1587369733094,1.2006922,-9.391256,0.7793127
1587369733105,1.0414777,-9.579201,1.2401965
1587369733118,0.8678981,-9.703699,1.5071499
1587369733128,0.7649474,-9.952697,1.7226281
1587369733139,0.7445967,-10.195708,2.0242975
1587369733149,0.48482585,-10.007763,2.0171149
1587369733161,0.59974754,-10.09994,2.0685902
1587369733171,0.89543146,-9.657013,2.1152773
1587369733183,0.60932434,-9.403227,2.1392193
1587369733194,0.60932434,-9.403227,2.1392193
1587369733204,-0.16998832,-11.016919,2.3989902
1587369733216,-0.18555063,-11.523293,2.9352913
1587369733226,-0.5746084,-11.834539,2.790442
1587369733238,-0.34237084,-11.648989,3.1280246
1587369733248,-0.22744916,-11.352107,3.572149
1587369733260,-0.36750996,-11.116279,3.477578
1587369733271,-0.10295067,-10.970232,3.454833
1587369733282,1.1755531,-9.561244,2.8766334
1587369733292,1.1755531,-9.561244,2.8766334
1587369733304,2.1152773,-7.267599,1.6496049
1587369733315,2.6982653,-6.8246717,0.9672575
1587369733325,3.107674,-7.007828,-0.38307226
1587369733337,4.1623197,-7.902063,-2.918532
1587369733347,5.1726727,-8.889671,-5.023035
1587369733359,4.5777135,-9.497798,-5.067328
1587369733369,2.7868507,-10.042479,-4.2281604
1587369733383,-0.45729253,-12.689269,-2.1260512
1587369733393,-0.45729253,-12.689269,-2.1260512
1587369733405,-0.7577648,-13.733141,-0.6751649
1587369733416,-0.1436521,-14.523228,0.62249243
1587369733426,1.6172832,-15.695189,0.30047232
1587369733438,1.5023615,-15.71554,0.36750996
1587369733448,1.0618285,-14.998477,0.079008654
1587369733461,0.59256494,-13.87799,-0.14963761
1587369733471,0.18794483,-13.283031,-0.20709845
1587369733481,0.21428105,-12.40795,-0.8331822
1587369733494,0.21428105,-12.40795,-0.8331822
1587369733504,1.1911154,-10.9187565,-0.8391677
1587369733516,1.6795325,-9.762358,-0.06344634
1587369733525,1.9321208,-8.550891,0.5686229
1587369733536,2.055422,-7.4986396,0.6703765
1587369733548,1.661576,-6.9719152,0.82599956
1587369733559,0.8858546,-6.2045736,1.1372458
1587369733570,-0.19033903,-5.8693852,2.067393
1587369733581,-1.697489,-5.765238,1.2617443
1587369733592,-1.697489,-5.765238,1.2617443
1587369733603,-1.3215994,-5.7125654,0.45489833
1587369733614,-1.1947067,-6.005855,0.63206923
1587369733623,-0.9660604,-6.326678,0.60932434
1587369733634,-0.49679685,-6.6367273,0.52073884
1587369733646,0.01316811,-7.3430166,-0.022744916
1587369733658,0.33997664,-7.5908165,-0.23223756
1587369733668,0.46088383,-7.9331875,0.11372458
1587369733681,0.5674258,-8.147469,0.60932434
1587369733691,0.60333884,-8.337808,1.3455414
1587369733701,0.81283146,-8.591593,2.505532
1587369733713,0.9947908,-8.628703,2.8119898
1587369733723,1.2653356,-8.644265,3.0573955
1587369733735,1.543063,-8.5473,3.2920272
1587369733744,1.543063,-8.5473,3.2920272
1587369733757,2.079364,-8.273164,3.6631286
1587369733767,2.348712,-8.119935,3.4500446
1587369733779,2.718616,-8.121132,2.8299465
1587369733789,3.108871,-8.189367,2.1212628
1587369733801,3.3411086,-8.198944,2.303222
1587369733811,3.490746,-8.372523,3.7960067
1587369733823,3.775656,-9.062054,4.6818614
1587369733833,3.6595373,-11.420342,3.9683893
1587369733845,3.6595373,-11.420342,3.9683893
1587369733855,3.927688,-12.4785795,2.918532
1587369733867,5.1080294,-11.555614,2.8682537
1587369733877,5.1080294,-11.555614,2.8682537
1587369733889,7.089231,-8.500613,4.8961425
1587369733899,6.671443,-7.0545154,5.139154
1587369733911,4.547786,-7.489063,3.3722332
1587369733921,0.7685388,-10.031705,0.11731588
1587369733933,-4.892551,-16.014814,-0.4405331
1587369733943,-4.892551,-16.014814,-0.4405331
1587369733955,-12.659342,-27.32263,-1.1348516
1587369733965,-9.149442,-25.61676,4.39336
1587369733977,-9.149442,-25.61676,4.39336
1587369733987,-0.545878,-7.789535,5.2241483
1587369733999,0.7134721,-6.0800753,3.846285
1587369734010,0.7625532,-6.7025676,0.6811504
1587369734020,0.7086837,-6.8282633,-0.6991069
1587369734033,0.62967503,-8.198944,0.81283146
1587369734043,0.62967503,-8.198944,0.81283146
1587369734053,1.1719618,-12.998121,0.8774749
1587369734065,0.36990416,-15.35641,1.3239936
1587369734075,0.36990416,-15.35641,1.3239936
1587369734088,0.4213795,-13.633781,1.6005238
1587369734098,0.088585466,-10.172963,1.8195933
1587369734107,-0.32321724,-7.7919292,1.9728222
1587369734119,-0.61171854,-5.99149,2.1440077
1587369734132,-0.79248077,-4.095282,2.2505496
1587369734142,-0.79248077,-4.095282,2.2505496
1587369734152,-0.9600749,-3.809175,2.3906105
1587369734164,-1.1001357,-4.4484267,1.8088194
1587369734172,-1.1001357,-4.4484267,1.8088194
1587369734184,-1.0510546,-5.720945,1.4796166
1587369734197,-0.91937345,-6.6295447,1.6184803
1587369734207,-0.6596026,-7.5213847,1.4891934
1587369734217,-0.16519992,-8.228871,1.2306197
1587369734230,0.4249708,-8.881291,1.043872
1587369734241,0.8762778,-9.588778,0.7745243
1587369734250,1.2569559,-10.075998,0.6368576
1587369734263,2.0458453,-10.353725,0.05626374
1587369734273,2.0458453,-10.353725,0.05626374
1587369734284,2.1272483,-10.18254,0.074220255
1587369734296,2.1272483,-9.900024,0.2789245
1587369734306,1.5610195,-9.600749,0.49320555
1587369734318,1.3263878,-9.375694,0.6619968
1587369734329,1.2054806,-9.205706,0.93852705
1587369734341,1.0474633,-9.19972,1.283292
1587369734351,0.8355764,-9.325416,1.8447324
1587369734361,0.8655039,-9.147048,2.0207062
1587369734373,0.8655039,-9.147048,2.0207062
1587369734383,0.8858546,-9.003395,2.694674
1587369734395,0.92176765,-8.762778,2.9712043
1587369734405,0.7793127,-8.305486,3.108871
1587369734417,0.34237084,-8.007407,2.930503
1587369734427,0.0047884034,-8.269572,2.7150247
1587369734438,-0.12808979,-8.895657,2.4947581
1587369734450,-0.10055647,-9.7803135,2.420538
1587369734461,0.009576807,-11.203667,2.2098482
1587369734471,0.009576807,-11.203667,2.2098482
1587369734484,1.1360487,-10.903194,2.420538
1587369734494,1.7022774,-10.224439,2.6479871
1587369734506,2.0805612,-9.107543,2.280477
1587369734516,3.0382419,-8.040926,2.0338743
1587369734529,4.256891,-6.6989765,1.9261353
1587369734539,5.6060233,-7.5584946,0.11731588
1587369734549,6.9132576,-8.948329,-2.1033063
1587369734561,3.0202854,-10.15381,-2.3020248
1587369734572,3.0202854,-10.15381,-2.3020248
1587369734581,-0.6979098,-12.9167185,-2.634819
1587369734593,-1.6328455,-13.451822,-1.7836803
1587369734604,-1.8363527,-14.245501,-0.91937345
1587369734613,-1.2198458,-15.5120325,-0.9935937
1587369734625,-1.2198458,-15.5120325,-0.9935937
1587369734636,1.9488802,-18.34198,-0.23822308
1587369734647,2.789245,-18.358738,0.37948096
1587369734658,2.6611552,-17.306486,0.08140286
1587369734669,2.146402,-16.399084,-0.4297592
1587369734680,1.9656396,-15.334862,-0.17118542
1587369734693,1.5179238,-13.044808,-0.062249243
1587369734703,0.81283146,-12.25951,-0.24420857
1587369734713,0.22146365,-11.2132435,-0.34835634
1587369734725,0.22146365,-11.2132435,-0.34835634
1587369734735,-0.46447513,-9.847352,0.7577648
1587369734747,-0.30166942,-8.50181,0.49320555
1587369734757,0.30526072,-7.5584946,1.4999673
1587369734769,0.62009823,-6.9132576,2.5725696
1587369734779,0.5506664,-6.9024835,1.2964603
1587369734791,0.51475334,-6.979098,0.7170634
1587369734802,1.091756,-6.8222775,0.2801216
1587369734812,1.352724,-6.575675,0.18315643
1587369734824,1.352724,-6.575675,0.18315643
1587369734832,1.4784195,-6.4763155,-0.59136784
1587369734844,1.1468226,-6.271611,-0.2753332
1587369734856,1.0043676,-5.9519854,0.2908955
1587369734867,1.1228806,-5.768829,0.9576807
1587369734877,1.0941502,-5.5617304,1.3359646
1587369734889,0.90261406,-5.471948,1.448492
1587369734899,0.79846627,-5.5485625,1.5358804
1587369734914,1.0618285,-5.828684,1.9393034
1587369734923,1.0618285,-5.828684,1.9393034
1587369734933,1.401805,-6.2261214,2.6659436
1587369734946,1.5035586,-6.659472,3.1543608
1587369734956,1.5035586,-6.659472,3.1543608
1587369734966,1.3814543,-7.1167645,2.232593
1587369734978,1.401805,-7.321469,2.4145525
1587369734987,1.7932571,-7.541735,3.7062242
1587369734999,2.5318682,-8.264784,4.6722846
1587369735011,3.430891,-10.484209,3.300407
1587369735021,3.430891,-10.484209,3.300407
1587369735033,2.9532478,-13.046005,0.7194576
1587369735043,3.0011318,-13.341689,0.961272
1587369735055,3.0011318,-13.341689,0.961272
1587369735065,6.2500634,-11.124659,4.699818
1587369735077,8.36175,-9.004593,6.8486137
1587369735088,7.5046253,-8.723274,4.9679685
1587369735097,3.405752,-11.609484,0.33638534
1587369735110,-1.2138603,-15.588647,-2.9831753
1587369735121,-5.279215,-20.634428,-2.8311436
1587369735131,-9.927557,-24.323893,5.6658783
1587369735155,-5.3462524,-16.389507,5.7664347
1587369735163,0.89902276,-6.009446,3.1890767
1587369735178,1.389834,-6.3949127,3.6367924
1587369735188,0.7637503,-6.849811,1.578976
1587369735197,0.79128367,-7.5405383,0.34237084
1587369735208,0.9672575,-9.241618,-0.039504327
1587369735220,0.9564836,-11.7064495,1.0714053
1587369735232,0.12330139,-16.765398,1.7405846
1587369735242,0.30885202,-17.323246,1.2677298
1587369735253,0.30885202,-17.323246,1.2677298
1587369735264,1.2282255,-15.349227,1.5837644
1587369735275,1.3634979,-11.722012,2.1188686
1587369735284,1.0199299,-8.911219,2.1655555
1587369735295,0.59615624,-7.41604,1.6663644
1587369735306,0.130484,-6.4140663,1.5179238
1587369735317,-0.35075054,-5.7149596,1.8483237
1587369735327,-0.7338228,-5.4982843,2.421735
1587369735338,-1.2162545,-5.4791307,2.3451207
1587369735350,-1.3802572,-5.5940523,2.0913353
1587369735361,-1.3072342,-6.731298,1.7357962
1587369735373,-1.3072342,-6.731298,1.7357962
1587369735385,-1.1623849,-7.4986396,1.6543933
1587369735393,-1.1899183,-7.9906483,1.5765818
1587369735405,-1.1899183,-7.9906483,1.5765818
1587369735417,-0.05626374,-8.571242,1.1540052
1587369735428,0.25139117,-8.731653,0.94092125
1587369735438,0.62967503,-8.738836,0.62368953
1587369735450,1.0163386,-8.661025,0.22984336
1587369735460,1.2964603,-8.760384,0.16280572
1587369735472,1.5646108,-8.880095,0.08738836
1587369735482,1.8974048,-9.263166,0.47046062
1587369735494,2.1068976,-9.36492,0.7206547
1587369735502,2.1068976,-9.36492,0.7206547
1587369735514,2.3810337,-9.611523,1.2401965
1587369735527,2.3894134,-9.816227,1.6771383
1587369735537,2.4277205,-9.904813,1.910573
1587369735547,2.4588451,-10.081984,2.268506
1587369735559,2.2876596,-10.084377,2.5079262
1587369735570,2.4169466,-10.125079,2.4121583
1587369735580,2.5474305,-9.674969,2.8514943
1587369735593,2.397793,-8.306683,3.0214825
1587369735603,2.397793,-8.306683,3.0214825
1587369735614,1.1994951,-7.765593,3.0442274
1587369735626,0.61890113,-8.376115,3.3542767
1587369735637,-0.21787235,-9.175778,3.9312792
1587369735647,-0.6631939,-9.890448,3.632004
1587369735660,-0.94930094,-10.109517,3.4751837
1587369735671,-0.78649527,-10.022128,2.5270798
1587369735682,2.7389667,-9.900024,0.090979666
1587369735692,4.3418846,-9.601946,-0.60214174
1587369735701,4.3418846,-9.601946,-0.60214174
1587369735713,7.0449386,-9.223662,-2.457648
1587369735720,7.0449386,-9.223662,-2.457648
1587369735732,4.8039656,-9.495404,-2.3546975
1587369735743,1.5442601,-10.779893,-1.0271125
1587369735753,1.5442601,-10.779893,-1.0271125
1587369735765,-2.098518,-13.816938,0.089782566
1587369735776,-1.7010803,-13.900735,0.25378537
1587369735787,-0.21308395,-14.241909,-0.60812724
1587369735797,1.2306197,-15.709555,-1.1384429
1587369735808,1.7597382,-17.221493,-0.80086046
1587369735819,1.6639702,-17.480066,-0.8738836
1587369735829,1.1420342,-17.442957,-0.79966336
1587369735842,0.7721301,-17.244238,-0.36032736
1587369735853,0.7721301,-17.244238,-0.36032736
1587369735863,1.934515,-11.312603,-1.22224
1587369735873,2.2517467,-9.9550905,-0.6584055
1587369735885,2.2517467,-9.9550905,-0.6584055
1587369735895,2.134431,-7.431602,0.79128367
1587369735908,2.0925324,-6.619968,1.2761095
1587369735919,1.5646108,-6.3901243,0.90141696
1587369735929,0.81642276,-6.373365,0.80445176
1587369735944,-0.33638534,-5.2421045,0.2873042
1587369735952,-0.33638534,-5.2421045,0.2873042
1587369735962,-0.62728083,-5.1642933,0.81761986
1587369735974,-0.8283938,-5.121197,0.7493851
1587369735985,-0.8283938,-5.121197,0.7493851
1587369735994,0.91937345,-4.8255134,0.521936
1587369736007,0.90740246,-5.457583,0.48841715
1587369736017,0.8295909,-6.0381765,0.2801216
1587369736029,0.81522566,-6.3865333,0.29688102
1587369736040,0.8415619,-6.70975,0.61890113
1587369736050,0.6991069,-7.1670427,0.9888053
1587369736062,0.1364695,-8.183381,1.8962077
1587369736073,-0.025139118,-9.149442,2.2337902
1587369736083,-0.025139118,-9.149442,2.2337902
1587369736095,0.17118542,-9.216479,2.822764
1587369736105,0.6464345,-8.91481,3.1352072
1587369736117,1.3359646,-8.483853,3.3614593
1587369736127,2.2996306,-8.033744,3.502717
1587369736139,3.3554738,-7.5968018,3.3327289
1587369736150,4.2664676,-7.3202715,2.7569232
1587369736161,4.844667,-7.337031,2.5881321
1587369736171,4.9883194,-7.603985,4.796783
1587369736183,4.9883194,-7.603985,4.796783
1587369736193,5.058948,-10.636241,4.3035774
1587369736205,4.8961425,-12.372037,3.642778
1587369736215,4.709395,-13.025655,3.265691
1587369736227,4.6818614,-12.4869585,3.5458126
1587369736238,5.521029,-11.201273,4.220978
1587369736247,6.9240313,-10.169372,5.297171
1587369736259,7.716512,-10.445902,5.6766524
1587369736268,5.967548,-12.28824,3.2549171
1587369736279,3.0621839,-15.103822,-0.33518824
1587369736292,-7.4351935,-23.789986,1.7741034
1587369736302,-7.4351935,-23.789986,1.7741034
1587369736312,-4.465186,-8.161834,4.656722
1587369736325,0.18195933,-3.345897,4.96318
1587369736335,0.18195933,-3.345897,4.96318
1587369736345,1.3060371,-4.5238442,2.4839842
1587369736357,0.23104046,-5.1571107,0.50637364
1587369736367,0.29448682,-5.819107,0.51714754
1587369736379,0.45848963,-7.7931266,1.1659763
1587369736389,0.25857377,-10.5919485,1.0390835
1587369736402,0.8331822,-14.116213,0.70509243
1587369736412,1.541866,-19.6133,1.7776948
1587369736422,1.4808137,-19.158401,1.0055647
1587369736434,1.4808137,-19.158401,1.0055647
1587369736444,1.7633295,-11.180922,2.5031378
1587369736456,1.8124107,-8.293514,2.3822308
1587369736466,1.5119383,-6.731298,1.6077064
1587369736478,1.2952632,-5.861006,0.79726917
1587369736487,0.7170634,-5.2026005,2.5019407
1587369736499,0.33159694,-5.449203,2.64679
1587369736509,-0.3196259,-5.828684,2.0111294
1587369736523,-0.6727707,-7.72968,1.3096284
1587369736533,-0.6727707,-7.72968,1.3096284
1587369736543,-0.5770026,-8.447941,1.3599066
1587369736553,-0.4441244,-8.520964,1.4341269
1587369736565,-0.22266077,-8.408437,1.2677298
1587369736575,0.1364695,-8.352173,1.2725182
1587369736587,0.37469256,-8.213309,1.0881647
1587369736595,0.5470751,-7.9846625,0.8355764
1587369736607,0.8499416,-8.038532,0.4417302
1587369736619,0.9828198,-8.039729,0.48003745
1587369736630,1.270124,-8.121132,0.5374983
1587369736641,1.5406688,-8.297106,0.5410896
1587369736651,1.6795325,-8.6334915,0.5793968
1587369736663,2.2050598,-9.297882,0.59615624
1587369736673,2.2146366,-9.537302,0.92655605
1587369736685,2.2146366,-9.537302,0.92655605
1587369736695,1.9177556,-9.757569,1.6962919
1587369736707,1.697489,-9.566033,2.0111294
1587369736717,1.4927847,-9.303867,2.15957
1587369736730,1.6424223,-8.9363575,2.420538
1587369736740,0.52073884,-8.261193,3.454833
1587369736750,0.52073884,-8.261193,3.454833
1587369736761,-0.29688102,-10.229227,3.6092591
1587369736773,-0.70509243,-10.912771,3.7660792
1587369736782,-0.70509243,-10.912771,3.7660792
1587369736793,-0.91219085,-11.675324,3.3674448
1587369736804,-0.6548142,-11.522096,3.193865
1587369736813,-0.34955344,-10.800244,2.942474
1587369736824,0.38067806,-9.999383,1.7106571
1587369736835,1.99437,-9.417592,0.073023155
1587369736847,3.7313633,-8.584411,-0.61770403
1587369736859,4.8602295,-7.606379,-0.89303726
1587369736870,6.0357823,-7.193379,-1.7226281
1587369736880,7.5094137,-7.7703815,-2.4636335
1587369736892,6.5864487,-9.004593,-1.6460136
1587369736903,3.7241807,-9.662998,-0.7457938
1587369736913,3.7241807,-9.662998,-0.7457938
1587369736926,-0.092176765,-13.722367,-0.23582886
1587369736936,-1.0666169,-13.844471,-0.4201824
1587369736946,-1.1935096,-13.760674,-0.6979098
1587369736958,1.0881647,-14.765042,-1.436521
1587369736968,2.2385786,-15.7586355,-1.13964
1587369736980,2.4157495,-16.559496,-1.0546459
1587369736990,2.0470424,-16.913837,-1.2892777
1587369737002,2.0602105,-16.821661,-0.088585466
1587369737012,2.0602105,-16.821661,-0.088585466
1587369737024,2.7006595,-13.119028,-0.36631286
1587369737032,2.7006595,-13.119028,-0.36631286
1587369737044,2.4468741,-10.471041,-1.1121067
1587369737056,2.4169466,-9.197326,-0.094570965
1587369737066,2.4169466,-9.197326,-0.094570965
1587369737078,1.780089,-7.825448,1.3838485
1587369737088,1.0307038,-7.750031,1.5119383
1587369737100,0.82719666,-7.1993647,0.8331822
1587369737111,0.5291186,-6.585252,1.423353
1587369737121,-0.015562311,-6.894104,1.3910311
1587369737134,-0.842759,-7.177817,1.1827357
1587369737140,-0.94092125,-7.1023993,1.1360487
1587369737152,-0.37588966,-6.7253127,0.39983168
1587369737164,-0.37588966,-6.7253127,0.39983168
1587369737176,1.6400281,-6.3901243,-0.19273324
1587369737186,1.4808137,-6.8342485,-0.16879122
1587369737198,1.1372458,-7.2149267,-0.17238252
1587369737208,1.0869676,-7.2592196,-0.051475335
1587369737221,1.0378864,-7.0904284,0.3842694
1587369737233,0.8535329,-6.8210807,0.8295909
1587369737243,0.90261406,-6.6044054,1.79206
1587369737255,1.1336545,-6.775591,2.1380222
1587369737265,1.1336545,-6.775591,2.1380222
1587369737277,1.9177556,-7.5106106,2.5198972
1587369737287,2.1883004,-7.6889787,2.6396074
1587369737299,2.3702598,-7.753622,2.822764
1587369737310,2.528277,-7.680599,3.1854854
1587369737320,2.9053638,-7.529764,3.4356794
1587369737333,3.1364043,-7.620744,3.120842
1587369737343,3.490746,-7.4387846,2.8874073
1587369737352,4.156334,-7.502231,3.2728736
1587369737367,4.156334,-7.502231,3.2728736
1587369737375,5.5581393,-8.639477,3.3901896
1587369737387,5.8334723,-9.635465,2.707842
1587369737397,6.0369797,-11.422736,1.4089876
1587369737409,5.8909335,-11.793838,2.2589293
1587369737420,6.0465565,-11.347319,3.2620997
1587369737430,6.364985,-10.290278,4.1000705
1587369737442,6.779182,-7.8493905,3.8414967
1587369737452,5.12838,-9.470264,2.4648306
1587369737465,5.12838,-9.470264,2.4648306
1587369737471,1.6915035,-12.8053875,-0.33279404
1587369737483,-0.33758244,-15.808914,-0.08379706
1587369737495,-6.31351,-25.665842,1.6124948
1587369737507,-7.16824,-24.733301,3.9217024
1587369737517,-3.4524388,-16.370354,6.3542113
1587369737529,0.8523358,-8.48984,4.7548847
1587369737539,2.3535004,-5.840655,2.9269116
1587369737553,-0.1328782,-7.6375036,0.49799395
1587369737563,-0.1328782,-7.6375036,0.49799395
1587369737573,0.90500826,-6.9144545,0.32800564
1587369737585,1.0845734,-8.9602995,1.0199299
1587369737595,1.0259154,-11.018116,0.4177882
1587369737607,1.7046716,-13.65533,0.6655881
1587369737618,1.1432313,-16.927006,1.4209588
1587369737628,0.93732995,-15.532384,1.6819267
1587369737639,0.7733272,-12.575544,2.1392193
1587369737653,0.78410107,-7.553706,2.4313118
1587369737663,0.78410107,-7.553706,2.4313118
1587369737673,-0.2789245,-5.7640405,1.5191209
1587369737683,-0.28491,-5.8801594,1.5227122
1587369737695,-0.09816227,-6.033388,1.9428947
1587369737705,0.04309563,-6.220136,2.0374656
1587369737717,0.23104046,-6.564901,1.9692309
1587369737727,0.51355624,-6.851008,1.7585411
1587369737739,0.60333884,-7.2149267,1.8483237
1587369737750,0.5805939,-7.1526775,1.7130513
1587369737760,0.5793968,-7.2029557,1.1180922
1587369737772,0.47884035,-8.470686,1.3742718
1587369737783,0.36511576,-8.819042,0.9672575
1587369737794,0.8439561,-8.884883,0.80086046
1587369737804,1.3204023,-8.740033,0.7230489
1587369737815,1.7764976,-8.7532015,0.5566519
1587369737826,2.086547,-8.883685,0.21667525
1587369737837,2.2098482,-9.173384,-0.015562311
1587369737849,2.2122424,-9.331401,0.2873042
1587369737858,2.0745757,-9.498995,0.5602432
1587369737869,1.9800048,-9.68694,0.6943185
1587369737880,1.8483237,-9.728839,1.0773908
1587369737891,1.8112136,-9.419987,1.270124
1587369737902,1.9452889,-9.300277,1.4197617
1587369737910,1.9452889,-9.300277,1.4197617
1587369737921,2.4277205,-9.357738,2.3008277
1587369737935,2.6898856,-9.281123,2.5091233
1587369737945,2.6898856,-9.281123,2.5091233
1587369737957,3.3626564,-8.850166,3.0310593
1587369737967,3.3303347,-8.282741,3.1747115
1587369737979,3.7074213,-7.4387846,2.5318682
1587369737990,3.8414967,-6.6726403,2.0853498
1587369738001,3.8067808,-7.183802,1.6041151
1587369738011,3.8067808,-7.183802,1.6041151
1587369738024,1.9333179,-10.33098,2.8562827
1587369738034,-0.15801731,-11.196485,3.8893807
1587369738044,-0.15801731,-11.196485,3.8893807
1587369738056,-4.5633483,-11.027693,4.009091
1587369738066,-1.3910311,-9.6845455,1.5622166
1587369738078,-0.15083471,-8.901642,0.93613285
1587369738088,2.2002714,-8.76996,-0.80924016
1587369738100,4.5920787,-8.995016,-2.8215668
1587369738110,5.6790466,-9.414001,-4.1946416
1587369738123,2.9963434,-10.445902,-3.015497
1587369738129,2.9963434,-10.445902,-3.015497
1587369738142,1.6484078,-12.016499,-1.6675615
1587369738154,0.077811554,-14.425065,0.8595184
1587369738164,0.077811554,-14.425065,0.8595184
1587369738176,2.645593,-16.563087,-0.36631286
1587369738186,4.226963,-18.042704,-0.037110128
1587369738198,4.5896845,-18.43655,-0.16639702
1587369738208,3.8786068,-18.019958,-1.0378864
1587369738219,3.1148565,-16.876728,-1.3024458
1587369738232,2.480393,-14.743494,-0.5374983
1587369738238,2.480393,-14.743494,-0.5374983
1587369738250,2.0470424,-13.26268,-0.5602432
1587369738262,1.650802,-12.272678,-0.18076223
1587369738274,1.2485762,-9.363723,1.0354922
1587369738285,0.82719666,-7.479486,1.2174516
1587369738295,0.82719666,-7.479486,1.2174516
1587369738307,0.36990416,-6.7468605,0.7589619
1587369738317,0.25857377,-6.615179,0.93732995
1587369738329,0.23942018,-6.3326635,0.7062895
1587369738340,0.21787235,-6.05733,0.5530606
1587369738351,0.49440265,-5.6646814,0.94810385
1587369738361,0.94331545,-5.279215,1.0067618
1587369738374,1.8375498,-5.1463366,0.17717093
1587369738384,1.436521,-5.686229,0.16639702
1587369738394,1.436521,-5.686229,0.16639702
1587369738406,1.0989386,-6.1770406,-0.21068975
1587369738416,0.8355764,-6.2943563,0.09935937
1587369738428,0.6823475,-6.3805475,0.81163436
1587369738438,0.51714754,-6.5265937,1.376666
1587369738451,0.59376204,-7.1993647,1.9021933
1587369738457,0.59376204,-7.1993647,1.9021933
1587369738469,0.7541735,-7.6027875,2.1511903
1587369738481,0.8882488,-8.215703,2.4768016
1587369738493,0.8882488,-8.215703,2.4768016
1587369738503,1.5095441,-8.476671,2.846706
1587369738516,2.0171149,-8.231265,2.717419
1587369738526,2.7042508,-7.843405,2.4277205
1587369738536,3.5170822,-7.645883,2.6036944
1587369738547,4.2916064,-7.6410947,3.620033
1587369738559,4.9583917,-8.172607,4.583699
1587369738567,5.5150437,-9.178172,4.7979803
1587369738579,6.0106435,-10.324995,4.5513773
1587369738592,6.645107,-11.604695,3.690662
1587369738602,7.439982,-13.170504,2.4612393
1587369738612,7.439982,-13.170504,2.4612393
1587369738624,7.7823524,-10.759542,3.1399956
1587369738634,8.157045,-8.722076,3.9205053
1587369738646,7.5788455,-7.892486,3.6607344
1587369738656,5.269638,-9.765948,1.520318
1587369738668,2.2254105,-12.225991,-0.110133275
1587369738676,0.20470424,-13.743915,0.89303726
1587369738688,-2.1188686,-16.92102,1.4508862
1587369738700,-5.1762643,-20.28248,0.78410107
1587369738710,-6.325481,-20.882227,3.0992942
1587369738723,1.2988545,-6.9048777,1.4856021
1587369738733,1.2366052,-7.419631,0.8619126
1587369738743,1.2366052,-7.419631,0.8619126
1587369738755,2.1140802,-7.189788,0.92176765
1587369738765,2.6671407,-7.8876977,0.60453594
1587369738777,2.7820623,-9.210494,-0.4405331
1587369738785,3.0909145,-11.356895,-1.2940661
1587369738796,2.2852654,-13.863625,2.0242975
1587369738808,1.9488802,-15.73589,1.2976574
1587369738820,2.0171149,-16.078262,1.5358804
1587369738831,1.4808137,-15.188815,1.4401124
1587369738841,0.9888053,-13.230358,1.7010803
1587369738853,0.5602432,-9.17099,1.6579847
1587369738863,0.23223756,-7.8386164,1.6424223
1587369738875,0.046686932,-7.2843585,1.614889
1587369738885,-0.1592144,-7.038953,2.0374656
1587369738896,-0.24660277,-7.240066,1.9285295
1587369738908,-0.14724341,-7.5046253,1.4628572
1587369738917,0.088585466,-7.763199,1.5993267
1587369738928,0.22864626,-7.827842,1.448492
1587369738939,0.15562311,-7.8386164,1.3108255
1587369738950,-0.16759412,-7.8757267,1.4341269
1587369738961,0.08140286,-7.619547,1.6699557
1587369738972,0.46567222,-7.575254,1.5693992
1587369738984,0.842759,-7.7811556,1.5107412
1587369738996,1.1408371,-8.196549,1.0965444
1587369739004,1.2737153,-8.426393,0.9911995
1587369739016,1.5849615,-8.392874,0.7015011
1587369739028,1.8303672,-8.380903,0.62488663
1587369739038,2.1057005,-8.372523,0.5650316
1587369739050,2.4037786,-8.429984,0.41180268
1587369739060,2.7162218,-8.480263,0.44651863
1587369739072,2.9376855,-8.562862,0.6943185
1587369739082,3.1830912,-8.726865,1.0187328
1587369739094,3.0250738,-8.865729,1.5777789
1587369739104,2.8419175,-9.087193,1.9728222
1587369739116,2.4540567,-9.516952,2.0769699
1587369739126,2.4540567,-9.516952,2.0769699
1587369739138,2.36188,-9.654618,2.8502972
1587369739149,2.5306711,-8.561666,3.064578
1587369739159,2.6431987,-7.406463,3.4572272
1587369739172,2.7449522,-6.3218894,2.658761
1587369739182,2.2768857,-8.279149,3.3650506
1587369739192,2.2768857,-8.279149,3.3650506
1587369739204,-0.10055647,-11.395203,4.083311
1587369739214,-1.4089876,-12.185289,4.27365
1587369739226,-1.4089876,-12.185289,4.27365
1587369739236,-1.7645266,-11.392809,3.3446999
1587369739248,-0.34596214,-10.329783,2.134431
1587369739259,1.6184803,-8.724471,1.8387469
1587369739269,2.5151088,-7.1083846,2.2900538
1587369739281,6.471527,-7.4495587,-1.7824832
1587369739291,6.471527,-7.4495587,-1.7824832
1587369739304,8.073248,-8.327033,-5.163096
1587369739314,4.76087,-8.887277,-2.681506
1587369739324,4.76087,-8.887277,-2.681506
1587369739336,-0.047884032,-12.5025215,-2.0278888
1587369739346,-1.1695676,-14.620193,-1.6316484
1587369739358,-0.91697925,-16.777369,-1.2904748
1587369739368,0.30765492,-19.20509,-1.0977415
1587369739380,1.8483237,-21.53704,-0.8643068
1587369739391,2.9364884,-22.151154,-0.9672575
1587369739401,3.289633,-15.234305,-1.4652514
1587369739413,3.1507695,-13.706804,-1.13964
1587369739424,3.1507695,-13.706804,-1.13964
1587369739434,2.4420857,-10.892421,-0.34835634
1587369739447,2.1045034,-9.668983,-0.1364695
1587369739457,1.7896658,-8.643068,0.45848963
1587369739467,1.1372458,-7.479486,1.1528081
1587369739479,0.7338228,-6.9587474,0.9744401
1587369739489,0.37588966,-6.1064115,0.91099375
1587369739501,0.06943185,-5.5964465,0.2633622
1587369739512,0.30885202,-5.482722,-0.0047884034
1587369739522,0.30885202,-5.482722,-0.0047884034
1587369739534,1.0271125,-4.735731,1.0893618
1587369739544,1.7764976,-4.8458643,0.6619968
1587369739556,1.8507179,-5.2002063,0.641646
1587369739566,1.7262194,-5.66947,0.7781156
1587369739579,1.5586253,-5.9926867,0.61530983
1587369739589,1.3120226,-6.2728086,0.48243165
1587369739599,0.9995792,-6.56131,0.56982
1587369739611,0.6512229,-6.789956,1.3982137
1587369739621,0.6452374,-7.445967,1.8626889
1587369739633,0.7170634,-7.9272017,2.4049757
1587369739643,0.6691794,-8.3390045,2.610877
1587369739655,0.60453594,-8.451532,2.6886885
1587369739663,0.62249243,-8.316259,2.835932
1587369739675,0.62249243,-8.316259,2.835932
1587369739687,1.5263035,-7.4842744,3.5781345
1587369739697,2.8119898,-7.067683,3.964798
1587369739709,4.3718123,-6.7863646,4.1024647
1587369739719,5.6946087,-6.743269,3.6415808
1587369739732,6.6630635,-7.675811,3.7241807
1587369739742,6.6630635,-7.675811,3.7241807
1587369739752,6.671443,-10.524911,2.4277205
1587369739764,6.3326635,-12.166136,1.6496049
1587369739772,6.3326635,-12.166136,1.6496049
1587369739784,5.734113,-13.138182,2.3463178
1587369739796,6.1890116,-11.832145,3.3901896
1587369739806,6.491878,-10.208876,3.1627405
1587369739818,6.7612257,-9.275137,3.5745432
1587369739828,6.167464,-10.084377,3.0358477
1587369739841,1.0163386,-16.171635,0.023942016
1587369739851,-2.5725696,-21.27368,-1.400608
1587369739861,-7.01142,-21.28086,5.6886234
1587369739873,-7.01142,-21.28086,5.6886234
1587369739881,1.1061212,-4.369418,4.373009
1587369739893,2.1068976,-3.2932243,2.432509
1587369739905,1.2976574,-4.8733974,1.6089035
1587369739915,0.60453594,-5.395334,0.59615624
1587369739928,1.5586253,-5.3606176,0.81881696
1587369739939,2.124854,-7.117962,0.15322891
1587369739951,1.6663644,-9.738416,-0.47046062
1587369739960,1.496376,-12.8688345,-0.130484
1587369739970,1.6017209,-16.745047,0.4297592
1587369739981,1.3000516,-20.673931,0.93254155
1587369739991,1.3000516,-20.673931,0.93254155
1587369740002,1.2210429,-15.072697,1.1839328
1587369740013,1.0247183,-10.850522,2.2062569
1587369740024,0.9588778,-8.347384,2.3355439
1587369740035,0.47405192,-7.0581064,1.9201498
1587369740046,-0.11133038,-6.2584434,2.1164744
1587369740058,-0.6691794,-5.6706667,2.859874
1587369740068,-0.62488663,-5.530606,2.9592333
1587369740080,-0.39264908,-5.4504004,3.0358477
1587369740090,-0.45848963,-6.363788,2.3523033
1587369740103,-0.4333505,-7.0784574,1.4305356
1587369740113,-0.10175357,-7.443573,1.6711528
1587369740122,-0.10175357,-7.443573,1.6711528
1587369740134,0.31603462,-7.8170686,1.30484
1587369740146,0.4309563,-7.943961,1.1755531
1587369740156,0.4309563,-7.943961,1.1755531
1587369740168,0.82001406,-8.161834,0.6895301
1587369740178,1.13964,-8.069656,0.41180268
1587369740191,1.5394717,-8.091205,0.24181437
1587369740201,1.6891093,-8.67539,0.05865794
1587369740213,2.0506337,-9.153033,0.6332663
1587369740223,2.0506337,-9.153033,0.6332663
1587369740235,2.147599,-9.132683,1.1324574
1587369740245,2.304419,-9.299079,1.42455
1587369740257,2.304419,-9.299079,1.42455
1587369740267,2.633622,-9.878476,2.1404164
1587369740279,2.5570073,-10.359711,2.6731262
1587369740289,2.4396915,-10.110714,2.6611552
1587369740302,2.4408886,-10.842142,2.4061728
1587369740312,2.3056161,-8.696938,2.8502972
1587369740324,2.360683,-7.6530657,2.1272483
1587369740334,2.4037786,-7.36217,2.0733786
1587369740346,2.5210943,-8.084022,2.8000188
1587369740356,2.5210943,-8.084022,2.8000188
1587369740368,1.7669208,-10.117896,4.426879
1587369740378,0.8583213,-11.131841,5.380968
1587369740390,-0.037110128,-11.988965,5.1487308
1587369740400,-0.45130703,-12.156559,4.4556093
1587369740413,1.1073183,-10.948685,1.3958195
1587369740423,1.1073183,-10.948685,1.3958195
1587369740435,3.8534677,-7.3549876,1.5298948
1587369740445,4.868609,-6.2345014,0.9624691
1587369740457,5.9651537,-5.8825536,-0.82599956
1587369740467,7.1502833,-6.271611,-3.3207579
1587369740479,6.8581905,-6.7384806,-3.8989575
1587369740489,4.663905,-7.2544312,-2.7365725
1587369740502,-0.05865794,-10.551247,-0.8295909
1587369740512,-0.35913026,-14.674062,-1.079785
1587369740522,-0.35913026,-14.674062,-1.079785
1587369740534,2.2637177,-18.813637,-0.39983168
1587369740542,3.2692823,-21.794418,-0.260968
1587369740554,3.2692823,-21.794418,-0.260968
1587369740566,3.0897174,-21.873426,-1.4664485
1587369740576,2.944868,-19.098547,-2.4384944
1587369740588,2.944868,-16.296133,-1.851915
1587369740598,2.944868,-13.806164,-1.2952632
1587369740610,2.6503813,-11.32218,-1.1049241
1587369740620,2.3439236,-9.301474,-1.3060371
1587369740633,1.8219875,-6.4020953,0.33758244
1587369740643,1.8830396,-5.291186,1.2425907
1587369740655,1.8830396,-5.291186,1.2425907
1587369740665,0.8475474,-5.2121773,0.79367787
1587369740677,0.46686932,-5.345055,0.46686932
1587369740687,0.3878607,-5.1642933,0.8595184
1587369740700,0.29807812,-5.2121773,1.5622166
1587369740711,0.09935937,-5.031415,1.970428
1587369740721,0.7745243,-4.9428296,1.6220716
1587369740731,0.36990416,-6.078878,1.0354922
1587369740743,0.40222588,-6.5026517,0.8367735
1587369740753,0.40222588,-6.5026517,0.8367735
1587369740765,0.6404489,-7.2939353,1.234211
1587369740775,0.7290344,-7.6375036,1.5693992
1587369740788,0.81283146,-7.9212165,1.8830396
1587369740800,0.830788,-8.118738,1.9452889
1587369740810,0.80804306,-8.058883,1.9548657
1587369740820,0.59974754,-8.146272,2.3582888
1587369740831,0.7086837,-7.9810715,2.8419175
1587369740841,1.7992426,-7.5848308,3.5936968
1587369740853,1.7992426,-7.5848308,3.5936968
1587369740863,4.1371803,-6.8869214,2.8981812
1587369740876,5.243302,-6.993463,1.8818425
1587369740886,5.7424927,-7.088034,2.1188686
1587369740896,5.9867015,-7.189788,3.0992942
1587369740908,5.9771247,-8.1343,3.8666358
1587369740919,5.3139305,-9.835381,3.8127663
1587369740929,4.4927197,-12.194866,2.7090392
1587369740942,5.2863975,-11.716026,3.7565024
1587369740952,5.2863975,-11.716026,3.7565024
1587369740962,8.828619,-10.09156,5.955577
1587369740975,7.6027875,-11.996147,3.764882
1587369740981,7.6027875,-11.996147,3.764882
1587369740994,1.5286977,-19.737799,-2.3259668
1587369741006,-2.3247697,-24.994268,-2.3894134
1587369741016,-4.5298295,-23.691822,2.3822308
1587369741028,-4.7141833,-15.259444,4.6710877
1587369741037,-2.743755,-7.8745294,3.9683893
1587369741048,0.5494693,-4.271256,3.4440591
1587369741060,2.4660277,-4.146757,3.705027
1587369741071,1.4317327,-5.613206,-0.16280572
1587369741083,1.4317327,-5.613206,-0.16280572
1587369741089,1.6711528,-6.4416,0.110133275
1587369741102,1.8124107,-8.331821,0.61052144
1587369741113,1.5622166,-14.343662,0.7290344
1587369741124,1.5478514,-17.125725,1.827973
1587369741137,1.5478514,-17.125725,1.827973
1587369741147,1.7070658,-18.065449,0.82719666
1587369741159,1.4149733,-14.947001,2.2613235
1587369741169,1.2737153,-8.206126,2.541445
1587369741182,0.9648633,-6.669049,1.9776106
1587369741192,0.38067806,-5.554548,2.243367
1587369741204,0.38067806,-5.554548,2.243367
1587369741214,0.31004912,-5.997475,2.4013844
1587369741226,0.45130703,-6.517017,3.0490158
1587369741236,0.45130703,-6.517017,3.0490158
1587369741248,0.46088383,-7.5848308,1.8136078
1587369741258,0.88944596,-7.928399,1.946486
1587369741270,1.1563994,-8.208521,1.7441759
1587369741281,1.0785879,-8.356961,1.7010803
1587369741291,1.0737995,-8.3629465,1.3335704
1587369741303,1.3371617,-8.145074,1.1528081
1587369741311,1.5837644,-8.226477,0.81402856
1587369741324,1.5646108,-8.336611,0.46567222
1587369741335,1.5646108,-8.336611,0.46567222
1587369741345,1.7633295,-8.433576,0.2669535
1587369741357,1.9740193,-8.619126,0.15203181
1587369741367,2.2134395,-8.748413,0.2621651
1587369741379,2.408567,-8.832211,0.4237737
1587369741389,2.5809495,-9.173384,0.760159
1587369741402,2.633622,-9.264363,1.0139444
1587369741412,2.292448,-9.417592,1.5167267
1587369741424,1.8231846,-9.639056,1.7022774
1587369741433,1.8231846,-9.639056,1.7022774
1587369741445,1.4999673,-9.081207,1.9668367
1587369741456,1.3335704,-8.537724,2.2493525
1587369741467,1.6879122,-7.9487495,2.2661119
1587369741478,1.9524715,-7.0952168,2.2900538
1587369741489,2.280477,-7.086837,2.6862943
1587369741500,2.6084828,-8.36175,3.2477345
1587369741511,1.6172832,-10.924743,4.1623197
1587369741522,0.6955156,-11.713632,4.152743
1587369741531,0.6955156,-11.713632,4.152743
1587369741542,-0.8391677,-12.039244,4.0414124
1587369741553,-0.7410054,-11.325771,3.6475663
1587369741563,-0.027533319,-10.534488,2.6731262
1587369741574,1.4772224,-9.849746,1.8938135
1587369741585,1.4772224,-9.849746,1.8938135
1587369741596,4.1802764,-7.551312,1.2976574
1587369741607,7.5429325,-8.061277,-2.0614076
1587369741619,8.086416,-8.585608,-3.6703112
1587369741632,6.6067996,-8.541314,-3.3147724
1587369741637,4.0940847,-8.884883,-2.718616
1587369741651,1.9297266,-10.170568,-2.1332338
1587369741662,-0.39025488,-12.633005,-1.6484078
1587369741673,-0.41180268,-13.178884,-1.2042835
1587369741684,-0.41180268,-13.178884,-1.2042835
1587369741696,2.0973208,-15.164873,-0.8367735
1587369741705,3.3662477,-16.862362,-0.34955344
1587369741717,3.881001,-18.413805,-0.15562311
1587369741729,3.288436,-19.047071,-0.25019407
1587369741739,2.5713725,-18.171991,-0.89543146
1587369741752,2.1799207,-16.867151,-1.0259154
1587369741762,2.480393,-13.623008,-0.9840169
1587369741772,2.360683,-12.164939,-0.9720459
1587369741784,2.360683,-12.164939,-0.9720459
1587369741795,2.0602105,-8.799889,-0.91937345
1587369741805,2.1667526,-7.2628107,-0.11731588
1587369741818,2.1679497,-6.4416,0.770933
1587369741828,1.7118542,-5.291186,0.09935937
1587369741837,1.6340426,-5.1906295,0.3172317
1587369741848,1.3958195,-5.345055,0.25737667
1587369741858,1.1228806,-5.647922,0.78410107
1587369741869,0.6703765,-5.907693,1.2378023
1587369741881,0.78769237,-5.6802435,1.4281414
1587369741890,1.3227965,-5.577293,1.4987702
1587369741901,1.4784195,-6.64391,0.7230489
1587369741912,1.4760253,-6.8929067,0.7278373
1587369741923,1.365892,-7.023391,0.79607207
1587369741934,1.0390835,-7.035362,0.8511387
1587369741945,0.8439561,-7.2328835,1.186327
1587369741956,0.6691794,-7.302315,1.5753847
1587369741965,0.5805939,-7.4327993,1.8435353
1587369741976,0.49081135,-7.4711065,2.1894975
1587369741987,0.4357447,-7.52737,2.4624364
1587369741998,0.34117374,-7.565677,2.801216
1587369742008,0.49200845,-7.620744,3.0382419
1587369742022,1.4652514,-7.4208283,3.2812533
1587369742032,1.4652514,-7.4208283,3.2812533
1587369742043,4.507085,-7.301118,2.3582888
1587369742056,5.3486466,-7.3645644,3.1507695
1587369742066,5.3486466,-7.3645644,3.1507695
1587369742078,7.4268136,-8.789114,3.679888
1587369742088,7.489063,-10.279505,2.8335378
1587369742101,7.0784574,-12.126632,1.578976
1587369742112,6.0764837,-13.548787,0.8607155
1587369742121,5.5401826,-11.857284,3.4991257
1587369742132,5.5401826,-11.857284,3.4991257
1587369742144,8.185776,-7.881712,5.919664
1587369742154,9.467871,-7.536947,7.141904
1587369742165,9.467871,-7.536947,7.141904
1587369742176,4.7668557,-12.253524,0.59495914
1587369742185,2.1942859,-15.383943,-1.0546459
1587369742197,-0.3854665,-19.96884,-0.30526072
1587369742209,-3.4680011,-23.784,0.33399114
1587369742220,-4.8027687,-22.105665,2.7138276
1587369742231,-3.4727895,-14.726735,3.6415808
1587369742241,1.5263035,-5.3582234,4.0497923
1587369742253,1.8148049,-5.5389857,3.8654387
1587369742263,1.8148049,-5.5389857,3.8654387
1587369742275,-0.12569559,-6.75524,0.41180268
1587369742285,0.60693014,-8.297106,1.0031705
1587369742297,1.1336545,-11.070788,0.6619968
1587369742307,0.5734113,-14.91468,1.0199299
1587369742319,1.1408371,-17.423803,0.842759
1587369742330,2.2349873,-18.012777,1.0247183
1587369742340,2.2457612,-16.564285,1.4329298
1587369742353,1.340753,-9.758766,2.6910827
1587369742362,1.340753,-9.758766,2.6910827
1587369742374,1.1408371,-6.3889275,1.899799
1587369742385,1.0115502,-5.523423,2.4073699
1587369742395,0.8499416,-5.011064,2.7736826
1587369742407,0.6859388,-5.4408236,2.9592333
1587369742417,0.7134721,-5.934029,2.4612393
1587369742429,0.9923966,-6.2368956,1.7908629
1587369742440,1.283292,-6.7492547,1.9764135
1587369742450,1.3994108,-7.383718,1.9644425
1587369742462,1.4377182,-7.7224975,2.1045034
1587369742472,1.7082629,-8.2516165,1.3922282
1587369742484,2.1619642,-8.817844,0.8726865
1587369742494,2.4468741,-8.99741,0.724246
1587369742506,2.6120741,-9.238028,0.40102878
1587369742514,2.6120741,-9.238028,0.40102878
1587369742526,2.7341783,-9.212888,-0.021547815
1587369742538,2.5677812,-9.241618,0.022744916
1587369742547,2.4193408,-9.295488,0.1376666
1587369742559,2.2649148,-9.387665,0.36152446
1587369742572,1.9548657,-9.445126,0.8367735
1587369742582,1.9548657,-9.445126,0.8367735
1587369742592,2.0326772,-9.228451,1.0414777
1587369742604,2.067393,-9.281123,1.3371617
1587369742614,2.067393,-9.281123,1.3371617
1587369742626,2.2254105,-9.48463,1.6986861
1587369742636,2.3187842,-9.545682,1.9512744
1587369742648,2.2840683,-9.387665,1.8231846
1587369742659,2.6551697,-9.312247,2.1894975
1587369742669,2.6839,-8.688558,2.5486276
1587369742681,2.670732,-7.9343843,2.6276364
1587369742692,2.088941,-6.8905125,2.1332338
1587369742702,1.8986019,-7.526173,2.134431
1587369742714,1.8986019,-7.526173,2.134431
1587369742724,0.7158663,-10.921151,3.1268275
1587369742736,0.36152446,-11.329363,3.4261026
1587369742746,0.075417355,-11.352107,3.477578
1587369742758,-0.007182605,-10.867282,3.2489316
1587369742769,0.30885202,-10.169372,2.2098482
1587369742780,1.8507179,-9.588778,1.0378864
1587369742791,3.2585084,-8.591593,0.8643068
1587369742801,5.1116204,-7.204153,0.38187516
1587369742813,5.1116204,-7.204153,0.38187516
1587369742823,8.123527,-8.644265,-2.9125464
1587369742835,6.787562,-8.8884735,-2.7150247
1587369742843,4.23654,-9.545682,-2.0841527
1587369742855,2.327164,-10.848128,-2.160767
1587369742867,0.91578215,-12.270284,-1.5562311
1587369742877,-0.18794483,-13.309367,-0.7637503
1587369742889,-0.48243165,-13.669695,-0.5758055
1587369742900,0.30166942,-14.180857,-0.62009823
1587369742910,1.7669208,-14.9865055,-0.7517793
1587369742922,3.0466216,-17.372328,0.034715924
1587369742932,2.2457612,-17.444153,-0.7469909
1587369742944,1.8567034,-16.569073,-0.5758055
1587369742952,2.0530279,-15.229517,-0.60214174
1587369742964,2.0530279,-15.229517,-0.60214174
1587369742976,2.4887726,-12.328941,-0.7314286
1587369742986,2.4504654,-10.94629,-1.0223241
1587369742998,2.432509,-9.36492,-1.2150574
1587369743008,2.433706,-7.892486,-1.2234371
1587369743020,2.5246856,-7.101202,-0.7553706
1587369743031,2.2134395,-6.661866,-0.31364042
1587369743041,2.3439236,-6.3218894,-0.31364042
1587369743053,2.232593,-5.315128,-0.2777274
1587369743061,2.232593,-5.315128,-0.2777274
1587369743073,1.316811,-5.6215854,0.30166942
1587369743086,0.8870517,-5.482722,0.7182605
1587369743096,0.8870517,-5.482722,0.7182605
1587369743106,0.93493575,-5.141548,0.93493575
1587369743119,1.1623849,-5.505467,0.7350199
1587369743129,1.0510546,-5.828684,0.8343793
1587369743140,0.8451532,-6.015432,0.9983821
1587369743150,0.7529764,-6.3566055,0.93972415
1587369743163,0.94690675,-7.050924,1.1659763
1587369743169,1.13964,-7.433996,1.4676456
1587369743181,1.067814,-8.347384,2.1308396
1587369743193,1.067814,-8.347384,2.1308396
1587369743204,1.4556746,-9.01776,2.0841527
1587369743215,1.7537527,-9.208099,2.111686
1587369743226,2.088941,-9.090784,2.3463178
1587369743237,2.6384103,-8.929175,2.5893292
1587369743248,3.6116533,-8.620323,2.9604304
1587369743259,4.546589,-8.048109,3.0107086
1587369743270,5.3582234,-7.6123643,2.6659436
1587369743279,6.007052,-7.21373,2.765303
1587369743291,6.9012866,-6.7731967,3.6164417
1587369743304,8.356961,-7.6410947,3.2237926
1587369743314,7.8613615,-9.412804,1.8926164
1587369743324,7.017405,-11.376049,1.1073183
1587369743336,6.341043,-12.169727,1.9979613
1587369743346,6.341043,-12.169727,1.9979613
1587369743358,6.2979474,-10.733206,4.5022964
1587369743368,7.3322425,-9.471462,5.0182467
1587369743380,9.234436,-8.571242,4.8003745
1587369743389,7.101202,-11.316195,1.3922282
1587369743401,4.3897686,-13.041217,0.11492168
1587369743411,3.0669725,-13.748703,1.2066777
1587369743423,-2.2266076,-19.709068,0.79966336
1587369743433,-4.7860093,-21.14559,1.4460979
1587369743445,-4.7860093,-21.14559,1.4460979
1587369743455,-2.1871033,-10.770316,3.1064768
1587369743467,-0.03232172,-6.4906807,3.5541923
1587369743477,1.2162545,-5.368997,4.059369
1587369743489,0.6404489,-5.9400144,3.3399115
1587369743498,-0.5363012,-5.877765,0.9876082
1587369743510,-0.6560113,-5.601235,0.7637503
1587369743521,0.1400608,-6.2380924,1.186327
1587369743531,2.3774424,-10.060435,-0.0023942017
1587369743543,2.3774424,-10.060435,-0.0023942017
1587369743553,3.4225113,-15.848418,0.6727707
1587369743565,3.4021606,-17.624916,0.6787562
1587369743575,2.9891608,-17.1365,0.8607155
1587369743587,2.5378537,-14.279019,1.5849615
1587369743598,2.2421699,-10.839748,1.6867151
1587369743608,1.8770541,-7.6375036,1.2198458
1587369743620,1.400608,-7.303512,1.1492168
1587369743630,0.6679823,-7.2113357,1.9021933
1587369743642,0.23343466,-7.1766195,1.9716251
1587369743652,-0.079008654,-7.827842,2.3175871
1587369743664,-0.21308395,-8.324639,2.1200657
1587369743674,0.12689269,-8.445546,2.3056161
1587369743686,0.29688102,-8.486248,2.0482395
1587369743696,0.29688102,-8.486248,2.0482395
1587369743708,0.7769185,-8.429984,1.9428947
1587369743716,0.90740246,-8.196549,1.8207904
1587369743728,1.2246342,-8.263587,1.5059528
1587369743740,1.3694834,-8.358158,1.2856863
1587369743751,1.6555905,-8.783129,0.93373865
1587369743761,1.6555905,-8.783129,0.93373865
1587369743773,1.7106571,-9.188946,0.37588966
1587369743783,1.8064252,-9.196129,0.29328972
1587369743795,1.8064252,-9.196129,0.29328972
1587369743805,1.9859903,-9.181764,0.5363012
1587369743817,2.1416135,-8.978256,0.9600749
1587369743825,2.3331497,-8.576031,1.1133038
1587369743837,2.2637177,-8.457518,1.3036429
1587369743849,2.1140802,-8.433576,1.3946224
1587369743860,2.1021092,-8.520964,1.543063
1587369743871,2.1188686,-8.732851,1.6567876
1587369743881,2.3068132,-8.761581,1.7465701
1587369743893,2.3068132,-8.761581,1.7465701
1587369743903,2.2720973,-8.213309,2.0590134
1587369743916,2.006341,-8.185776,2.12246
1587369743926,1.7884687,-8.371326,2.1523874
1587369743938,1.8770541,-8.9279785,2.505532
1587369743948,2.0458453,-9.53012,2.7641058
1587369743960,1.9752164,-10.231621,3.3518825
1587369743971,1.8423382,-10.68652,3.834314
1587369743981,1.4987702,-10.573992,3.4751837
1587369743994,1.4987702,-10.573992,3.4751837
1587369744004,1.7178397,-10.627861,2.8048072
1587369744014,1.9201498,-10.235212,1.9883845
1587369744026,1.9201498,-10.235212,1.9883845
1587369744036,4.132392,-8.396465,-1.0031705
1587369744048,6.727707,-8.4347725,-2.4145525
1587369744059,7.740454,-8.905233,-3.3435028
1587369744070,7.8709383,-8.665813,-3.4081461
1587369744081,6.041768,-9.074024,-2.3882163
1587369744091,4.2461166,-9.883265,-2.3080103
1587369744103,0.7673417,-13.285425,-0.82360536
1587369744113,-0.61052144,-13.700819,-0.23223756
1587369744125,-0.61052144,-13.700819,-0.23223756
1587369744135,0.6979098,-13.25071,-1.0486604
1587369744147,2.5677812,-13.514071,-1.271321
1587369744155,3.5889084,-13.644555,-0.79008657
1587369744167,3.6882677,-14.318523,-0.37588966
1587369744179,3.1591492,-15.248671,-0.09816227
1587369744189,2.4552538,-16.455349,0.15562311
1587369744202,1.4556746,-15.824476,-0.49679685
1587369744213,1.7070658,-14.356831,-1.5729905
1587369744223,1.7070658,-14.356831,-1.5729905
1587369744233,2.2301989,-11.874043,-1.7274165
1587369744244,2.3918076,-10.553641,-1.0271125
1587369744256,2.553416,-9.346964,-0.31364042
1587369744263,3.7002387,-6.247669,1.3335704
1587369744274,3.7002387,-6.247669,1.3335704
1587369744285,2.4193408,-6.1100025,0.8331822
1587369744297,1.1923125,-6.2392898,0.92895025
1587369744308,-0.05267244,-6.135142,1.79206
1587369744319,-1.0989386,-5.949591,2.1499932
1587369744329,-1.4425066,-5.779603,2.1212628
1587369744340,-0.9983821,-5.457583,1.9644425
1587369744351,0.2657564,-5.449203,1.3239936
1587369744363,0.78290397,-5.4982843,0.8870517
1587369744371,0.78290397,-5.4982843,0.8870517
1587369744384,1.6065093,-6.169858,-0.094570965
1587369744393,1.6065093,-6.169858,-0.094570965
1587369744406,1.9237411,-6.88333,0.2801216
1587369744416,1.8136078,-6.96593,0.81043726
1587369744427,1.8471266,-7.1550717,1.4221559
1587369744439,1.9069817,-7.3442135,1.8830396
1587369744450,1.9967642,-7.514202,2.1188686
1587369744460,2.1057005,-7.7201033,2.1823149
1587369744473,2.1918917,-7.854179,2.348712
1587369744478,2.373851,-7.8589673,2.6036944
1587369744493,2.918532,-7.8757267,3.0059202
1587369744503,3.5996823,-7.5704656,2.4827871
1587369744515,4.2664676,-7.5644803,2.3080103
1587369744525,4.2664676,-7.5644803,2.3080103
1587369744537,5.4551888,-7.37055,2.6539726
1587369744547,5.825093,-7.60997,2.6013002
1587369744559,6.1387334,-8.136695,2.4349031
1587369744570,6.4846954,-8.889671,2.0578163
1587369744580,6.573281,-10.000581,1.5298948
1587369744593,6.3422403,-11.219229,1.1875241
1587369744603,5.8095303,-11.60709,2.220622
1587369744613,5.922058,-10.128671,3.3255463
1587369744625,5.922058,-10.128671,3.3255463
1587369744635,7.937976,-7.7584105,6.469133
1587369744647,6.873753,-9.504981,3.5913026
1587369744657,3.8151605,-13.012486,0.6955156
1587369744669,1.3383588,-16.080656,-0.10295067
1587369744680,-0.81283146,-19.059042,1.1839328
1587369744690,-3.3028011,-22.637177,0.81163436
1587369744702,-1.3000516,-15.619772,1.7022774
1587369744712,0.6955156,-5.5701103,3.1064768
1587369744725,0.6955156,-5.5701103,3.1064768
1587369744735,0.7589619,-6.50744,1.5586253
1587369744745,0.33758244,-6.903681,0.090979666
1587369744757,0.7206547,-7.323863,0.46088383
1587369744767,1.4173675,-8.918402,0.5770026
1587369744780,2.5677812,-10.811018,0.32321724
1587369744790,2.7473464,-14.201207,1.9812019
1587369744801,2.8742392,-18.556261,-0.32800564
1587369744811,2.8167782,-18.08101,-0.15322891
1587369744823,2.8167782,-18.08101,-0.15322891
1587369744833,1.6771383,-12.162544,1.8255788
1587369744845,1.2725182,-9.502586,1.7956513
1587369744855,0.7194576,-8.190564,1.5047557
1587369744867,0.08020575,-7.627927,1.6172832
1587369744877,-0.51116204,-6.669049,2.3415294
1587369744889,-0.51714754,-5.7389016,2.7976246
1587369744900,-1.2521675,-5.9280434,2.6144683
1587369744910,-1.210269,-6.0764837,2.1739352
1587369744923,-1.0354922,-6.3685765,2.942474
1587369744933,0.07182605,-7.61835,2.1152773
1587369744943,0.51954174,-8.095993,1.9297266
1587369744955,0.9504981,-8.599973,1.6795325
1587369744965,1.3084313,-9.0081835,1.3443443
1587369744977,1.6184803,-9.297882,0.9804256
1587369744987,2.030283,-9.434352,0.6380547
1587369744999,2.4720132,-9.324219,0.2837129
1587369745010,2.835932,-9.16261,-0.06703765
1587369745021,3.0561984,-8.9519205,-0.20709845
1587369745031,2.9149406,-9.228451,0.10654198
1587369745043,2.7868507,-9.309854,0.25139117
1587369745053,2.681506,-9.211691,0.50397944
1587369745065,2.7401638,-9.2308445,0.8355764
1587369745075,2.7401638,-9.2308445,0.8355764
1587369745087,2.9005754,-9.25359,1.8207904
1587369745097,2.9125464,-9.289502,2.4648306
1587369745109,2.9257145,-9.368511,3.1196449
1587369745119,2.873042,-9.228451,2.9233203
1587369745131,3.6104562,-8.680179,3.3494883
1587369745140,3.6104562,-8.680179,3.3494883
1587369745153,4.1335893,-7.776367,2.8407204
1587369745163,4.27365,-6.867768,1.5239093
1587369745173,4.27365,-6.867768,1.5239093
1587369745185,2.8215668,-10.237606,2.96881
1587369745195,1.4413095,-11.684901,3.8163576
1587369745207,1.4413095,-11.684901,3.8163576
1587369745217,-1.8495208,-11.921927,2.8179753
1587369745229,-1.4915876,-12.923901,1.9812019
1587369745239,0.36870706,-13.377602,-0.29328972
1587369745252,1.9249382,-12.552799,-1.1994951
1587369745262,4.8733974,-10.05445,-1.2114661
1587369745272,4.8733974,-10.05445,-1.2114661
1587369745284,6.611588,-8.372523,-2.9317
1587369745294,6.752846,-8.498219,-2.5953147
1587369745307,6.752846,-8.498219,-2.5953147
1587369745317,3.2477345,-9.841366,0.22984336
1587369745326,1.7729063,-10.998962,0.842759
1587369745338,0.82121116,-11.183316,1.0737995
1587369745349,1.1001357,-11.218032,0.18195933
1587369745359,2.2649148,-11.344925,-0.8415619
1587369745370,3.739743,-12.229582,-1.0965444
1587369745381,1.4951789,-17.04911,-0.23942018
1587369745392,0.51475334,-17.84159,-0.4165911
1587369745403,0.51475334,-17.84159,-0.4165911
1587369745413,0.724246,-16.013618,-0.49559975
1587369745424,1.5801731,-14.077906,-0.8726865
1587369745435,1.9009962,-12.263102,-1.0486604
1587369745447,1.851915,-10.30225,-0.760159
1587369745460,1.8770541,-8.540117,-0.15083471
1587369745466,2.553416,-6.319495,0.7661445
1587369745478,3.301604,-5.5222263,0.9696517
1587369745490,2.6791117,-5.5976434,0.8487445
1587369745503,1.8064252,-5.8945246,0.51834464
1587369745513,0.06943185,-5.8322754,1.1767502
1587369745522,0.06943185,-5.8322754,1.1767502
1587369745534,-0.9552865,-5.4300494,2.3259668
1587369745546,-0.47165772,-4.8267107,2.2720973
1587369745557,0.33758244,-4.638766,1.8064252
1587369745567,0.9684546,-5.069722,1.0522517
1587369745579,1.6232687,-5.565322,0.034715924
1587369745589,2.15957,-5.99149,-0.0035913025
1587369745602,2.5222914,-6.5984197,0.1448492
1587369745612,2.7521348,-8.028955,0.90141696
1587369745622,2.7521348,-8.028955,0.90141696
1587369745634,2.528277,-8.10557,1.5849615
1587369745644,2.3690627,-8.154651,1.8423382
1587369745656,2.3690627,-8.154651,1.8423382
1587369745666,2.2613235,-8.190564,2.3714569
1587369745678,2.44448,-8.075643,2.6312277
1587369745686,2.789245,-7.8984714,2.753332
1587369745698,3.2369606,-7.654263,2.8538885
1587369745710,3.788824,-7.326257,2.956839
1587369745720,4.507085,-7.1383123,2.8275523
1587369745732,6.0130377,-6.9503675,2.5917234
1587369745742,6.8653736,-7.100005,3.0011318
1587369745754,6.8653736,-7.100005,3.0011318
1587369745764,7.5189905,-8.832211,3.0346506
1587369745776,6.906075,-10.758346,2.303222
1587369745787,6.1542954,-12.445061,1.4413095
1587369745798,5.8478374,-13.077129,1.3634979
1587369745808,5.884948,-12.666524,2.1559787
1587369745820,7.3657618,-10.159795,4.5777135
1587369745831,7.431602,-10.437522,4.8135424
1587369745841,3.6607344,-16.112978,0.6871359
1587369745853,3.6607344,-16.112978,0.6871359
1587369745863,-2.858677,-24.39931,1.0941502
1587369745876,-4.31914,-20.281282,5.5748987
1587369745886,-3.7984009,-12.285846,5.619191
1587369745896,-1.1563994,-6.077681,4.9667716
1587369745908,1.4329298,-3.264494,4.1515455
1587369745918,1.246182,-4.5501804,2.3714569
1587369745930,-0.094570965,-5.5126495,0.8295909
1587369745941,-0.7326257,-5.409699,-0.2825158
1587369745951,0.15801731,-5.792771,1.3730747
1587369745963,2.2182279,-10.74398,-0.2753332
1587369745973,2.5151088,-14.101848,0.21787235
1587369745985,3.1735144,-17.047913,0.36032736
1587369745995,4.0761285,-18.332403,0.60453594
1587369746007,4.248511,-17.54471,0.39145198
1587369746015,3.9959226,-14.302961,1.3156139
1587369746027,3.620033,-10.981006,2.195483
1587369746039,2.9951463,-8.956709,2.1380222
1587369746049,1.6101006,-7.261614,1.0606314
1587369746061,0.78649527,-6.89171,1.697489
1587369746071,0.78649527,-6.89171,1.697489
1587369746084,0.3866636,-7.193379,2.055422
1587369746094,0.6488287,-7.3178773,2.1906946
1587369746104,0.6488287,-7.3178773,2.1906946
1587369746116,1.5586253,-7.644686,2.0147207
1587369746124,1.2042835,-8.118738,1.5107412
1587369746136,1.2042835,-8.118738,1.5107412
1587369746148,1.1168951,-7.4471645,1.3670892
1587369746158,1.1312603,-7.129933,1.6400281
1587369746170,1.1408371,-7.1227503,1.7609353
1587369746180,1.2150574,-7.5094137,1.4089876
1587369746193,1.5095441,-8.558074,0.6332663
1587369746203,1.5095441,-8.558074,0.6332663
1587369746212,1.7034745,-9.258378,0.34356794
1587369746225,1.8662802,-9.334992,0.23942018
1587369746231,1.8662802,-9.334992,0.23942018
1587369746243,2.2038627,-9.354146,0.38187516
1587369746255,2.27928,-9.0237465,0.58298814
1587369746267,2.5306711,-8.699332,0.89782566
1587369746277,2.645593,-8.672996,1.1312603
1587369746289,2.7222073,-8.907627,1.484405
1587369746299,2.6288335,-9.168595,2.088941
1587369746311,2.4384944,-9.937134,2.5354595
1587369746322,2.6982653,-10.21127,2.4791958
1587369746332,2.6982653,-10.21127,2.4791958
1587369746344,3.1830912,-9.057265,2.5139117
1587369746355,3.6332011,-8.475474,2.1811178
1587369746365,4.036624,-7.97748,1.6089035
1587369746377,4.3119574,-8.194156,1.5215151
1587369746387,4.2916064,-8.901642,1.8136078
1587369746399,3.5769374,-9.639056,2.504335
1587369746408,2.505532,-10.581175,3.50152
1587369746419,1.1875241,-11.488577,4.2305546
1587369746431,0.038307227,-11.621455,4.618415
1587369746442,-0.055066638,-11.425131,2.956839
1587369746450,-0.055066638,-11.425131,2.956839
1587369746461,3.1112652,-10.425551,1.483208
1587369746473,3.2261868,-8.893262,1.3994108
1587369746484,3.2261868,-8.893262,1.3994108
1587369746496,7.016208,-7.357382,-4.5298295
1587369746508,6.3601966,-7.4842744,-4.5561657
1587369746519,4.003105,-7.608773,-2.5151088
1587369746530,1.9285295,-8.39048,-1.0259154
1587369746541,0.93134445,-10.329783,-0.48362875
1587369746551,0.48362875,-12.194866,0.2645593
1587369746564,2.4001873,-14.870387,0.49919105
1587369746574,3.9492357,-16.385916,0.712275
1587369746584,3.9492357,-16.385916,0.712275
1587369746596,4.471172,-18.158823,-0.016759412
1587369746606,3.5422213,-17.328035,-1.0139444
1587369746618,2.6731262,-16.320076,-1.292869
1587369746629,2.2709002,-15.245079,-1.2162545
1587369746639,1.8567034,-13.78701,-0.7769185
1587369746652,1.4305356,-12.23437,-0.36631286
1587369746662,0.94810385,-9.258378,0.5770026
1587369746674,1.0773908,-7.563283,1.0307038
1587369746684,1.0773908,-7.563283,1.0307038
1587369746696,0.39384618,-5.997475,0.039504327
1587369746706,0.7445967,-5.49589,1.0522517
1587369746718,0.7326257,-5.365406,1.34195
1587369746728,0.63087213,-5.395334,1.7322049
1587369746740,0.4405331,-5.459977,1.9213469
1587369746750,1.1815386,-5.1367598,1.839944
1587369746763,1.484405,-5.5748987,0.8714894
1587369746773,1.6519991,-6.197391,0.4309563
1587369746785,1.6519991,-6.197391,0.4309563
1587369746795,1.4077905,-7.219715,0.20709845
1587369746807,1.5047557,-7.651869,0.28491
1587369746817,1.5059528,-7.7931266,0.7565677
1587369746829,1.5251064,-7.854179,1.2868834
1587369746839,1.7082629,-7.81228,1.6950948
1587369746852,1.9967642,-7.854179,1.8914193
1587369746862,2.4408886,-7.9750857,2.1811178
1587369746872,2.730587,-7.9307933,2.5127146
1587369746884,2.730587,-7.9307933,2.5127146
1587369746892,3.4344823,-7.6351094,3.2668881
1587369746904,3.881001,-7.651869,3.2034419
1587369746916,4.31914,-7.5549035,2.9005754
1587369746926,4.7788267,-7.6602483,1.7729063
1587369746939,6.007052,-7.1969705,2.1894975
1587369746951,6.7767878,-7.3322425,3.4380736
1587369746962,6.5325794,-10.25676,3.0538042
1587369746971,5.8622026,-11.668142,1.5885528
1587369746981,5.8622026,-11.668142,1.5885528
1587369746992,5.1930237,-12.106281,1.8088194
1587369747002,5.9807158,-11.207258,2.633622
1587369747014,7.07726,-9.599552,3.4344823
1587369747024,8.432379,-7.5704656,5.33069
1587369747035,9.451111,-5.901707,6.861782
1587369747047,8.438364,-5.705383,5.592855
1587369747057,5.433641,-8.670602,1.6543933
1587369747069,2.1212628,-12.51569,-0.40102878
1587369747080,-0.272939,-16.102203,-0.23942018
1587369747090,-2.4420857,-19.406202,1.0618285
1587369747103,-2.9855695,-21.53345,2.657564
1587369747109,-2.9855695,-21.53345,2.657564
1587369747121,1.472434,-8.597578,3.5434184
1587369747134,1.472434,-8.597578,3.5434184
1587369747144,0.9648633,-7.156269,1.5622166
1587369747156,-0.1352724,-6.3985043,0.61052144
1587369747166,-0.1352724,-6.3985043,0.61052144
1587369747178,1.7070658,-8.9519205,0.46208093
1587369747188,2.0769699,-12.109872,1.2006922
1587369747200,2.6731262,-14.923059,1.8088194
1587369747211,3.678691,-16.567875,0.7733272
1587369747221,4.296395,-15.740679,1.1947067
1587369747233,4.296395,-15.740679,1.1947067
1587369747244,2.7234044,-10.267534,2.0745757
1587369747254,2.2290018,-8.5700445,1.5765818
1587369747266,2.2290018,-8.5700445,1.5765818
1587369747276,1.3251907,-7.261614,1.1994951
1587369747288,0.80205756,-6.739678,1.5131354
1587369747298,0.3184288,-6.551733,1.9488802
1587369747311,0.08020575,-6.1112,2.1428106
1587369747321,0.6691794,-6.254852,2.099715
1587369747333,0.6691794,-6.254852,2.099715
1587369747343,0.81522566,-7.3059063,1.8243817
1587369747355,1.0845734,-7.4974427,2.0111294
1587369747365,1.0845734,-7.4974427,2.0111294
1587369747377,2.1883004,-7.955932,1.2593501
1587369747387,2.585738,-8.462306,0.7146692
1587369747399,2.8000188,-8.870518,0.5303157
1587369747410,3.015497,-9.069236,0.320823
1587369747421,3.0789435,-9.476251,0.037110128
1587369747431,3.1747115,-9.544485,-0.01436521
1587369747443,3.2213984,-9.234436,0.24301147
1587369747453,3.2620997,-9.148245,0.49559975
1587369747467,3.2585084,-9.003395,0.7673417
1587369747476,3.2836475,-8.688558,0.93014735
1587369747486,3.502717,-8.015787,1.555034
1587369747497,3.016694,-8.884883,1.174356
1587369747508,3.0023289,-9.215282,1.7729063
1587369747520,2.6599581,-9.332599,1.9800048
1587369747528,2.3870192,-9.312247,2.0745757
1587369747539,2.348712,-9.3661175,1.7046716
1587369747548,2.2026656,-8.902839,1.7549498
1587369747559,2.160767,-8.170214,1.9141643
1587369747570,2.2014685,-6.1626754,1.0546459
1587369747581,2.2014685,-6.1626754,1.0546459
1587369747594,1.6651673,-9.176975,3.277662
1587369747604,0.8762778,-10.474632,4.0054994
1587369747616,0.8762778,-10.474632,4.0054994
1587369747626,-0.9995792,-11.520899,4.8997335
1587369747638,-1.3754689,-11.358093,4.045004
1587369747649,-0.0035913025,-11.475409,1.9428947
1587369747659,2.0458453,-11.085154,0.9923966
1587369747672,4.2904096,-8.47308,0.20709845
1587369747682,4.2904096,-8.47308,0.20709845
1587369747692,7.8529816,-8.280347,-3.2824504
1587369747704,8.406042,-8.128315,-4.188656
1587369747714,8.406042,-8.128315,-4.188656
1587369747726,4.2066126,-8.66701,-2.3439236
1587369747736,1.9859903,-10.178948,-0.90620536
1587369747748,0.4333505,-11.465832,0.029927522
1587369747758,-0.2621651,-12.577939,0.61770403
1587369747771,0.44651863,-13.764266,0.16160862
1587369747781,2.0566192,-13.933057,-0.79846627
1587369747791,3.9719806,-16.883911,-0.25617957
1587369747804,3.4404678,-17.990032,-0.6859388
1587369747814,3.4404678,-17.990032,-0.6859388
1587369747824,1.9021933,-17.168821,-1.0151415
1587369747836,2.2409728,-15.625757,-1.1827357
1587369747846,2.372654,-13.80377,-0.9995792
1587369747858,2.0817583,-11.583148,-1.3730747
1587369747868,2.4384944,-9.336189,-0.37110126
1587369747880,2.4289176,-7.8589673,0.3184288
1587369747891,2.7569232,-5.044583,0.8283938
1587369747902,2.3223755,-5.1439424,0.59615624
1587369747912,2.3223755,-5.1439424,0.59615624
1587369747924,1.4197617,-5.2564697,0.51954174
1587369747934,0.6739678,-5.2887917,1.328782
1587369747946,0.47285482,-4.8255134,1.9979613
1587369747955,0.7074866,-4.8422728,2.2170308
1587369747968,0.7457938,-5.1559134,1.9883845
1587369747978,0.91697925,-5.771223,1.5717934
1587369747990,1.1599907,-6.1423244,1.0163386
1587369748000,1.4281414,-6.314707,0.8774749
1587369748013,1.4341269,-6.597223,0.7625532
1587369748023,1.2533646,-6.9503675,0.9911995
1587369748033,1.555034,-7.4615297,1.6316484
1587369748045,1.6843209,-7.6841903,1.887828
1587369748055,1.8183962,-7.8050976,2.0841527
1587369748068,2.0769699,-7.9008656,2.3475149
1587369748078,2.291251,-7.9667063,2.6264393
1587369748088,2.5713725,-7.917625,2.8766334
1587369748100,2.9472623,-7.8469963,3.1842883
1587369748111,3.3267434,-7.6291237,3.2118216
1587369748121,3.788824,-7.493851,2.5139117
1587369748133,4.7141833,-7.345411,1.7537527
1587369748143,5.6431336,-6.8893156,3.7421372
1587369748155,6.7719994,-7.053318,4.5166616
1587369748165,7.2268977,-8.030152,4.331111
1587369748177,7.3633676,-9.514558,3.2920272
1587369748187,7.4375877,-11.106702,1.8590976
1587369748199,6.9407907,-12.038046,1.1085154
1587369748207,6.4344172,-11.962628,1.8148049
1587369748219,6.573281,-11.044453,2.9101522
1587369748232,7.753622,-7.680599,4.8458643
1587369748242,7.753622,-7.680599,4.8458643
1587369748252,5.6766524,-9.570822,0.7685388
1587369748264,5.6766524,-9.570822,0.7685388
1587369748274,0.17118542,-16.950949,-0.16759412
1587369748286,-2.220622,-18.726248,2.7748797
1587369748296,-2.220622,-18.726248,2.7748797
1587369748308,-3.66672,-19.779697,1.7166426
1587369748316,0.15203181,-11.161768,3.5781345
1587369748328,2.2517467,-6.8306575,2.7018566
1587369748340,2.1751323,-7.101202,2.7748797
1587369748351,1.3491327,-7.669825,1.7764976
1587369748361,0.93493575,-7.4148426,0.48123455
1587369748373,1.3144168,-8.495825,0.40102878
1587369748383,1.9500773,-10.210073,0.142455
1587369748395,1.9500773,-10.210073,0.142455
1587369748405,3.2130187,-15.085865,2.6420016
1587369748418,3.252523,-16.894684,1.0378864
1587369748424,3.5733461,-16.865953,0.2765303
1587369748436,3.6044707,-15.453375,1.1468226
1587369748448,3.1902738,-13.029245,1.851915
1587369748460,2.6396074,-10.7990465,2.2122424
1587369748470,2.1499932,-9.336189,1.5981296
1587369748483,0.641646,-7.2843585,2.0446482
1587369748493,0.641646,-7.2843585,2.0446482
1587369748503,-0.2657564,-6.9168487,2.5474305
1587369748515,-0.37469256,-6.9467764,2.6443958
1587369748525,-0.36272156,-7.4124484,2.268506
1587369748536,-0.1328782,-7.687782,2.0949266
1587369748547,0.1400608,-7.7488337,2.15957
1587369748560,0.6667852,-7.741651,1.9213469
1587369748569,0.9516952,-7.823054,1.8112136
1587369748580,1.234211,-8.050503,1.3718776
1587369748591,1.5646108,-8.112753,1.0223241
1587369748602,2.0925324,-8.213309,0.5686229
1587369748613,2.2230163,-8.771158,0.37469256
1587369748624,2.5151088,-8.957906,0.01316811
1587369748635,2.861071,-9.192537,-0.08140286
1587369748643,2.861071,-9.192537,-0.08140286
1587369748654,3.0442274,-9.345766,0.10295067
1587369748665,3.074155,-9.204509,0.3184288
1587369748676,3.1495724,-8.919599,0.47644615
1587369748688,3.1376014,-8.639477,0.5518635
1587369748700,2.8526914,-8.465898,0.9983821
1587369748713,2.5605986,-8.586804,1.3012487
1587369748723,2.0470424,-9.1255,1.7681179
1587369748733,2.0614076,-9.258378,1.9728222
1587369748745,2.0614076,-9.258378,1.9728222
1587369748753,2.3690627,-8.41921,2.8550856
1587369748767,2.4552538,-8.021772,3.0561984
1587369748777,2.2505496,-7.6123643,3.217807
1587369748787,2.3463178,-7.451953,2.885013
1587369748799,2.397793,-8.009802,2.9879637
1587369748810,2.2649148,-8.913613,2.9843724
1587369748820,1.899799,-9.858126,3.0573955
1587369748832,1.0127473,-10.892421,3.1423898
1587369748843,1.0127473,-10.892421,3.1423898
1587369748852,0.9816227,-10.776301,1.1420342
1587369748867,2.4528596,-10.947487,0.1412579
1587369748875,3.3889925,-10.226832,-0.35673606
1587369748887,4.2916064,-9.356541,-0.93972415
1587369748897,5.333084,-8.945934,-1.5143325
1587369748909,6.3003416,-8.987833,-2.0027497
1587369748920,6.6762314,-9.065644,-3.1723173
1587369748930,3.4871547,-9.551667,-2.0697873
1587369748942,1.8950106,-10.134656,-1.8722657
1587369748952,0.7266402,-12.150574,-0.092176765
1587369748964,0.79846627,-12.212823,-0.18195933
1587369748972,2.2780828,-12.345701,-1.043872
1587369748984,3.964798,-12.7970085,-1.0259154
1587369748996,4.933253,-13.741521,-0.5494693
1587369749006,4.8422728,-15.419856,-0.32561144
1587369749018,3.8726213,-16.350004,-0.2789245
1587369749028,2.966416,-16.755821,-0.8714894
1587369749040,2.396596,-16.504429,-0.7206547
1587369749050,2.2038627,-15.424644,-0.9672575
1587369749062,2.4241292,-12.381614,-1.5394717
1587369749072,2.3678656,-10.96664,-1.6723499
1587369749084,1.9895816,-9.616311,-1.234211
1587369749094,1.9895816,-9.616311,-1.234211
1587369749106,1.8423382,-7.2221093,-0.39384618
1587369749116,2.6982653,-5.7808,0.7733272
1587369749128,2.8383262,-5.671864,1.009156
1587369749138,2.0039468,-6.045359,0.51595044
1587369749151,0.59974754,-6.247669,1.0414777
1587369749161,0.19273324,-6.256049,1.8124107
1587369749171,0.4165911,-6.136339,1.2844892
1587369749183,0.56982,-6.399701,1.2665327
1587369749191,0.56982,-6.399701,1.2665327
1587369749203,1.8028339,-6.3781533,0.44891283
1587369749215,2.232593,-6.981492,-0.076614454
1587369749226,2.4001873,-7.371747,-0.027533319
1587369749236,2.6024973,-7.48188,-0.010773907
1587369749248,2.7461493,-7.821857,0.08619126
1587369749258,2.6264393,-7.905654,0.4309563
1587369749270,2.3678656,-7.8888946,0.81642276
1587369749281,2.1703439,-7.860164,1.1647792
1587369749291,2.0757728,-7.777564,1.484405
1587369749303,2.2493525,-7.6351094,1.9871874
1587369749313,2.7090392,-7.7069354,2.27928
1587369749325,2.7090392,-7.7069354,2.27928
1587369749336,3.7840357,-7.524976,2.681506
1587369749346,4.175488,-7.3106947,2.5570073
1587369749358,4.5418005,-6.9946604,1.9859903
1587369749368,5.2923827,-6.38773,2.3415294
1587369749380,5.899313,-6.2404866,3.6990416
1587369749390,6.6546836,-6.6103907,3.9995139
1587369749402,6.363788,-9.624691,1.6424223
1587369749410,6.363788,-9.624691,1.6424223
1587369749423,5.7999535,-11.115082,0.9864111
1587369749433,5.3821654,-11.122264,2.4001873
1587369749444,6.161478,-9.888053,3.715801
1587369749456,7.358579,-8.2169,4.879383
1587369749466,8.080431,-7.515399,4.9907136
1587369749478,7.0593038,-9.296685,2.7617116
1587369749488,5.1367598,-12.410344,0.8762778
1587369749500,3.4117374,-16.24825,-1.4209588
1587369749511,-2.396596,-26.846184,0.6619968
1587369749521,-2.396596,-26.846184,0.6619968
1587369749533,-2.3654714,-14.173674,3.6355953
1587369749544,0.11971009,-7.5644803,3.5110967
1587369749554,2.5210943,-4.5525746,4.605247
1587369749566,2.0853498,-5.559336,3.0190883
1587369749576,2.0853498,-5.559336,3.0190883
1587369749588,0.11971009,-7.177817,1.0426749
1587369749598,0.5770026,-9.269152,1.6172832
1587369749609,0.93732995,-11.926716,1.3623008
1587369749621,1.8854338,-15.437813,1.2366052
1587369749628,3.4883518,-17.68477,0.60094464
1587369749641,4.5920787,-18.211494,0.61890113
1587369749652,3.7337575,-12.181698,2.3546975
1587369749663,2.8179753,-9.376891,2.6132712
1587369749674,2.8179753,-9.376891,2.6132712
1587369749685,1.1085154,-6.70975,1.543063
1587369749696,0.5303157,-6.0597243,1.3108255
1587369749708,0.107739076,-5.9148755,1.5107412
1587369749719,0.074220255,-6.307524,1.638831
1587369749729,0.35194764,-6.692991,1.5454572
1587369749742,0.47764325,-6.9767036,2.5701754
1587369749752,0.90021986,-8.086416,2.420538
1587369749762,1.340753,-8.268375,2.1547816
1587369749774,1.340753,-8.268375,2.1547816
1587369749785,1.6651673,-8.219295,1.5861586
1587369749795,1.8555063,-7.9571295,1.1815386
1587369749807,2.043451,-7.929596,0.90141696
1587369749817,2.1703439,-8.085219,0.90979666
1587369749830,2.3774424,-8.277952,0.59495914
1587369749840,2.4660277,-8.647857,0.4213795
1587369749852,2.6264393,-9.186552,0.30526072
1587369749862,2.7246015,-9.376891,0.24061728
1587369749874,2.7246015,-9.376891,0.24061728
1587369749884,2.705448,-9.512163,0.89064306
1587369749896,2.634819,-9.356541,1.0378864
1587369749906,2.4911668,-9.018958,1.198298
1587369749918,2.4552538,-8.7951,1.3036429
1587369749929,2.4911668,-8.722076,1.3443443
1587369749939,2.5737667,-8.780735,1.5119383
1587369749951,3.2142158,-8.939949,2.087744
1587369749960,3.2142158,-8.939949,2.087744
1587369749972,3.6487634,-8.987833,2.0685902
1587369749982,3.7600937,-9.052477,2.457648
1587369749994,3.4931402,-8.210915,2.2038627
1587369750004,3.1124623,-7.6171527,1.6304513
1587369750016,2.4504654,-7.275979,1.2641385
1587369750026,1.5490485,-8.366538,0.6979098
1587369750039,1.1097125,-9.257181,1.0809821
1587369750049,0.6943185,-9.950302,2.0506337
1587369750060,-0.017956512,-10.69011,3.9695864
1587369750070,-0.81043726,-11.259931,4.829105
1587369750083,-0.5434838,-9.629479,3.5338416
1587369750093,0.6631939,-9.051279,1.6220716
1587369750103,2.3391352,-8.042124,-0.37229836
1587369750115,4.1491513,-7.1059904,-1.9357121
1587369750125,7.1993647,-7.382521,-4.2580876
1587369750137,10.5704,-8.576031,-5.9986725
1587369750147,10.6637745,-8.639477,-4.9320555
1587369750159,7.562086,-8.854955,-3.0945058
1587369750169,4.7560816,-9.855731,-2.789245
1587369750181,1.447295,-14.875175,-1.0115502
1587369750192,1.447295,-14.875175,-1.0115502
1587369750202,0.1352724,-16.235083,0.19033903
1587369750214,1.4652514,-15.454572,-0.59136784
1587369750224,1.4652514,-15.454572,-0.59136784
1587369750236,3.9564183,-14.255077,-0.6991069
1587369750246,3.6715083,-15.892711,-1.1073183
1587369750258,3.5446155,-15.849615,-1.4927847
1587369750268,3.417723,-15.534778,-1.2054806
1587369750280,3.4739866,-14.488512,-0.34117374
1587369750288,3.5901055,-12.884397,-0.46088383
1587369750300,3.8379054,-11.1414175,-1.1145009
1587369750312,3.4129345,-8.6574335,-0.9648633
1587369750322,3.4129345,-8.6574335,-0.9648633
1587369750334,3.288436,-6.576872,0.20829555
1587369750344,3.05141,-6.126762,-0.05746084
1587369750357,3.05141,-6.126762,-0.05746084
1587369750367,1.8363527,-5.1379566,0.08020575
1587369750377,0.8295909,-5.297171,0.28491
1587369750390,0.17477672,-5.2887917,1.1767502
1587369750396,-0.2801216,-5.3522377,1.8315643
1587369750408,-0.077811554,-5.04578,2.146402
1587369750420,0.6739678,-4.957195,2.2637177
1587369750432,1.1971009,-5.961562,1.5981296
1587369750443,1.2988545,-6.5122285,0.79487497
1587369750453,1.2988545,-6.5122285,0.79487497
1587369750465,1.8986019,-7.4806833,0.5781997
1587369750475,1.9859903,-7.8888946,0.8822633
1587369750487,2.0446482,-8.1343,1.1695676
1587369750497,2.1152773,-8.285135,1.5921441
1587369750509,2.1428106,-8.39048,1.8986019
1587369750519,2.0973208,-8.529344,2.256535
1587369750531,2.4013844,-8.3629465,2.6372132
1587369750542,2.789245,-8.224083,2.8072014
1587369750552,2.789245,-8.224083,2.8072014
1587369750564,4.120421,-7.788338,2.991555
1587369750574,4.7070007,-7.441179,2.9628246
1587369750586,5.0385976,-7.0425444,2.815581
1587369750596,5.2528787,-6.719327,2.468422
1587369750608,5.4432178,-6.5565214,2.2158337
1587369750616,5.732916,-6.5960255,2.3535004
1587369750628,6.3913217,-6.851008,2.5725696
1587369750640,7.074866,-7.478289,2.5115175
1587369750651,7.6602483,-8.384495,2.112883
1587369750661,8.218098,-10.044873,1.5526398
1587369750673,8.218098,-10.044873,1.5526398
1587369750683,6.3721676,-10.426748,2.148796
1587369750694,6.393716,-8.263587,3.0490158
1587369750706,6.393716,-8.263587,3.0490158
1587369750715,5.401319,-9.877279,2.1021092
1587369750728,3.0478187,-12.928689,1.2808979
1587369750737,1.3359646,-15.836447,1.1288661
1587369750748,-1.3120226,-20.62126,0.700304
1587369750759,-5.1726727,-25.37016,1.1935096
1587369750770,-3.5218706,-22.802378,5.353435
1587369750781,2.3319526,-7.079654,2.1667526
1587369750795,0.8643068,-6.7600284,2.315193
1587369750805,0.8643068,-6.7600284,2.315193
1587369750815,1.1444284,-5.731719,1.4580688
1587369750828,1.9895816,-5.925649,1.1875241
1587369750833,2.2744915,-7.599196,0.439336
1587369750848,2.5151088,-9.872491,0.035913024
1587369750858,2.2709002,-12.553997,1.3371617
1587369750870,2.5558102,-15.278598,1.9213469
1587369750881,3.0214825,-17.164032,1.8028339
1587369750891,4.080917,-16.03756,1.8459295
1587369750903,4.080917,-16.03756,1.8459295
1587369750913,1.8842367,-9.455899,2.0087352
1587369750925,1.0702082,-8.418014,1.4867992
1587369750935,0.50278234,-7.799112,0.93852705
1587369750947,0.16998832,-7.831434,0.7793127
1587369750958,-0.08020575,-7.943961,1.3623008
1587369750968,-0.22864626,-8.013393,1.8028339
1587369750980,-0.02633622,-8.11395,2.3403323
1587369750991,-0.047884032,-8.170214,2.408567
1587369751001,0.095768064,-7.727286,2.4121583
1587369751013,0.37469256,-7.3729444,2.3319526
1587369751024,0.59017074,-6.8893156,1.9440918
1587369751034,0.8319851,-6.7624226,1.9428947
1587369751046,0.91338795,-6.907272,2.006341
1587369751054,0.91338795,-6.907272,2.006341
1587369751066,1.30484,-7.398083,1.4437037
1587369751078,1.6591818,-8.057686,1.2617443
1587369751088,2.147599,-8.37372,1.0785879
1587369751100,2.681506,-8.39048,0.92535895
1587369751110,2.9987376,-8.425196,0.47165772
1587369751122,3.3973722,-8.459911,0.5363012
1587369751132,3.4380736,-8.4826565,0.11252748
1587369751144,3.3039982,-8.406042,-0.22385786
1587369751154,3.3039982,-8.406042,-0.22385786
1587369751166,3.252523,-8.945934,-0.3866636
1587369751176,3.2944214,-9.053674,0.22026655
1587369751188,3.525462,-8.875306,0.79726917
1587369751198,3.6104562,-9.4535055,2.2158337
1587369751210,3.7229836,-9.223662,2.7126305
1587369751220,4.3502645,-8.925584,3.2992098
1587369751232,4.5525746,-7.1885905,3.7553053
1587369751242,4.2916064,-6.443994,3.3075895
1587369751254,4.2916064,-6.443994,3.3075895
1587369751264,3.5817258,-7.0006456,1.9644425
1587369751276,3.2836475,-8.756793,2.1930888
1587369751286,2.7748797,-11.139024,2.4636335
1587369751299,2.1751323,-12.021287,2.5187001
1587369751309,1.5478514,-12.518084,3.1890767
1587369751319,1.2569559,-11.9135475,3.122039
1587369751332,0.78170687,-10.655395,2.7569232
1587369751342,3.0765493,-7.2149267,0.32561144
1587369751352,3.0765493,-7.2149267,0.32561144
1587369751364,6.609194,-6.1770406,-1.1767502
1587369751374,8.847773,-7.1047935,-2.9604304
1587369751386,8.847773,-7.1047935,-2.9604304
1587369751396,4.4436383,-8.350976,-2.3092074
1587369751408,1.5239093,-9.80665,-1.7968484
1587369751418,-0.20709845,-12.477382,-2.255338
1587369751430,-1.2018893,-14.173674,-2.111686
1587369751440,-1.22224,-15.258247,-1.7058687
1587369751452,0.06703765,-16.323668,-1.9548657
1587369751462,4.285621,-18.912996,-1.8842367
1587369751474,5.530606,-20.3567,-1.7322049
1587369751485,5.530606,-20.3567,-1.7322049
1587369751495,5.5725045,-19.480423,-1.2186487
1587369751507,5.6096144,-16.654066,-1.3467385
1587369751517,5.2205567,-14.050373,-1.5598224
1587369751529,5.590461,-11.609484,-0.7493851
1587369751540,4.903325,-10.183737,-1.0319009
1587369751551,3.940856,-8.881291,-0.91458505
1587369751561,3.4871547,-7.5441294,-0.61890113
1587369751574,2.4756045,-6.0561333,0.58298814
1587369751584,2.4756045,-6.0561333,0.58298814
1587369751594,0.9935937,-5.3594203,1.1923125
1587369751607,0.092176765,-5.291186,1.1348516
1587369751617,-0.30166942,-4.7800236,1.5526398
1587369751627,-0.7625532,-4.4101195,1.9369092
1587369751639,-0.23822308,-3.976769,2.0290859
1587369751650,0.3866636,-4.1264067,2.0602105
1587369751661,0.6440403,-4.6220064,1.9620483
1587369751671,1.3371617,-5.5880666,0.91338795
1587369751683,1.3371617,-5.5880666,0.91338795
1587369751693,1.8698715,-6.432023,-0.19512744
1587369751705,2.2421699,-7.08564,-0.34117374
1587369751713,2.5067291,-7.1227503,0.04189853
1587369751725,2.5079262,-7.2687964,0.51954174
1587369751737,2.4061728,-7.225701,0.9888053
1587369751747,2.4181437,-7.2185183,1.377863
1587369751758,2.4851813,-7.3059063,1.7788919
1587369751769,2.4241292,-7.4232225,2.0278888
1587369751780,2.4061728,-7.501034,2.231396
1587369751791,3.5410242,-6.494272,3.2429461
1587369751802,4.2078094,-6.221333,2.9221232
1587369751813,4.7429137,-6.126762,2.6898856
1587369751822,5.3079453,-6.041768,2.8682537
1587369751833,5.3079453,-6.041768,2.8682537
1587369751845,7.2819643,-6.4978633,3.1507695
1587369751857,7.680599,-7.93199,2.847903
1587369751867,7.302315,-9.79827,2.0123265
1587369751879,6.733692,-10.978612,1.4580688
1587369751889,6.7708025,-10.8948145,2.0506337
1587369751902,7.4483614,-10.06283,3.0992942
1587369751912,10.216059,-7.147889,5.6203885
1587369751922,10.5440645,-5.424064,6.149507
1587369751934,10.5440645,-5.424064,6.149507
1587369751944,5.747281,-10.660183,-2.7222073
1587369751956,1.4915876,-16.734272,-4.289212
1587369751967,-2.2385786,-22.184673,-0.40102878
1587369751977,-7.2831616,-28.89562,1.8555063
1587369751989,-4.5441947,-28.580782,7.989451
1587369752000,1.009156,-14.411897,6.7121444
1587369752011,1.9548657,-7.395689,3.5206735
1587369752021,1.6448165,-7.467515,0.8499416
1587369752033,1.6448165,-7.467515,0.8499416
1587369752041,3.845088,-8.2995,0.51475334
1587369752053,2.7042508,-15.9022875,1.6412252
1587369752065,1.9021933,-19.806034,3.393781
1587369752075,2.2098482,-21.103691,1.8890251
1587369752087,3.5230677,-19.681536,0.9744401
1587369752097,4.235343,-16.411055,2.2505496
1587369752109,4.0306387,-12.542026,3.4608185
1587369752119,3.1830912,-9.8198185,3.7229836
1587369752131,2.1440077,-8.412027,3.276465
1587369752141,0.37948096,-6.5481415,2.2876596
1587369752154,0.06464344,-6.503849,2.0709844
1587369752164,0.08619126,-6.853402,2.0841527
1587369752174,0.6560113,-7.3897038,1.6903064
1587369752186,0.8714894,-7.669825,2.7952304
1587369752196,1.2090719,-8.2516165,2.2421699
1587369752208,1.4305356,-8.560468,1.7058687
1587369752217,1.4305356,-8.560468,1.7058687
1587369752229,1.7405846,-8.018182,1.0618285
1587369752242,0.79008657,-6.989872,0.18914193
1587369752253,0.7326257,-6.8545995,0.5279215
1587369752263,1.0965444,-6.909666,0.9528923
1587369752274,1.5933412,-6.980295,1.1659763
1587369752286,2.112883,-6.9982514,1.1312603
1587369752296,2.5222914,-7.219715,0.82719666
1587369752308,2.7281928,-7.3765354,0.9588778
1587369752319,2.9532478,-7.3071036,1.0283096
1587369752330,3.4608185,-7.189788,1.1360487
1587369752341,3.7433343,-7.475895,1.6543933
1587369752351,3.8762126,-7.8386164,2.0087352
1587369752363,3.7373488,-8.032547,2.3690627
1587369752371,3.288436,-9.012972,2.4145525
1587369752383,3.288436,-9.012972,2.4145525
1587369752395,3.8630445,-7.515399,1.8303672
1587369752405,3.8271315,-7.1634517,1.6675615
1587369752417,3.8271315,-7.1634517,1.6675615
1587369752427,2.9580362,-8.146272,1.8842367
1587369752439,3.2692823,-8.428787,2.717419
1587369752449,2.1859062,-10.986992,2.765303
1587369752462,1.0977415,-14.296975,4.7417164
