@ HyperIMU -ianovir - 2018
@ Date:Mon Apr 20 10:01:06 GMT+02:00 2020, Sampling Rate:10ms

timestamp,K6DS3TR_Accelerometer.x,K6DS3TR_Accelerometer.y,K6DS3TR_Accelerometer.z
1587369666298,0.0,0.0,0.0
1587369666309,0.0,0.0,0.0
1587369666320,0.0,0.0,0.0
1587369666331,0.0,0.0,0.0
1587369666342,0.0,0.0,0.0
1587369666352,0.92176765,2.1655555,9.702502
1587369666364,1.1659763,2.1883004,9.616311
1587369666375,1.2880806,2.195483,9.561244
1587369666386,1.3012487,2.1739352,9.563639
1587369666397,1.1145009,2.0578163,9.467871
1587369666408,1.1145009,2.0578163,9.467871
1587369666417,1.009156,2.0937295,9.436746
1587369666428,0.8355764,2.124854,9.388862
1587369666439,0.760159,2.1667526,9.53012
1587369666450,0.700304,2.1763294,9.546879
1587369666461,0.700304,2.1763294,9.546879
1587369666472,0.48722005,2.0099323,9.527725
1587369666484,0.45968673,2.0003555,9.54209
1587369666495,0.46327803,2.0171149,9.55885
1587369666506,0.60453594,2.0518308,9.548077
1587369666518,0.7613561,2.0853498,9.460688
1587369666525,0.7613561,2.0853498,9.460688
1587369666536,0.7757214,2.1200657,9.433155
1587369666547,0.7505822,2.0937295,9.412804
1587369666558,0.688333,2.054225,9.374496
1587369666569,0.6739678,2.0602105,9.368511
1587369666580,0.6907272,2.0578163,9.349358
1587369666590,0.6991069,2.0147207,9.370906
1587369666601,0.6751649,1.9812019,9.398438
1587369666613,0.6751649,1.9812019,9.398438
1587369666624,0.62249243,1.910573,9.504981
1587369666633,0.61530983,1.8890251,9.566033
1587369666644,0.664391,1.899799,9.628283
1587369666655,0.6967127,1.9440918,9.598354
1587369666666,0.6979098,1.910573,9.551667
1587369666677,0.700304,1.8686744,9.504981
1587369666688,0.7769185,1.946486,9.491813
1587369666699,0.79367787,1.9883845,9.48463
1587369666710,0.79367787,1.9883845,9.48463
1587369666722,0.60693014,1.9895816,9.471462
1587369666733,0.5650316,1.9261353,9.441534
1587369666742,0.51595044,1.9213469,9.4295635
1587369666753,0.50876784,1.9333179,9.455899
1587369666765,0.50876784,1.9333179,9.455899
1587369666778,0.5781997,1.9632454,9.506178
1587369666791,0.5710171,1.8866309,9.539697
1587369666801,0.56982,1.8938135,9.52174
1587369666810,0.56982,1.8938135,9.52174
1587369666819,0.49799395,1.8830396,9.500193
1587369666830,0.49679685,1.9057846,9.522937
1587369666841,0.51116204,1.9189527,9.606734
1587369666851,0.47405192,1.8950106,9.591172
1587369666862,0.47405192,1.8950106,9.591172
1587369666873,0.45010993,1.8315643,9.616311
1587369666884,0.4417302,1.8028339,9.583989
1587369666895,0.4261679,1.7633295,9.514558
1587369666907,0.48123455,1.7202339,9.497798
1587369666916,0.545878,1.8471266,9.55885
1587369666928,0.6440403,1.9213469,9.532514
1587369666939,0.7278373,1.9333179,9.625888
1587369666950,0.61411273,1.8806454,9.56723
1587369666959,0.61411273,1.8806454,9.56723
1587369666971,0.51595044,1.7980455,9.539697
1587369666982,0.50038815,1.8255788,9.51336
1587369666993,0.47405192,1.8507179,9.526528
1587369667005,0.44651863,1.8626889,9.531317
1587369667014,0.44651863,1.8626889,9.531317
1587369667025,0.37349546,1.8938135,9.5253315
1587369667037,0.33039984,1.8902222,9.509769
1587369667048,0.33399114,1.9021933,9.526528
1587369667059,0.33399114,1.9021933,9.526528
1587369667069,0.4321534,1.9117701,9.588778
1587369667080,0.44532153,1.8818425,9.61272
1587369667091,0.47405192,1.8746599,9.636662
1587369667102,0.45370123,1.8555063,9.643845
1587369667113,0.4333505,1.8495208,9.603143
1587369667126,0.41299978,1.8351556,9.564836
1587369667141,0.5267244,1.8962077,9.544485
1587369667151,0.5386954,1.8806454,9.543288
1587369667161,0.5386954,1.8806454,9.543288
1587369667171,0.50996494,1.8231846,9.500193
1587369667183,0.5327099,1.8411411,9.488221
1587369667193,0.5446809,1.8555063,9.475053
1587369667206,0.5315128,1.8770541,9.471462
1587369667216,0.5386954,1.8363527,9.423578
1587369667226,0.49200845,1.8662802,9.436746
1587369667239,0.46686932,1.733402,9.524135
1587369667249,0.4249708,1.721431,9.448717
1587369667259,0.4249708,1.721431,9.448717
1587369667271,0.48243165,1.7393875,9.546879
1587369667281,0.48243165,1.7393875,9.546879
1587369667293,0.5315128,1.7824832,9.589975
1587369667304,0.5446809,1.827973,9.753978
1587369667314,0.51834464,1.8495208,9.751583
1587369667326,0.47524905,1.8674773,9.77792
1587369667337,0.47046062,1.8962077,9.785102
1587369667348,0.5422867,1.9249382,9.6845455
1587369667358,0.5422867,1.9249382,9.6845455
1587369667370,0.59256494,2.019509,9.606734
1587369667380,0.59974754,2.0350714,9.585187
1587369667393,0.59974754,2.0350714,9.585187
1587369667400,0.4141969,2.0087352,9.563639
1587369667412,0.4141969,2.0087352,9.563639
1587369667424,0.427365,2.1212628,9.519346
1587369667434,0.51235914,2.1655555,9.457097
1587369667447,0.51235914,2.1655555,9.457097
1587369667458,0.5542577,2.1679497,9.300277
1587369667468,0.59017074,2.1667526,9.181764
1587369667477,0.59017074,2.1667526,9.181764
1587369667489,0.62608373,2.1763294,9.198523
1587369667501,0.6596026,2.136825,9.2069025
1587369667510,0.6596026,2.136825,9.2069025
1587369667523,0.7170634,2.0506337,9.187749
1587369667533,0.712275,2.042254,9.210494
1587369667542,0.712275,2.042254,9.210494
1587369667554,0.61770403,2.0626047,9.370906
1587369667565,0.47644615,2.0578163,9.481039
1587369667576,0.34955344,2.0231004,9.552865
1587369667587,0.31483752,2.0231004,9.572019
1587369667599,0.3196259,2.111686,9.5385
1587369667607,0.3196259,2.111686,9.5385
1587369667622,0.10534488,2.195483,9.465476
1587369667631,-0.016759412,2.1655555,9.545682
1587369667642,-0.016759412,2.1655555,9.545682
1587369667653,-0.35913026,2.2469583,9.824607
1587369667665,-0.41180268,2.3678656,9.557653
1587369667676,-0.34356794,2.2744915,9.43914
1587369667686,-0.29328972,2.280477,9.472659
1587369667698,-0.36990416,2.432509,9.332599
1587369667707,-0.36990416,2.432509,9.332599
1587369667720,-0.36750996,2.4037786,9.308656
1587369667727,-0.36750996,2.4037786,9.308656
1587369667738,-0.31004912,2.3942018,9.41041
1587369667750,-0.17118542,2.4109612,9.601946
1587369667768,-0.21068975,2.2254105,9.631873
1587369667776,-0.21068975,2.2254105,9.631873
1587369667786,-0.23463176,2.148796,9.645041
1587369667796,-0.22385786,2.135628,9.628283
1587369667806,-0.16280572,2.1559787,9.585187
1587369667817,-0.08259996,2.1619642,9.556456
1587369667828,-0.01316811,2.1811178,9.5971575
1587369667837,0.07062895,2.220622,9.546879
1587369667849,0.0023942017,2.1045034,9.55047
1587369667862,0.0023942017,2.1045034,9.55047
1587369667872,-0.06344634,2.054225,9.522937
1587369667882,-0.062249243,2.0482395,9.494206
1587369667893,-0.062249243,2.0482395,9.494206
1587369667906,-0.025139118,2.0649989,9.344569
1587369667916,-0.01436521,2.123657,9.2787285
1587369667926,0.02633622,2.2098482,9.276335
1587369667938,0.062249243,2.268506,9.295488
1587369667946,0.050278235,2.2577322,9.271546
1587369667958,0.017956512,2.2098482,9.246407
1587369667971,0.076614454,2.1811178,9.217676
1587369667981,0.11372458,2.1571758,9.19972
1587369667991,0.11372458,2.1571758,9.19972
1587369668004,0.17477672,2.208651,9.291897
1587369668014,0.16879122,2.2541409,9.331401
1587369668024,0.12569559,2.256535,9.356541
1587369668037,0.039504327,2.208651,9.344569
1587369668047,-0.06344634,2.1164744,9.343372
1587369668059,-0.20709845,2.0099323,9.269152
1587369668069,-0.130484,2.160767,9.24521
1587369668081,-0.08020575,2.3020248,9.303867
1587369668091,-0.08020575,2.3020248,9.303867
1587369668103,-0.2657564,2.160767,9.26556
1587369668113,-0.35075054,2.0015526,9.205706
1587369668125,-0.58657944,2.0685902,9.137471
1587369668135,-1.0414777,1.99437,9.968259
1587369668148,-0.9947908,2.1272483,9.791088
1587369668158,-0.9947908,2.1272483,9.791088
1587369668170,-0.7206547,2.147599,9.832987
1587369668180,-0.47644615,2.1667526,9.865308
1587369668192,-0.47644615,2.1667526,9.865308
1587369668202,-0.25498247,2.124854,9.654618
1587369668214,-0.14724341,1.9967642,9.537302
1587369668224,-0.050278235,1.9129672,9.441534
1587369668237,0.0047884034,1.8806454,9.375694
1587369668247,0.037110128,1.8818425,9.308656
1587369668256,0.034715924,1.8614918,9.307459
1587369668269,0.029927522,1.8076223,9.354146
1587369668275,0.029927522,1.8076223,9.354146
1587369668288,0.0035913025,1.7776948,9.502586
1587369668299,-0.0011971008,1.7118542,9.52174
1587369668312,0.020350715,1.7046716,9.55047
1587369668322,0.020350715,1.7046716,9.55047
1587369668332,-0.021547815,1.6795325,9.472659
1587369668344,-0.029927522,1.685518,9.514558
1587369668354,-0.03232172,1.7022774,9.475053
1587369668366,-0.110133275,1.697489,9.415198
1587369668376,-0.110133275,1.697489,9.415198
1587369668389,-0.19512744,1.6663644,9.375694
1587369668399,-0.15203181,1.6208745,9.392453
1587369668409,-0.15203181,1.6208745,9.392453
1587369668421,-0.073023155,1.590947,9.376891
1587369668432,-0.1412579,1.4209588,9.339781
1587369668442,-0.1412579,1.4209588,9.339781
1587369668454,-0.08619126,1.2497733,9.446322
1587369668464,-0.21906945,1.2653356,9.580399
1587369668476,-0.2765303,1.3347675,9.642648
1587369668487,-0.25498247,1.4736311,9.763555
1587369668497,-0.059855044,1.8423382,9.94312
1587369668509,0.08140286,2.005144,9.885659
1587369668519,0.08140286,2.005144,9.885659
1587369668531,-0.035913024,1.9069817,9.773131
1587369668542,-0.11492168,1.8315643,9.703699
1587369668552,-0.1436521,1.8076223,9.610326
1587369668564,-0.23223756,1.7956513,9.633071
1587369668574,-0.23223756,1.7956513,9.633071
1587369668586,-0.31124622,1.5957354,9.56723
1587369668596,-0.34835634,1.4891934,9.5385
1587369668607,-0.5315128,1.5849615,9.534908
1587369668618,-0.8607155,1.8543092,9.841366
1587369668630,-0.78050977,1.6531962,9.24521
1587369668639,-0.78050977,1.6531962,9.24521
1587369668650,-2.019509,1.958457,11.264719
1587369668661,-1.5478514,2.6647465,10.08318
1587369668672,-1.5478514,2.6647465,10.08318
1587369668683,-1.0462662,2.2146366,10.151415
1587369668694,-0.62967503,1.7621324,9.43076
1587369668705,-0.50637364,1.5071499,8.6334915
1587369668713,-0.79726917,1.2174516,8.499416
1587369668724,-1.6089035,1.2629414,8.652645
1587369668735,-1.5981296,1.3120226,8.549694
1587369668746,-1.6723499,1.3012487,9.779117
1587369668756,-1.5562311,1.496376,10.517728
1587369668769,-1.5023615,1.6903064,10.326192
1587369668781,-1.4951789,2.0147207,10.5045595
1587369668793,-1.541866,2.2110453,10.03769
1587369668803,-1.7705121,2.2421699,9.714474
1587369668815,-2.0171149,2.1272483,9.065644
1587369668823,-2.0171149,2.1272483,9.065644
1587369668835,-2.4193408,1.9632454,7.548918
1587369668848,-2.7365725,1.6519991,7.1167645
1587369668858,-2.694674,1.5119383,6.8091097
1587369668868,-2.694674,1.5119383,6.8091097
1587369668880,-1.8602947,0.79128367,5.3259015
1587369668890,-1.8602947,0.79128367,5.3259015
1587369668902,-1.0893618,0.49919105,6.194997
1587369668912,-1.3551182,0.20829555,16.839617
1587369668924,-1.3551182,0.20829555,16.839617
1587369668932,-1.5263035,0.6476316,9.332599
1587369668944,-1.2892777,0.6811504,7.3885064
1587369668955,-1.1875241,0.52073884,7.103596
1587369668968,-1.1432313,0.5279215,8.271967
1587369668978,-1.0462662,1.4520833,12.228385
1587369668988,-1.0462662,1.4520833,12.228385
1587369669000,-0.61650693,2.1691468,8.531737
1587369669010,-0.90141696,2.280477,7.8469963
1587369669022,-0.90141696,2.280477,7.8469963
1587369669032,-1.3922282,2.315193,6.351817
1587369669044,-1.1264719,2.0039468,4.8997335
1587369669054,-0.39624038,1.9117701,10.151415
1587369669068,0.7769185,1.3730747,11.591528
1587369669078,1.5155296,0.6428431,11.439496
1587369669087,1.5155296,0.6428431,11.439496
1587369669100,1.2378023,-0.7685388,11.960235
1587369669110,0.93014735,-1.0079589,10.820595
1587369669119,0.93014735,-1.0079589,10.820595
1587369669131,0.9636662,-1.1575965,9.707291
1587369669143,1.1851299,-1.0881647,9.803059
1587369669151,1.4329298,-0.6500258,9.506178
1587369669163,1.447295,0.24779987,9.592369
1587369669175,1.3120226,0.46567222,9.976639
1587369669185,1.151611,1.0319009,9.7479925
1587369669197,1.2018893,1.3934253,9.284714
1587369669207,1.246182,1.5275006,9.01417
1587369669219,1.5945383,1.2653356,9.032125
1587369669229,2.4492683,-0.06823475,9.111135
1587369669241,2.5330653,-0.37349546,8.540117
1587369669251,2.5330653,-0.37349546,8.540117
1587369669263,2.8203697,-0.04309563,8.341399
1587369669274,3.1842883,0.23582886,8.374918
1587369669283,3.4201171,0.35793316,8.37372
1587369669295,3.6727054,0.2801216,8.577228
1587369669308,4.486734,0.11971009,8.356961
1587369669318,4.486734,0.11971009,8.356961
1587369669328,5.768829,0.2861071,6.932411
1587369669341,7.1251445,-0.2741361,6.1303535
1587369669351,7.1251445,-0.2741361,6.1303535
1587369669361,6.7504516,-0.8714894,10.172963
1587369669373,4.8722005,0.6919243,10.225636
1587369669383,6.8318543,2.6659436,9.38168
1587369669395,7.374141,2.5067291,8.457518
1587369669406,7.374141,2.5067291,8.457518
1587369669416,7.1849995,1.0690111,7.4016747
1587369669429,6.7851677,-0.18315643,6.4978633
1587369669440,6.7851677,-0.18315643,6.4978633
1587369669450,6.0860605,-1.2557588,6.682217
1587369669459,5.007473,-2.2864625,6.420052
1587369669471,5.007473,-2.2864625,6.420052
1587369669479,4.721366,-1.067814,6.9467764
1587369669492,4.8973393,-0.4201824,6.8103065
1587369669502,4.8973393,-0.4201824,6.8103065
1587369669514,5.374983,-0.11611878,6.081272
1587369669524,5.627571,-0.89064306,5.8083334
1587369669535,5.777209,-1.6927006,5.711368
1587369669548,5.7855883,-2.2768857,5.5737014
1587369669558,5.827487,-3.1280246,5.5485625
1587369669568,5.827487,-3.1280246,5.5485625
1587369669580,5.9424086,-2.3690627,5.8215013
1587369669588,5.9424086,-2.3690627,5.8215013
1587369669600,5.9543796,-1.7848774,6.0956373
1587369669612,6.31351,-1.3227965,6.4858923
1587369669622,6.31351,-1.3227965,6.4858923
1587369669633,6.573281,-2.0721815,6.7001734
1587369669646,6.339846,-2.7605145,6.7241154
1587369669656,6.2740054,-2.9759927,6.8869214
1587369669667,6.4787097,-2.7126305,7.3322425
1587369669676,6.6870055,-2.408567,7.687782
1587369669687,6.930017,-2.3343468,8.032547
1587369669696,6.930017,-2.3343468,8.032547
1587369669708,7.243657,-2.385822,8.3868885
1587369669719,7.5225816,-2.1990743,8.6299
1587369669730,7.905654,-2.0721815,8.743625
1587369669740,8.087613,-2.066196,8.792706
1587369669751,8.087613,-2.066196,8.792706
1587369669762,8.180987,-1.6196774,9.045294
1587369669773,8.081628,-1.2725182,9.143456
1587369669784,7.9391727,-1.1288661,9.314642
1587369669795,7.8170686,-1.258153,9.260772
1587369669804,7.7093296,-1.5478514,8.996213
1587369669816,7.517793,-1.8423382,8.64666
1587369669828,7.0569096,-2.4827871,7.5644803
1587369669838,6.9647326,-2.6850972,7.5668745
1587369669850,6.9647326,-2.6850972,7.5668745
1587369669861,7.291541,-2.327164,7.9427643
1587369669872,7.321469,-2.0638018,8.303091
1587369669882,7.275979,-2.0135236,8.397662
1587369669894,7.1993647,-2.2828712,8.159439
1587369669904,7.1993647,-2.2828712,8.159439
1587369669916,7.019799,-3.0023289,7.429208
1587369669926,7.0545154,-3.1435869,7.1287355
1587369669939,7.1083846,-3.1028855,6.6283474
1587369669949,7.1083846,-3.1028855,6.6283474
1587369669959,7.2604165,-3.5936968,6.6510925
1587369669971,7.2604165,-3.5936968,6.6510925
1587369669981,7.038953,-3.7098155,6.373365
1587369669993,6.955156,-3.9085343,6.220136
1587369670004,6.955156,-3.9085343,6.220136
1587369670014,6.685808,-4.2664676,5.795165
1587369670026,6.6415157,-4.5082817,5.485116
1587369670036,6.7839704,-4.3239284,5.080496
1587369670049,7.571663,-4.009091,4.3263226
1587369670059,6.789956,-6.0681043,3.321955
1587369670069,6.789956,-6.0681043,3.321955
1587369670081,6.7253127,-4.911705,2.9987376
1587369670091,7.21373,-4.1264067,2.9759927
1587369670103,7.21373,-4.1264067,2.9759927
1587369670113,8.455123,-3.5757403,3.527856
1587369670125,8.763975,-3.8414967,3.4488475
1587369670134,9.084799,-4.1156325,3.4632127
1587369670146,9.336189,-4.155137,3.4009635
1587369670156,9.4774475,-3.8486793,3.1376014
1587369670168,9.508572,-3.776853,3.1136594
1587369670178,9.050082,-3.5553896,3.8235402
1587369670190,8.740033,-3.4440591,3.6008794
1587369670200,8.740033,-3.4440591,3.6008794
1587369670212,9.149442,-3.6595373,3.2465374
1587369670222,9.036914,-3.4847605,2.8622682
1587369670234,8.967483,-3.0561984,2.4971523
1587369670242,9.096769,-2.6192567,2.2002714
1587369670254,9.107543,-2.349909,1.7860745
1587369670265,8.661025,-2.658761,1.3395559
1587369670278,8.222886,-3.2501287,1.2497733
1587369670288,7.9068513,-3.1483753,1.2210429
1587369670298,7.9068513,-3.1483753,1.2210429
1587369670310,7.0126166,-3.4883518,1.0055647
1587369670320,6.6510925,-3.1675289,0.8870517
1587369670332,6.6510925,-3.1675289,0.8870517
1587369670342,7.699753,-4.2999864,-0.5638345
1587369670354,8.568848,-4.10845,-1.1324574
1587369670364,9.1829605,-4.179079,-0.5255273
1587369670376,9.368511,-4.1216183,-0.23942018
1587369670386,9.368511,-4.1216183,-0.23942018
1587369670398,9.296685,-3.5637693,0.03232172
1587369670408,9.115923,-5.1367598,1.2856863
1587369670422,8.300697,-4.8027687,0.1316811
1587369670432,8.300697,-4.8027687,0.1316811
1587369670442,9.634268,-7.252037,-0.010773907
1587369670452,9.634268,-7.252037,-0.010773907
1587369670464,11.380837,-8.744822,-0.079008654
1587369670474,11.131841,-8.258799,0.9552865
1587369670486,8.662222,-7.2747817,2.9520507
1587369670496,7.9367785,-6.3781533,3.2860417
1587369670508,8.771158,-5.6826377,1.2198458
1587369670518,9.890448,-6.4344172,-0.17118542
1587369670530,9.890448,-6.4344172,-0.17118542
1587369670541,8.175002,-4.6902413,2.858677
1587369670551,8.175002,-4.6902413,2.858677
1587369670563,9.510966,-5.8909335,-2.882619
1587369670571,9.28232,-7.4375877,-1.5837644
1587369670583,9.28232,-7.4375877,-1.5837644
1587369670595,8.440758,-4.7417164,-1.3850456
1587369670605,8.197746,-4.572925,-1.174356
1587369670617,8.288726,-5.559336,0.5590461
1587369670627,7.920019,-5.81791,0.9888053
1587369670639,8.409634,-6.5218053,0.81761986
1587369670649,8.409634,-6.5218053,0.81761986
1587369670662,7.551312,-6.362591,0.37948096
1587369670672,6.8342485,-5.949591,0.2669535
1587369670683,6.8342485,-5.949591,0.2669535
1587369670695,5.647922,-5.511452,0.32800564
1587369670706,4.841076,-5.6084175,-0.2789245
1587369670716,4.4807487,-7.551312,0.31483752
1587369670729,4.5178585,-7.599196,-0.108936176
1587369670739,5.106832,-6.6846113,1.009156
1587369670748,5.106832,-6.6846113,1.009156
1587369670760,5.7760115,-6.2105594,0.8846575
1587369670771,5.9531827,-6.3063273,0.33997664
1587369670783,5.9531827,-6.3063273,0.33997664
1587369670790,6.9048777,-7.013814,-0.35793316
1587369670800,7.351396,-6.9970546,-0.6607997
1587369670811,7.630321,-7.0090256,-1.0833763
1587369670822,7.9248075,-6.9838862,-0.8595184
1587369670833,8.106767,-6.927623,-0.32441434
1587369670845,8.655039,-5.866991,-0.37349546
1587369670857,9.822212,-5.3618145,-0.61171854
1587369670870,8.528147,-5.875371,-0.18195933
1587369670880,8.528147,-5.875371,-0.18195933
1587369670892,7.9212165,-5.0876784,-0.11731588
1587369670901,7.9212165,-5.0876784,-0.11731588
1587369670913,7.8529816,-6.0202203,0.7206547
1587369670923,7.6123643,-6.1566896,0.5518635
1587369670935,7.3669586,-5.258864,0.49200845
1587369670944,7.1790137,-4.997896,-0.37948096
1587369670956,7.15986,-5.067328,-0.22744916
1587369670968,6.8402343,-5.6886234,-0.8559271
1587369670978,6.8402343,-5.6886234,-0.8559271
1587369670990,6.5816603,-4.8937483,0.34835634
1587369671000,6.5816603,-4.8937483,0.34835634
1587369671013,7.321469,-6.805518,0.60333884
1587369671023,7.571663,-8.104373,0.8463503
1587369671033,7.571663,-8.104373,0.8463503
1587369671045,7.2304893,-9.578004,2.2146366
1587369671055,6.919243,-9.68694,2.348712
1587369671067,6.4248405,-8.931569,1.8650831
1587369671077,6.281188,-7.4387846,1.0630256
1587369671089,5.3259015,-5.3354783,0.997185
1587369671099,5.3259015,-5.3354783,0.997185
1587369671111,5.021838,-7.123947,1.5658079
1587369671119,5.209783,-8.026561,1.1444284
1587369671131,5.209783,-8.026561,1.1444284
1587369671143,4.960786,-8.137892,-1.1180922
1587369671153,5.6156,-8.4587145,-0.49200845
1587369671165,5.1439424,-9.091981,-0.50876784
1587369671175,4.631583,-9.667787,-1.1971009
1587369671187,4.547786,-9.885659,-0.59615624
1587369671197,4.8901567,-9.931149,1.6687586
1587369671209,3.2812533,-8.887277,0.6739678
1587369671219,3.086126,-8.418014,0.32800564
1587369671231,3.086126,-8.418014,0.32800564
1587369671241,3.6475663,-8.585608,-0.89543146
1587369671253,3.3782187,-8.911219,-0.34596214
1587369671263,3.0346506,-8.453926,0.2825158
1587369671275,1.6232687,-6.6295447,-1.0618285
1587369671285,0.31244332,-6.658275,-1.697489
1587369671297,-0.11851298,-7.111976,-1.1384429
1587369671308,-0.23223756,-9.203311,0.6871359
1587369671318,0.130484,-10.155006,-0.37948096
1587369671329,0.130484,-10.155006,-0.37948096
1587369671338,0.8439561,-14.197616,-0.19153613
1587369671349,1.8171991,-14.875175,0.6536171
1587369671360,1.555034,-13.22557,0.35793316
1587369671371,0.34715924,-9.489418,0.2801216
1587369671383,0.34715924,-9.489418,0.2801216
1587369671395,-1.0929531,-8.820239,-0.17357962
1587369671405,-0.9911995,-9.385271,-0.2813187
1587369671417,-1.0630256,-9.3661175,-0.1412579
1587369671427,-1.0378864,-9.673772,-0.32441434
1587369671440,-0.736217,-10.62427,-0.35194764
1587369671447,-0.80924016,-10.38485,-0.5542577
1587369671458,-0.80924016,-10.38485,-0.5542577
1587369671469,-0.36272156,-10.553641,-0.7505822
1587369671480,-0.17118542,-10.235212,-1.8555063
1587369671492,-1.0714053,-10.785878,-0.7086837
1587369671503,-1.4652514,-11.009736,0.23702596
1587369671514,-1.4257472,-11.499351,-0.37588966
1587369671525,-1.3730747,-11.449073,-0.62368953
1587369671536,-1.757344,-10.854114,-0.47524905
1587369671547,-2.1057005,-10.83496,-0.6368576
1587369671557,-2.1057005,-10.83496,-0.6368576
1587369671569,-1.8962077,-9.630676,-0.33279404
1587369671579,-1.8962077,-9.630676,-0.33279404
1587369671591,-1.7489643,-11.056423,-0.35553896
1587369671619,-2.079364,-10.989386,-0.41299978
1587369671626,-2.079364,-10.989386,-0.41299978
1587369671635,-1.7860745,-10.5285015,-0.41060558
1587369671643,0.48482585,-9.508572,0.03232172
1587369671652,1.4305356,-8.08881,-0.050278235
1587369671661,1.4305356,-8.08881,-0.050278235
1587369671675,0.15682021,-9.161413,0.21906945
1587369671685,-0.016759412,-9.570822,-0.25139117
1587369671693,-0.11492168,-10.006566,-0.47046062
1587369671704,0.47644615,-9.622296,-0.23343466
1587369671715,0.05865794,-10.104729,-0.33518824
1587369671726,0.82480246,-10.004171,0.20709845
1587369671737,1.3239936,-9.497798,0.59974754
1587369671748,0.38307226,-10.230424,0.046686932
1587369671758,0.38307226,-10.230424,0.046686932
1587369671769,-0.34835634,-10.049662,-0.7350199
1587369671778,-0.34835634,-10.049662,-0.7350199
1587369671789,-0.770933,-9.847352,-0.47046062
1587369671800,-0.82001406,-9.765948,-0.5542577
1587369671811,-0.82001406,-9.765948,-0.5542577
1587369671821,-1.2737153,-9.797073,-0.7074866
1587369671832,-1.411382,-9.781511,-0.7038953
1587369671843,-1.5011644,-9.91798,-0.7745243
1587369671854,-1.4808137,-9.981427,-0.8319851
1587369671864,-1.4305356,-10.043676,-0.82599956
1587369671875,-1.353921,-10.032902,-0.81283146
1587369671884,-1.1959038,-10.03769,-0.8523358
1587369671894,-1.0067618,-9.894038,-0.78170687
1587369671906,-0.91099375,-9.89763,-0.81881696
1587369671918,-0.7350199,-9.967062,-0.664391
1587369671929,-0.7350199,-9.967062,-0.664391
1587369671941,-0.60932434,-10.06283,-0.5793968
1587369671951,-0.5434838,-10.03769,-0.5710171
1587369671963,-0.5434838,-10.03769,-0.5710171
1587369671973,-0.37948096,-9.959879,-0.50876784
1587369671984,-0.2693477,-9.898827,-0.4189853
1587369671994,-0.19033903,-9.907207,-0.30406362
1587369672007,-0.110133275,-9.956287,-0.19752164
1587369672017,-0.027533319,-10.006566,-0.11971009
1587369672027,0.05626374,-10.022128,-0.06584055
1587369672039,0.22026655,-10.013748,-0.053869538
1587369672049,0.20350714,-10.000581,-0.047884032
1587369672061,0.20350714,-10.000581,-0.047884032
1587369672072,0.077811554,-9.911995,-0.06464344
1587369672082,-0.025139118,-9.82341,-0.1328782
1587369672093,-0.15562311,-9.7863,-0.23223756
1587369672104,-0.32800564,-9.76954,-0.32441434
1587369672115,-0.50278234,-9.810242,-0.3866636
1587369672125,-0.6919243,-9.8198185,-0.40222588
1587369672137,-0.8846575,-9.801862,-0.41299978
1587369672148,-1.0271125,-9.8198185,-0.45010993
1587369672157,-1.1504139,-9.812635,-0.50996494
1587369672169,-1.3024458,-9.646238,-0.5650316
1587369672182,-1.3263878,-9.647436,-0.5434838
1587369672192,-1.316811,-9.703699,-0.5255273
1587369672202,-1.2916719,-9.725247,-0.52073884
1587369672214,-1.2425907,-9.7240505,-0.58538234
1587369672224,-1.1887212,-9.7240505,-0.6512229
1587369672236,-1.127669,-9.82341,-0.7386112
1587369672246,-1.1587936,-9.927557,-0.7625532
1587369672258,-1.1671734,-9.813833,-0.6871359
1587369672268,-0.9672575,-9.52174,-0.533907
1587369672280,-0.8690952,-9.539697,-0.5638345
1587369672290,-0.81163436,-9.637859,-0.5518635
1587369672301,-0.7637503,-9.750386,-0.51595044
1587369672314,-0.6775591,-9.829395,-0.50517654
1587369672320,-0.60333884,-9.911995,-0.48123455
1587369672332,-0.5267244,-9.986216,-0.49559975
1587369672344,-0.5267244,-9.986216,-0.49559975
1587369672356,-0.56982,-10.132261,-0.59974754
1587369672365,-0.61650693,-10.129868,-0.47764325
1587369672376,-0.60333884,-10.031705,-0.47764325
1587369672388,-0.60094464,-10.001778,-0.34237084
1587369672399,-0.5518635,-10.010158,-0.30406362
1587369672410,-0.5518635,-10.010158,-0.30406362
1587369672422,-0.44771573,-9.973047,-0.24899697
1587369672429,-0.40462008,-9.980229,-0.25498247
1587369672442,-0.39145198,-10.032902,-0.31244332
1587369672453,-0.40342298,-10.016143,-0.3196259
1587369672464,-0.46567222,-9.968259,-0.31483752
1587369672475,-0.5386954,-9.932345,-0.33039984
1587369672487,-0.61052144,-10.089166,-0.30645782
1587369672496,-0.6596026,-9.781511,-0.47644615
1587369672508,-0.6979098,-9.827001,-0.45489833
1587369672520,-0.80924016,-9.927557,-0.4285621
1587369672530,-0.8810662,-9.938332,-0.427365
1587369672542,-0.8810662,-9.938332,-0.427365
1587369672552,-0.94690675,-9.868899,-0.47644615
1587369672564,-0.93373865,-9.8198185,-0.6572084
1587369672574,-0.93613285,-9.885659,-0.7493851
1587369672586,-1.0283096,-9.908403,-0.78769237
1587369672596,-1.1324574,-9.92636,-0.7661445
1587369672609,-1.2174516,-9.913192,-0.6835446
1587369672619,-1.163582,-9.800665,-0.6380547
1587369672629,-1.0630256,-9.80665,-0.46447513
1587369672641,-1.0630256,-9.80665,-0.46447513
1587369672649,-0.8774749,-9.688137,-0.46447513
1587369672661,-0.8774749,-9.688137,-0.46447513
1587369672673,-0.91578215,-10.086772,-0.35434186
1587369672683,-1.0259154,-10.000581,-0.2621651
1587369672695,-1.0259154,-10.000581,-0.2621651
1587369672704,-0.82240826,-9.654618,-0.521936
1587369672716,-0.8379706,-9.61272,-0.5566519
1587369672728,-0.89064306,-9.634268,-0.47764325
1587369672738,-0.89064306,-9.634268,-0.47764325
1587369672750,-1.0342951,-9.80665,-0.7541735
1587369672759,-1.0342951,-9.80665,-0.7541735
1587369672771,-1.0893618,-10.085575,-0.6368576
1587369672781,-0.842759,-10.31901,-0.415394
1587369672793,-0.842759,-10.31901,-0.415394
1587369672803,-0.34356794,-9.673772,-0.60693014
1587369672814,-0.1604115,-9.680955,-0.70509243
1587369672826,-0.076614454,-9.710882,-0.80924016
1587369672835,-0.09696517,-9.618706,-0.82480246
1587369672846,-0.2789245,-9.734824,-0.7338228
1587369672857,-0.4321534,-10.059238,-0.6859388
1587369672866,-0.427365,-10.295067,-0.6787562
1587369672877,-0.4345476,-10.41358,-0.6655881
1587369672888,-0.3866636,-10.380061,-0.61890113
1587369672899,-0.29688102,-10.0029745,-0.6428431
1587369672910,-0.29688102,-10.0029745,-0.6428431
1587369672922,-0.19512744,-9.67018,-1.0175357
1587369672934,-0.31244332,-9.537302,-1.055843
1587369672944,-0.31244332,-9.537302,-1.055843
1587369672956,-0.45010993,-9.617508,-0.9947908
1587369672966,-0.46926352,-9.77792,-0.92535895
1587369672979,-0.4297592,-9.9790325,-0.89543146
1587369672989,-0.4297592,-9.9790325,-0.89543146
1587369672998,-0.28491,-9.7958765,-1.1911154
1587369673010,-0.28491,-9.7958765,-1.1911154
1587369673022,-0.14844051,-9.566033,-1.3108255
1587369673032,-0.12569559,-9.763555,-1.2593501
1587369673044,-0.12569559,-9.763555,-1.2593501
1587369673054,-0.089782566,-9.8042555,-1.1719618
1587369673066,-0.09816227,-10.001778,-1.0283096
1587369673076,-0.04189853,-10.084377,-0.92296475
1587369673088,-0.031124622,-10.077195,-0.89184016
1587369673098,0.10175357,-10.007763,-1.0199299
1587369673110,0.10175357,-10.007763,-1.0199299
1587369673120,0.21188685,-9.895236,-1.1815386
1587369673132,0.22026655,-9.876082,-1.2892777
1587369673141,0.22026655,-9.876082,-1.2892777
1587369673153,0.05626374,-9.961076,-1.2294226
1587369673165,0.025139118,-9.988609,-1.1827357
1587369673175,0.04070143,-10.032902,-1.1575965
1587369673188,0.005985504,-10.073604,-1.1827357
1587369673193,0.005985504,-10.073604,-1.1827357
1587369673207,-0.23463176,-10.128671,-1.0989386
1587369673219,-0.2777274,-10.0748005,-0.9708488
1587369673229,-0.22984336,-10.000581,-0.93972415
1587369673241,-0.22984336,-10.000581,-0.93972415
1587369673251,-0.20590134,-9.992201,-1.0905589
1587369673263,-0.22744916,-9.9550905,-1.1563994
1587369673273,-0.25258827,-9.91798,-1.1791444
1587369673285,-0.29328972,-9.82341,-1.1923125
1587369673295,-0.3172317,-9.719262,-1.2138603
1587369673307,-0.36032736,-9.637859,-1.2593501
1587369673318,-0.44532153,-9.689334,-1.1767502
1587369673328,-0.47165772,-9.812635,-1.1049241
1587369673340,-0.47165772,-9.812635,-1.1049241
1587369673351,-0.59376204,-9.782708,-0.92775315
1587369673361,-0.61890113,-9.85214,-0.9660604
1587369673373,-0.61890113,-9.85214,-0.9660604
1587369673383,-0.7182605,-9.894038,-0.94451255
1587369673395,-0.7457938,-9.886856,-0.8415619
1587369673404,-0.7158663,-9.903615,-0.7517793
1587369673418,-0.5566519,-9.947908,-0.7469909
1587369673428,-0.50517654,-9.886856,-0.7721301
1587369673438,-0.50517654,-9.886856,-0.7721301
1587369673450,-0.50038815,-9.664195,-0.7637503
1587369673460,-0.49919105,-9.510966,-0.724246
1587369673472,-0.49919105,-9.510966,-0.724246
1587369673482,-0.5351041,-9.613917,-0.736217
1587369673494,-0.59615624,-9.7563715,-0.7062895
1587369673504,-0.688333,-9.890448,-0.60453594
1587369673516,-0.7589619,-10.02572,-0.39743748
1587369673524,-0.7589619,-10.02572,-0.39743748
1587369673536,-0.8726865,-10.1621895,-0.06344634
1587369673548,-1.0163386,-10.229227,0.14844051
1587369673559,-1.0163386,-10.229227,0.14844051
1587369673569,-1.1145009,-10.159795,0.2789245
1587369673581,-1.3455414,-9.986216,0.20350714
1587369673591,-1.3455414,-9.986216,0.20350714
1587369673603,-1.4161704,-10.041282,0.34476504
1587369673613,-1.4173675,-10.02572,0.39743748
1587369673624,-1.4173675,-10.02572,0.39743748
1587369673634,-1.5155296,-10.123882,0.5805939
1587369673646,-1.5059528,-9.803059,0.33399114
1587369673657,-1.3192052,-9.876082,0.17836803
1587369673667,-1.1240777,-9.935937,0.05267244
1587369673679,-0.9983821,-9.713276,-0.10654198
1587369673689,-0.9983821,-9.713276,-0.10654198
1587369673701,-1.0486604,-9.202114,-0.5446809
1587369673713,-1.1228806,-9.160215,-0.7266402
1587369673723,-1.1228806,-9.160215,-0.7266402
1587369673733,-1.0989386,-9.248801,-0.6787562
1587369673745,-1.0690111,-9.3661175,-0.56982
1587369673755,-1.0570401,-9.434352,-0.545878
1587369673767,-1.0546459,-9.510966,-0.5518635
1587369673777,-1.0390835,-9.629479,-0.59855044
1587369673789,-1.0749966,-9.710882,-0.664391
1587369673799,-1.1288661,-9.391256,-0.49320555
1587369673811,-1.0881647,-9.4295635,-0.58897364
1587369673821,-1.0881647,-9.4295635,-0.58897364
1587369673834,-0.9876082,-9.552865,-0.79008657
1587369673844,-0.9648633,-9.647436,-0.79607207
1587369673856,-0.85473,-9.742006,-0.78769237
1587369673866,-0.65242,-9.737218,-0.7374141
1587369673877,-0.21428105,-9.923966,-0.641646
1587369673888,-0.21428105,-9.923966,-0.641646
1587369673900,-0.015562311,-10.06283,-0.6955156
1587369673909,-0.11133038,-10.1861315,-0.59735334
1587369673920,-0.11133038,-10.1861315,-0.59735334
1587369673931,-0.1316811,-10.159795,-0.7517793
1587369673942,0.0023942017,-10.041282,-0.9828198
1587369673953,0.16400282,-9.876082,-1.3060371
1587369673961,0.31244332,-9.77792,-1.5251064
1587369673972,0.39264908,-9.776723,-1.4664485
1587369673984,0.2777274,-9.822212,-1.3994108
1587369673996,0.11971009,-9.865308,-1.1228806
1587369674009,-0.04309563,-9.982624,-0.7673417
1587369674018,-0.04309563,-9.982624,-0.7673417
1587369674030,0.22266077,-9.811439,-0.7146692
1587369674040,0.22266077,-9.811439,-0.7146692
1587369674052,0.34596214,-9.8916445,-0.8702923
1587369674062,0.35913026,-10.043676,-1.0031705
1587369674074,0.37828386,-10.067618,-0.9876082
1587369674084,0.5542577,-10.134656,-0.973243
1587369674096,0.8451532,-10.152613,-0.82240826
1587369674106,1.2174516,-10.032902,-0.60573304
1587369674119,1.5167267,-9.809045,-0.30166942
1587369674129,2.1045034,-9.464279,-0.020350715
1587369674138,2.1045034,-9.464279,-0.020350715
1587369674150,2.0171149,-9.374496,-0.079008654
1587369674162,1.6795325,-9.39365,-0.053869538
1587369674172,1.6795325,-9.39365,-0.053869538
1587369674184,0.90261406,-9.352949,-0.05626374
1587369674194,0.6452374,-9.396045,-0.2657564
1587369674206,0.48482585,-9.421184,-0.59376204
1587369674217,0.29688102,-9.43914,-0.78410107
1587369674227,-0.01436521,-9.425972,-0.8379706
1587369674239,-0.23822308,-9.428367,-0.79487497
1587369674249,-0.29328972,-9.187749,-0.94092125
1587369674260,-0.18794483,-9.126697,-1.0414777
1587369674272,-0.18794483,-9.126697,-1.0414777
1587369674282,-0.19752164,-9.300277,-0.9780314
1587369674294,-0.23343466,-9.496601,-0.82121116
1587369674304,-0.1592144,-9.700109,-0.6919243
1587369674316,0.08499416,-9.859323,-0.6871359
1587369674326,0.30406362,-10.024523,-0.79607207
1587369674338,0.41060558,-10.140641,-1.0127473
1587369674348,0.47524905,-10.044873,-1.2042835
1587369674360,0.48243165,-9.841366,-1.1252748
1587369674370,0.48243165,-9.841366,-1.1252748
1587369674383,0.48362875,-9.847352,-1.0319009
1587369674392,0.49200845,-10.158598,-1.0869676
1587369674406,0.48003745,-10.599131,-1.1240777
1587369674416,0.50876784,-11.1174755,-1.0726024
1587369674426,0.6476316,-11.638214,-1.1001357
1587369674438,0.8559271,-11.924321,-1.0534488
1587369674448,1.0773908,-11.908759,-1.0223241
1587369674460,1.8986019,-11.46224,-0.7398083
1587369674470,1.8986019,-11.46224,-0.7398083
1587369674483,2.3187842,-11.680113,-0.19153613
1587369674493,2.3834279,-11.830948,0.077811554
1587369674502,2.3834279,-11.830948,0.077811554
1587369674516,2.5067291,-11.6825075,0.7230489
1587369674527,2.5689783,-11.402386,0.8583213
1587369674537,2.694674,-11.220427,0.8822633
1587369674547,2.7736826,-10.971429,0.90021986
1587369674559,3.2800562,-10.892421,1.436521
1587369674569,3.2800562,-10.892421,1.436521
1587369674581,3.1519666,-11.402386,-0.5231331
1587369674591,2.2026656,-11.419145,-1.2653356
1587369674603,2.2026656,-11.419145,-1.2653356
1587369674613,-0.6871359,-12.735956,-1.5406688
1587369674626,-1.8698715,-13.706804,-1.7262194
1587369674635,-2.1751323,-13.907918,-2.292448
1587369674648,-2.0147207,-13.352463,-2.7832594
1587369674658,-2.409764,-12.887988,-2.1140802
1587369674668,-2.409764,-12.887988,-2.1140802
1587369674679,-3.2333694,-12.917915,0.47644615
1587369674691,-3.2261868,-13.498509,1.4460979
1587369674701,-3.2261868,-13.498509,1.4460979
1587369674713,-2.5617957,-13.613431,2.4588451
1587369674723,-1.9883845,-12.963405,2.3558946
1587369674735,-1.42455,-12.163742,2.135628
1587369674746,-1.2689269,-11.86327,0.79607207
1587369674756,-1.1839328,-11.81778,-0.5494693
1587369674769,-1.0163386,-11.821371,-0.93972415
1587369674779,-0.35553896,-11.942278,-2.4624364
1587369674788,0.30645782,-11.481394,-1.555034
1587369674800,0.30645782,-11.481394,-1.555034
1587369674812,1.6232687,-10.2735195,-0.79846627
1587369674822,1.2294226,-8.86932,0.12689269
1587369674834,0.6619968,-8.607155,0.29448682
1587369674842,0.39384618,-7.7943234,0.4261679
1587369674854,0.39384618,-7.7943234,0.4261679
1587369674865,-0.38307226,-6.8641763,0.6452374
1587369674877,-0.6679823,-6.7719994,0.34715924
1587369674886,-0.8655039,-6.6247563,0.39743748
1587369674898,-1.0103531,-6.4511766,0.4165911
1587369674909,-1.2629414,-6.0010667,0.4177882
1587369674920,-1.5035586,-5.6431336,0.49081135
1587369674931,-1.5825673,-5.41329,0.81283146
1587369674943,-1.4939818,-5.3486466,0.88944596
1587369674949,-1.4939818,-5.3486466,0.88944596
1587369674962,-1.0103531,-5.175067,1.4652514
1587369674973,-0.6811504,-5.1080294,1.8590976
1587369674984,-0.45370123,-5.103241,2.2290018
1587369674995,-0.23223756,-4.996699,2.3355439
1587369675006,-0.04309563,-4.996699,2.3307555
1587369675018,-0.044292733,-4.8901567,2.3953989
1587369675030,-0.17238252,-4.772841,2.742558
1587369675040,0.047884032,-4.829105,3.180697
1587369675051,0.047884032,-4.829105,3.180697
1587369675062,1.0163386,-5.422867,4.175488
1587369675072,1.5334862,-5.8574142,4.344279
1587369675084,2.066196,-6.6067996,4.4220905
1587369675094,2.0578163,-8.049306,4.571728
1587369675106,2.1523874,-9.639056,5.3007627
1587369675117,0.50038815,-11.493365,9.690532
1587369675129,0.41299978,-13.757083,11.997345
1587369675139,2.8574798,-13.193249,9.697714
1587369675148,2.8574798,-13.193249,9.697714
1587369675160,2.9640217,-11.510124,6.7648168
1587369675168,2.9640217,-11.510124,6.7648168
1587369675180,0.30286652,-9.149442,5.6910176
1587369675193,-0.21188685,-7.3968863,5.5018754
1587369675202,-0.21188685,-7.3968863,5.5018754
1587369675214,-0.5781997,-4.344279,7.2233067
1587369675224,-1.2294226,-3.478775,8.632295
1587369675236,-2.6850972,-4.3418846,8.693346
1587369675246,-3.6415808,-7.3442135,6.10282
1587369675258,-9.288305,-18.404228,2.859874
1587369675268,-9.288305,-18.404228,2.859874
1587369675280,-7.9367785,-27.18975,0.15801731
1587369675290,-2.9700072,-30.791828,-0.88944596
1587369675302,-2.9700072,-30.791828,-0.88944596
1587369675312,-2.7234044,-0.3172317,-5.451597
1587369675324,-8.789114,5.6586957,-4.0186677
1587369675334,-6.766014,1.3623008,0.62009823
1587369675346,-0.7422025,-5.009867,0.08738836
1587369675356,2.0721815,-10.433931,-1.2856863
1587369675369,2.303222,-13.588292,-1.7082629
1587369675378,3.4703953,-17.158047,1.1827357
1587369675392,5.395334,-16.005238,1.1252748
1587369675402,5.395334,-16.005238,1.1252748
1587369675412,6.6103907,-10.477027,0.21428105
1587369675424,5.234922,-8.098388,1.4700398
1587369675434,3.845088,-6.955156,2.327164
1587369675446,2.7090392,-6.5924344,2.1631613
1587369675456,2.3439236,-6.9108634,1.271321
1587369675468,2.5582044,-7.78355,-0.34117374
1587369675478,3.028665,-8.4587145,-1.2389994
1587369675490,1.9955671,-8.611943,-0.9888053
1587369675498,1.9955671,-8.611943,-0.9888053
1587369675509,0.11133038,-8.552089,-0.8858546
1587369675522,-0.62249243,-8.408437,-0.82599956
1587369675532,-0.62249243,-8.408437,-0.82599956
1587369675544,-1.2306197,-8.631097,-1.0163386
1587369675554,-1.0414777,-9.2308445,-1.0965444
1587369675566,-0.59495914,-9.68694,-0.7457938
1587369675576,-0.25737667,-9.435549,-1.0307038
1587369675589,0.6859388,-8.809465,-0.973243
1587369675598,0.6859388,-8.809465,-0.973243
1587369675612,1.7010803,-8.48984,-1.1145009
1587369675622,2.1631613,-8.3629465,-0.9900024
1587369675632,2.1631613,-8.3629465,-0.9900024
1587369675644,1.9357121,-9.181764,0.05746084
1587369675654,1.2689269,-9.646238,0.34835634
1587369675666,0.985214,-9.809045,-0.031124622
1587369675677,1.1994951,-9.775525,-0.60812724
1587369675687,1.4449008,-9.79827,-0.9564836
1587369675699,1.5035586,-9.998186,-0.8750807
1587369675709,1.0342951,-10.455479,-0.33399114
1587369675736,0.6404489,-10.741586,-0.025139118
1587369675747,-0.11133038,-11.732785,0.2873042
1587369675759,0.039504327,-12.172121,-0.32561144
1587369675772,1.2677298,-11.473015,0.045489833
1587369675775,1.2677298,-11.473015,0.045489833
1587369675783,2.1619642,-11.112687,0.046686932
1587369675790,3.0969,-11.013328,-0.005985504
1587369675799,3.0969,-11.013328,-0.005985504
1587369675807,4.2784386,-11.27669,0.093373865
1587369675819,4.1252093,-11.523293,0.47285482
1587369675826,4.1252093,-11.523293,0.47285482
1587369675838,3.5757403,-11.818976,1.3012487
1587369675850,3.5757403,-11.818976,1.3012487
1587369675862,3.9863458,-11.99495,0.51116204
1587369675872,3.9671922,-12.036849,0.12928689
1587369675884,3.9671922,-12.036849,0.12928689
1587369675894,4.501099,-12.346898,-1.8219875
1587369675906,4.2796354,-12.7730665,-2.348712
1587369675916,2.6623523,-13.461399,-2.219425
1587369675929,0.7350199,-14.723144,-1.6017209
1587369675934,0.7350199,-14.723144,-1.6017209
1587369675948,-3.3686419,-16.269798,-2.9460652
1587369675960,-7.491457,-14.700398,-4.0019083
1587369675971,-8.180987,-15.167268,-3.570952
1587369675981,-8.180987,-15.167268,-3.570952
1587369675992,-5.54138,-16.583439,-0.7062895
1587369676003,-4.0677485,-14.80694,0.9935937
1587369676014,-2.7210102,-13.713987,2.5151088
1587369676025,-1.7190368,-12.741941,3.632004
1587369676036,-0.9947908,-12.24275,3.0621839
1587369676045,-0.48123455,-12.206838,0.6847417
1587369676056,0.34835634,-12.601881,-0.8702923
1587369676067,1.2641385,-12.677298,-1.8435353
1587369676078,2.1763294,-12.451046,-2.4779987
1587369676089,1.282095,-9.8437605,-2.2146366
1587369676100,0.1436521,-8.186973,-1.6124948
1587369676111,0.045489833,-7.0485296,0.6548142
1587369676124,-0.6596026,-6.715736,0.092176765
1587369676134,-0.6596026,-6.715736,0.092176765
1587369676146,-0.50996494,-5.153519,0.81761986
1587369676154,-0.58538234,-4.88058,0.28491
1587369676166,-0.842759,-3.8235402,0.5482722
1587369676178,-1.1540052,-2.9640217,0.7158663
1587369676188,-1.4891934,-2.4732103,0.37349546
1587369676199,-1.4891934,-2.4732103,0.37349546
1587369676211,-1.459266,-2.6312277,0.18674773
1587369676222,-1.3790601,-2.6168625,0.37469256
1587369676232,-1.3790601,-2.6168625,0.37469256
1587369676244,-0.90740246,-2.9712043,0.9804256
1587369676254,-0.61650693,-3.309984,1.4317327
1587369676266,-0.18555063,-3.8714242,1.8674773
1587369676276,-0.15322891,-3.976769,3.028665
1587369676288,0.48841715,-4.784812,4.545392
1587369676298,0.48841715,-4.784812,4.545392
1587369676310,1.2246342,-6.4128695,4.4783545
1587369676320,1.3335704,-7.3609734,4.4017396
1587369676332,1.3335704,-7.3609734,4.4017396
1587369676342,0.11492168,-10.102334,5.8095303
1587369676354,-0.94092125,-11.626244,7.5764513
1587369676364,-1.5562311,-13.237541,10.506954
1587369676376,0.38187516,-14.301764,12.89517
1587369676386,2.9149406,-14.907496,11.725603
1587369676398,5.231331,-15.737088,8.9758625
1587369676408,5.3043537,-16.208746,6.9288197
1587369676419,-0.25737667,-12.952631,7.2460513
1587369676431,-0.25737667,-12.952631,7.2460513
1587369676441,-1.7286136,-3.9695864,4.894945
1587369676453,-0.92535895,-2.658761,5.7389016
1587369676463,-1.9847932,-3.144784,7.740454
1587369676476,-2.6527755,-6.8222775,7.524976
1587369676482,-2.6527755,-6.8222775,7.524976
1587369676494,-7.275979,-16.87553,2.695871
1587369676506,-10.481815,-24.034193,0.93134445
1587369676518,-8.857349,-32.212788,1.8375498
1587369676528,-8.857349,-32.212788,1.8375498
1587369676540,-2.859874,-2.9293058,-7.9367785
1587369676550,-6.5625067,6.1004257,-5.052963
1587369676562,-6.5625067,6.1004257,-5.052963
1587369676572,-6.2752028,5.3462524,0.031124622
1587369676584,1.1216835,-2.099715,-0.44771573
1587369676592,6.205771,-8.093599,-3.0178912
1587369676604,6.68102,-12.35887,-4.0138793
1587369676616,6.68102,-12.35887,-4.0138793
1587369676626,5.105635,-18.411411,-0.2765303
1587369676638,5.0146556,-14.332889,1.1971009
1587369676649,5.0146556,-14.332889,1.1971009
1587369676658,3.1376014,-8.578424,0.35314476
1587369676670,1.3299791,-6.6175733,1.6448165
1587369676682,1.2318168,-6.5589156,1.1109096
1587369676692,1.4161704,-7.45315,-0.22625206
1587369676704,1.8722657,-8.469488,-1.2210429
1587369676714,1.8722657,-8.469488,-1.2210429
1587369676726,1.2617443,-9.058462,-2.12246
1587369676737,0.81043726,-8.974665,-1.8387469
1587369676746,0.49799395,-8.910022,-1.5981296
1587369676758,0.077811554,-8.842984,-2.146402
1587369676769,-0.47405192,-8.74961,-1.8219875
1587369676780,-0.62129533,-9.105149,-1.5837644
1587369676791,-0.36032736,-9.688137,-1.0402806
1587369676806,-0.09696517,-9.871294,-0.20829555
1587369676818,1.5837644,-9.633071,-0.5674258
1587369676824,1.5837644,-9.633071,-0.5674258
1587369676834,2.1092918,-9.5253315,-0.439336
1587369676846,2.1260512,-9.178172,-0.10055647
1587369676856,1.6436194,-8.651448,0.25977087
1587369676869,0.92535895,-8.468291,-0.3866636
1587369676878,0.92535895,-8.468291,-0.3866636
1587369676890,1.7741034,-9.270349,-1.2629414
1587369676900,1.9249382,-9.660604,-1.1899183
1587369676912,1.9249382,-9.660604,-1.1899183
1587369676920,0.7517793,-9.860519,-0.20231004
1587369676932,-0.023942016,-10.133459,0.59256494
1587369676944,-0.36750996,-10.559627,1.1683705
1587369676954,-0.2861071,-10.851719,1.3371617
1587369676966,0.16879122,-10.93791,1.198298
1587369676977,0.93014735,-10.825383,0.7649474
1587369676987,1.7776948,-10.590752,0.23463176
1587369677000,2.3894134,-10.377667,-0.11851298
1587369677010,2.3894134,-10.377667,-0.11851298
1587369677020,2.7030537,-11.033679,0.10295067
1587369677033,3.0585926,-11.207258,0.2837129
1587369677042,3.1878796,-11.11149,0.61890113
1587369677053,2.8335378,-11.243171,0.961272
1587369677065,2.4049757,-11.732785,1.2138603
1587369677074,2.2218192,-12.100295,1.365892
1587369677085,2.328361,-12.878411,0.44891283
1587369677096,2.6240451,-13.666103,-0.82001406
1587369677107,3.5182793,-14.352042,-2.0326772
1587369677118,2.991555,-14.270639,-1.0690111
1587369677128,1.42455,-14.85243,-0.1316811
1587369677139,-0.19512744,-14.748282,-0.33039984
1587369677151,-1.9919758,-14.930242,-1.3587095
1587369677162,-1.9919758,-14.930242,-1.3587095
1587369677172,-4.510676,-15.340847,-3.4153287
1587369677184,-5.2409077,-15.043966,-3.371036
1587369677194,-5.6096144,-15.249867,-2.885013
1587369677206,-5.3845596,-15.412673,-1.8986019
1587369677216,-4.7860093,-15.444995,-0.5231331
1587369677228,-3.9755719,-14.80694,1.0235212
1587369677238,-1.7621324,-12.63899,3.5901055
1587369677250,-0.8738836,-12.196063,2.7760768
1587369677260,-0.8738836,-12.196063,2.7760768
1587369677272,0.19991584,-13.14297,-1.1683705
1587369677283,0.38067806,-13.753491,-2.337938
1587369677293,0.59855044,-13.467384,-3.1124623
1587369677305,0.49919105,-12.524069,-3.441665
1587369677315,0.50757074,-10.833763,-3.41892
1587369677327,-0.33518824,-7.5333557,-1.9057846
1587369677338,-0.6380547,-5.8454432,0.17956513
1587369677347,-0.46327803,-5.720945,0.80684596
1587369677361,-0.46327803,-5.720945,0.80684596
1587369677371,0.25258827,-4.0162735,1.0007763
1587369677381,-0.2657564,-3.1268275,0.81881696
1587369677393,-0.62009823,-2.72939,0.9923966
1587369677403,-1.009156,-2.6886885,1.0103531
1587369677415,-1.3192052,-2.858677,0.8523358
1587369677425,-1.340753,-3.120842,0.47644615
1587369677438,-0.9756372,-3.2968156,0.12330139
1587369677448,-0.50876784,-3.3291376,-0.1316811
1587369677457,-0.50876784,-3.3291376,-0.1316811
1587369677471,-0.39384618,-3.6128504,0.33518824
1587369677481,-0.6631939,-3.807978,0.7745243
1587369677491,-0.6631939,-3.807978,0.7745243
1587369677503,-1.0977415,-4.3047748,1.8004397
1587369677513,-1.1133038,-4.408922,2.2816741
1587369677525,-0.91219085,-4.818331,2.6683378
1587369677535,0.1388637,-5.6203885,2.8395233
1587369677547,2.0470424,-10.790668,4.4939165
1587369677557,2.0470424,-10.790668,4.4939165
1587369677569,0.37349546,-15.077485,9.012972
1587369677577,0.37349546,-15.077485,9.012972
1587369677589,0.51475334,-17.577032,13.205219
1587369677601,1.4305356,-16.69836,14.097059
1587369677611,1.4305356,-16.69836,14.097059
1587369677623,2.2744915,-14.000094,7.315483
1587369677633,1.3431472,-12.531252,5.7616463
1587369677645,1.3431472,-12.531252,5.7616463
1587369677655,0.10175357,-7.4603324,4.8219223
1587369677667,0.36750996,-4.9188876,4.985925
1587369677677,0.6572084,-2.9843724,6.215348
1587369677689,0.19632454,-2.078167,8.412027
1587369677699,-1.4041992,-7.0090256,7.739257
1587369677711,-1.4041992,-7.0090256,7.739257
1587369677721,-5.258864,-18.595764,4.313154
1587369677733,-6.908469,-25.273193,0.005985504
1587369677743,-6.908469,-25.273193,0.005985504
1587369677755,-2.2385786,-22.63598,-7.5165963
1587369677766,-5.8574142,2.9879637,-4.107253
1587369677776,-10.411186,2.9101522,-0.008379706
1587369677788,-8.095993,1.8938135,0.61530983
1587369677796,-0.7673417,-3.21661,-1.9752164
1587369677808,3.645172,-9.605537,-4.5513773
1587369677820,2.315193,-16.800114,-3.4272997
1587369677831,2.054225,-17.32564,0.39025488
1587369677841,2.054225,-17.32564,0.39025488
1587369677853,3.5338416,-12.220005,0.7146692
1587369677863,3.8031895,-9.533711,0.11971009
1587369677875,3.4045548,-8.23366,0.1316811
1587369677885,2.9173348,-7.797915,0.3890578
1587369677897,2.597709,-8.09719,-0.93134445
1587369677905,2.597709,-8.09719,-0.93134445
1587369677918,2.5785553,-8.895657,-2.244564
1587369677928,2.4277205,-9.074024,-2.2828712
1587369677940,1.9009962,-9.275137,-1.7860745
1587369677950,0.5398925,-9.120711,-0.60214174
1587369677961,0.47884035,-8.796297,-0.58657944
1587369677973,0.6679823,-8.548497,-1.5478514
1587369677983,0.4333505,-8.740033,-1.1994951
1587369677994,0.16998832,-8.881291,-0.7266402
1587369678006,0.130484,-8.9124155,-0.5805939
1587369678014,0.5638345,-8.968679,-0.49081135
1587369678026,1.1252748,-9.100361,-0.41299978
1587369678038,1.5131354,-9.184157,-0.31004912
1587369678048,1.2066777,-8.531737,0.6572084
1587369678060,1.2066777,-8.531737,0.6572084
1587369678071,0.7326257,-8.24563,0.60693014
1587369678087,0.94690675,-8.704121,-0.0035913025
1587369678097,1.2964603,-9.299079,-0.50397944
1587369678106,1.6112977,-9.890448,-0.81163436
1587369678116,1.6771383,-10.387244,-0.8595184
1587369678127,1.4748282,-10.704475,-0.6799533
1587369678139,1.0307038,-10.819398,-0.44771573
1587369678148,-0.06943185,-11.172543,0.48243165
1587369678159,-0.36870706,-11.421539,0.8690952
1587369678169,-0.35553896,-11.397597,1.1839328
1587369678180,0.19393034,-11.170148,1.4137762
1587369678191,0.19393034,-11.170148,1.4137762
1587369678203,2.7006595,-10.193314,-0.051475335
1587369678215,2.9963434,-9.828198,-0.22146365
1587369678226,3.0071173,-9.902418,-0.10534488
1587369678237,3.13401,-10.242394,0.079008654
1587369678247,3.4033577,-10.688913,-0.07062895
1587369678259,3.2824504,-10.936713,-0.22864626
1587369678269,1.7226281,-11.402386,0.90021986
1587369678281,0.93254155,-11.437101,1.5825673
1587369678291,0.93254155,-11.437101,1.5825673
1587369678303,1.1025299,-11.492168,1.0151415
1587369678313,1.282095,-11.850101,0.49081135
1587369678325,2.0530279,-12.35887,0.45968673
1587369678335,3.335123,-12.998121,-0.664391
1587369678347,4.286818,-13.363236,-2.2146366
1587369678358,3.989937,-13.508086,-2.0326772
1587369678368,2.6396074,-13.887567,-0.7517793
1587369678380,-2.8095956,-14.888343,-2.6862943
1587369678390,-2.8095956,-14.888343,-2.6862943
1587369678402,-7.144298,-15.154099,-3.288436
1587369678412,-7.7799582,-15.784972,-0.8403648
1587369678424,-6.781576,-18.0032,-0.59615624
1587369678434,-5.321113,-17.183186,-0.20949265
1587369678446,-3.6403837,-15.375564,0.4249708
1587369678455,-1.958457,-13.447034,1.5442601
1587369678467,-0.581791,-12.209231,2.5091233
1587369678477,-0.581791,-12.209231,2.5091233
1587369678489,1.4041992,-12.152967,0.8762778
1587369678499,1.8722657,-13.541605,-1.389834
1587369678511,1.6795325,-12.802994,-1.982399
1587369678521,1.6795325,-12.802994,-1.982399
1587369678533,0.51235914,-10.086772,-2.111686
1587369678543,0.05626374,-8.519767,-1.5897499
1587369678555,-0.2885013,-7.0724716,-0.90261406
1587369678563,-0.5650316,-5.9878983,-0.005985504
1587369678575,-0.5650316,-5.9878983,-0.005985504
1587369678587,0.40940848,-4.855441,0.7398083
1587369678597,0.7086837,-4.8458643,0.51595044
1587369678609,0.20231004,-4.6232033,0.62009823
1587369678619,-0.59017074,-4.1252093,1.0570401
1587369678631,-1.9476831,-3.2321723,0.94690675
1587369678642,-1.9476831,-3.2321723,0.94690675
1587369678651,-1.1587936,-2.9712043,-0.4333505
1587369678663,-1.0055647,-2.9257145,-0.39145198
1587369678671,-1.0055647,-2.9257145,-0.39145198
1587369678685,-0.7613561,-3.1052797,0.39624038
1587369678694,-0.7529764,-3.4165258,0.8415619
1587369678706,-0.89184016,-3.7421372,1.3575124
1587369678717,-1.2138603,-4.083311,1.9859903
1587369678727,-1.4293385,-4.3598413,2.7365725
1587369678739,-1.4209588,-4.582502,3.4955344
1587369678749,-0.44532153,-5.889736,4.710592
1587369678761,0.50278234,-7.2592196,4.915296
1587369678771,0.50278234,-7.2592196,4.915296
1587369678783,2.565387,-10.8864355,4.661511
1587369678793,2.019509,-12.800599,4.7165775
1587369678805,0.3866636,-14.220361,6.623559
1587369678816,-0.79966336,-15.477317,9.406818
1587369678826,-0.35194764,-15.816096,11.943475
1587369678838,0.7541735,-15.288175,12.012907
1587369678848,2.1703439,-12.154165,7.27957
1587369678861,0.81522566,-10.700885,7.1873937
1587369678870,0.81522566,-10.700885,7.1873937
1587369678883,0.37229836,-6.0489507,6.791153
1587369678889,0.37229836,-6.0489507,6.791153
1587369678901,0.16280572,-5.3498435,6.019023
1587369678913,-1.4652514,-8.610746,5.901707
1587369678925,-1.4652514,-8.610746,5.901707
1587369678934,-5.7365074,-18.51915,6.0944405
1587369678946,-6.505046,-23.718159,4.7429137
1587369678958,-1.5346833,-25.37016,-1.4856021
1587369678968,-1.5346833,-25.37016,-1.4856021
1587369678980,-6.9599442,6.0046577,-5.189432
1587369678991,-6.9599442,6.0046577,-5.189432
1587369679001,-12.559982,7.9583263,-0.29688102
1587369679013,-7.979874,1.9608512,2.9257145
1587369679022,-7.979874,1.9608512,2.9257145
1587369679034,6.7121444,-10.78109,-2.3678656
1587369679046,6.7348895,-15.867572,-3.2980127
1587369679057,5.0840874,-18.956093,-2.7222073
1587369679067,4.3766007,-19.523518,0.06943185
1587369679079,2.3463178,-9.31943,0.545878
1587369679088,2.3463178,-9.31943,0.545878
1587369679100,0.32561144,-5.973533,1.2449849
1587369679108,-0.2669535,-6.1112,1.4449008
1587369679120,-0.2669535,-6.1112,1.4449008
1587369679132,0.47764325,-8.201338,0.1316811
1587369679143,1.5251064,-9.53012,-1.2485762
1587369679153,2.4181437,-11.115082,-2.6994624
1587369679164,2.7461493,-11.240777,-3.6762967
1587369679176,2.2744915,-10.420763,-2.5270798
1587369679185,1.4065934,-9.388862,-1.5466543
1587369679197,0.5566519,-8.7125,-1.2940661
1587369679208,-0.11611878,-8.576031,-1.5693992
1587369679217,-0.11611878,-8.576031,-1.5693992
1587369679227,0.10654198,-9.415198,-1.0390835
1587369679238,0.17238252,-9.367314,-0.31483752
1587369679249,0.33159694,-9.214086,0.11731588
1587369679261,0.5482722,-9.196129,-0.31364042
1587369679273,0.5482722,-9.196129,-0.31364042
1587369679285,1.0821792,-9.035717,-0.32441434
1587369679295,1.0977415,-8.67539,-0.20231004
1587369679307,1.0115502,-8.738836,-0.077811554
1587369679316,0.9959879,-8.986636,-0.16759412
1587369679330,1.3587095,-9.324219,-0.4213795
1587369679341,1.6160861,-9.569624,-0.7673417
1587369679351,1.8806454,-9.736021,-0.5303157
1587369679361,1.9919758,-10.077195,-0.33279404
1587369679373,1.9919758,-10.077195,-0.33279404
1587369679382,1.5442601,-11.167754,0.48362875
1587369679394,0.8810662,-11.362882,1.2533646
1587369679406,0.45609543,-11.115082,1.9728222
1587369679416,0.533907,-10.722432,2.3451207
1587369679428,2.0171149,-10.353725,1.0295067
1587369679436,2.0171149,-10.353725,1.0295067
1587369679448,2.6850972,-10.068815,-0.30885202
1587369679460,2.4253263,-10.150218,-0.010773907
1587369679470,2.4253263,-10.150218,-0.010773907
1587369679482,3.0430303,-10.924743,0.60573304
1587369679492,3.0430303,-10.924743,0.60573304
1587369679504,2.8502972,-11.834539,1.0642227
1587369679514,2.0003555,-11.877635,1.982399
1587369679526,2.3894134,-11.712435,1.79206
1587369679536,2.9532478,-12.061988,0.8499416
1587369679549,3.3925838,-12.328941,0.19512744
1587369679559,4.7201686,-12.915521,-1.7286136
1587369679569,4.7201686,-12.915521,-1.7286136
1587369679581,2.5845408,-13.633781,-1.6484078
1587369679591,0.2837129,-14.194025,-0.9864111
1587369679603,0.2837129,-14.194025,-0.9864111
1587369679613,-5.1786585,-15.149311,-2.598906
1587369679625,-6.8486137,-14.700398,-2.9269116
1587369679635,-7.5932107,-14.522031,-2.8981812
1587369679647,-7.7093296,-15.32768,-2.541445
1587369679655,-7.7093296,-15.32768,-2.541445
1587369679667,-5.9412117,-16.567875,-1.4700398
1587369679679,-3.3650506,-14.457387,0.5410896
1587369679689,-3.3650506,-14.457387,0.5410896
1587369679701,-2.1799207,-12.807782,2.2098482
1587369679711,-0.50757074,-11.609484,2.1332338
1587369679723,-0.045489833,-12.413936,1.0031705
1587369679733,0.45250413,-13.910312,-0.2717419
1587369679744,0.6943185,-13.408727,-1.2749124
1587369679757,1.2006922,-12.564771,-1.271321
1587369679763,1.0833763,-11.297041,-1.6196774
1587369679775,1.1133038,-9.949105,-1.2892777
1587369679787,0.8379706,-8.833407,-1.4077905
1587369679799,0.5255273,-7.7332716,-1.283292
1587369679809,-0.049081136,-5.9543796,0.80086046
1587369679821,-0.049081136,-5.9543796,0.80086046
1587369679831,-0.031124622,-4.665102,0.89543146
1587369679843,-0.2669535,-3.8630445,0.82001406
1587369679853,-0.2669535,-3.8630445,0.82001406
1587369679865,-0.8655039,-2.72939,0.7158663
1587369679873,-1.1049241,-2.373851,0.4141969
1587369679884,-1.3347675,-2.493561,0.4177882
1587369679896,-1.7190368,-2.3104045,0.5770026
1587369679909,-1.0498575,-2.6360161,-0.047884032
1587369679919,-1.0498575,-2.6360161,-0.047884032
1587369679929,-0.91697925,-3.265691,0.41060558
1587369679941,-0.8870517,-3.7110126,0.5758055
1587369679951,-0.8870517,-3.7110126,0.5758055
1587369679963,-0.9816227,-4.844667,2.516306
1587369679973,-0.79008657,-5.5485625,3.3614593
1587369679985,-0.41180268,-6.543353,4.2437224
1587369679995,0.1352724,-7.8290396,4.8745947
1587369680008,2.112883,-10.916363,5.78918
1587369680018,2.112883,-10.916363,5.78918
1587369680028,0.78769237,-14.1904335,8.376115
1587369680040,-0.5793968,-14.4933,10.214862
1587369680050,-0.5793968,-14.4933,10.214862
1587369680063,-0.06943185,-11.415554,12.855666
1587369680073,2.2230163,-11.170148,10.99178
1587369680082,3.3542767,-11.6669445,8.590396
1587369680096,2.3104045,-12.538434,6.7863646
1587369680107,-0.34955344,-11.701661,6.0010667
1587369680117,-2.2385786,-9.913192,5.424064
1587369680128,-2.7641058,-7.8529816,4.4364557
1587369680138,-3.1723173,-5.876568,4.5322237
1587369680149,-4.5753193,-5.097255,5.673061
1587369680161,-5.969942,-10.053253,5.544971
1587369680172,-5.969942,-10.053253,5.544971
1587369680182,-9.588778,-24.64232,1.1815386
1587369680194,-8.085219,-26.676195,2.043451
1587369680203,-8.085219,-26.676195,2.043451
1587369680215,-1.5346833,-7.2340803,-4.19105
1587369680224,-1.7022774,3.180697,-5.771223
1587369680235,-5.1942205,7.8326306,-3.2992098
1587369680246,-6.815095,6.0465565,-0.35434186
1587369680257,3.1783028,-7.267599,-1.6747441
1587369680268,5.058948,-11.744757,-2.6755204
1587369680279,4.167108,-14.239514,-3.41892
1587369680290,3.229778,-16.98327,-2.4732103
1587369680301,3.229778,-16.98327,-2.4732103
1587369680310,3.90614,-17.633295,0.8834604
1587369680321,3.6523547,-14.267048,0.19991584
1587369680333,3.016694,-10.718841,-0.9876082
1587369680346,2.0482395,-8.271967,-0.7445967
1587369680356,0.9876082,-6.9707184,0.30286652
1587369680366,0.16639702,-6.3422403,0.7649474
1587369680378,-0.47524905,-7.1670427,-0.60094464
1587369680388,-0.2657564,-8.634688,-1.3611037
1587369680400,-0.2657564,-8.634688,-1.3611037
1587369680410,0.581791,-10.183737,-1.5765818
1587369680422,0.6931214,-9.561244,-1.2378023
1587369680432,0.9828198,-8.88608,-0.9840169
1587369680444,1.0522517,-8.508993,-1.4808137
1587369680454,1.0007763,-8.14268,-1.2844892
1587369680466,0.7026982,-8.172607,-1.2425907
1587369680476,0.7062895,-8.274361,-1.0307038
1587369680489,1.6112977,-9.077616,-1.0007763
1587369680499,1.6112977,-9.077616,-1.0007763
1587369680509,1.9931729,-9.680955,0.5410896
1587369680521,1.5705963,-9.68694,1.2785037
1587369680529,0.8511387,-9.479841,1.8986019
1587369680541,0.4333505,-9.348161,1.9141643
1587369680554,0.79248077,-9.349358,1.4317327
1587369680563,1.4149733,-9.5013895,0.33039984
1587369680575,2.2697031,-9.680955,-0.09935937
1587369680586,2.2697031,-9.680955,-0.09935937
1587369680596,2.6755204,-9.31943,-0.48003745
1587369680608,1.423353,-9.660604,-0.33877954
1587369680618,1.423353,-9.660604,-0.33877954
1587369680630,-0.17477672,-10.891224,0.5674258
1587369680638,-0.32561144,-11.18571,0.5470751
1587369680650,-0.32561144,-11.18571,0.5470751
1587369680661,0.80924016,-11.104307,-0.11252748
1587369680674,1.5574282,-10.903194,-0.3878607
1587369680683,1.5574282,-10.903194,-0.3878607
1587369680695,1.6651673,-10.785878,-0.22026655
1587369680706,1.7669208,-10.765528,0.0023942017
1587369680716,2.3953989,-10.981006,-0.035913024
1587369680728,2.8179753,-11.384429,-0.110133275
1587369680738,2.079364,-12.206838,0.712275
1587369680750,2.079364,-12.206838,0.712275
1587369680760,2.0817583,-12.791022,0.5363012
1587369680773,2.3175871,-13.166912,0.33638534
1587369680782,2.3175871,-13.166912,0.33638534
1587369680794,4.0617633,-13.213599,-0.94690675
1587369680804,4.8997335,-13.190854,-2.054225
1587369680817,4.5645456,-13.48175,-2.0087352
1587369680827,2.6563668,-14.128184,-1.5753847
1587369680837,0.08499416,-14.45619,-1.0223241
1587369680849,-5.6467247,-14.850036,-1.3982137
1587369680857,-7.249643,-13.9917145,-2.0410569
1587369680869,-8.420407,-13.220781,-2.72939
1587369680881,-8.420407,-13.220781,-2.72939
1587369680892,-6.7121444,-14.635755,-2.4157495
1587369680902,-5.1475334,-15.186421,-1.2030864
1587369680914,-3.6415808,-14.65012,0.48961425
1587369680924,-2.2242134,-13.249513,1.9333179
1587369680936,-0.9708488,-12.391191,2.6563668
1587369680946,-0.06584055,-12.348095,2.8407204
1587369680959,0.61530983,-13.381193,-0.34596214
1587369680965,0.61530983,-13.381193,-0.34596214
1587369680979,0.59136784,-13.335704,-1.7537527
1587369680988,0.5363012,-11.511322,-2.0817583
1587369680999,0.5279215,-10.348937,-2.4408886
1587369681010,0.581791,-9.308656,-2.0530279
1587369681022,0.32920274,-8.183381,-2.4025815
1587369681032,-0.12808979,-7.3106947,-1.970428
1587369681043,-0.63206923,-6.4224463,-0.6967127
1587369681054,-0.90979666,-5.9268465,0.60333884
1587369681065,-1.0127473,-5.590461,1.8710686
1587369681074,-0.51116204,-4.261679,1.6136919
1587369681085,-0.45489833,-3.572149,1.376666
1587369681096,-0.5530606,-3.0142999,1.0175357
1587369681106,-0.5758055,-2.5797524,0.7110779
1587369681117,-0.51235914,-2.1643584,0.110133275
1587369681128,-0.51235914,-2.1643584,0.110133275
1587369681139,-0.770933,-2.3199813,0.260968
1587369681149,-0.78170687,-2.445677,0.33758244
1587369681160,-0.7098808,-2.8526914,0.45130703
1587369681171,-0.81761986,-3.2704794,0.91458505
1587369681180,-0.81761986,-3.2704794,0.91458505
1587369681192,-0.78290397,-3.9492357,1.1719618
1587369681204,-0.9888053,-4.1718965,2.0829554
1587369681214,-0.90979666,-4.4807487,2.6001031
1587369681226,-0.62249243,-5.201403,3.1866825
1587369681236,-0.07182605,-6.528988,3.6092591
1587369681249,0.6596026,-8.615535,4.2461166
1587369681259,-0.25019407,-13.210008,6.435614
1587369681268,-1.3754689,-16.156073,9.385271
1587369681279,-1.3754689,-16.156073,9.385271
1587369681289,1.3575124,-16.874334,12.209231
1587369681300,2.0602105,-15.629349,9.028535
1587369681311,1.6256629,-14.571112,7.703344
1587369681322,0.15322891,-12.196063,7.6841903
1587369681332,-0.89064306,-8.948329,7.1287355
1587369681343,-0.7182605,-5.695806,6.2644286
1587369681354,-0.15203181,-3.4680011,5.792771
1587369681365,-0.21667525,-3.3135753,6.3589997
1587369681377,-1.3204023,-5.590461,7.265205
1587369681389,-5.185841,-16.582241,5.7125654
1587369681398,-5.185841,-16.582241,5.7125654
1587369681410,-6.245275,-29.451075,-1.2689269
1587369681419,-5.127183,-34.42862,-2.8167782
1587369681431,-5.127183,-34.42862,-2.8167782
1587369681443,-2.5713725,2.1942859,-7.7919292
1587369681453,-9.343372,10.630256,-5.9986725
1587369681465,-15.130157,9.841366,0.6775591
1587369681476,-10.223241,8.614338,0.02633622
1587369681486,-0.19393034,-1.5622166,-1.5394717
1587369681498,5.6239796,-10.8864355,-3.9576154
1587369681506,3.8067808,-16.923414,-2.48159
1587369681519,4.830302,-18.107347,2.0386627
1587369681529,4.830302,-18.107347,2.0386627
1587369681541,4.224569,-8.880095,0.29688102
1587369681551,2.634819,-6.295553,0.8451532
1587369681563,1.2330139,-5.7257333,1.7980455
1587369681573,0.50158525,-5.876568,1.7082629
1587369681585,0.80564886,-6.637924,1.0845734
1587369681595,1.7190368,-7.8062944,0.28491
1587369681609,2.5354595,-9.226056,-0.8331822
1587369681612,2.5354595,-9.226056,-0.8331822
1587369681626,2.540248,-10.030508,-2.0841527
1587369681638,1.0127473,-9.17099,-0.6907272
1587369681651,0.36391866,-8.51019,-0.89423436
1587369681661,0.36391866,-8.51019,-0.89423436
1587369681671,-0.2825158,-8.368932,-1.4939818
1587369681682,-0.2825158,-8.368932,-1.4939818
1587369681694,-0.866701,-8.808268,-0.60333884
1587369681704,-0.5770026,-8.908825,-0.10414778
1587369681716,-0.05626374,-9.259575,-0.63087213
1587369681724,0.7517793,-9.43076,-0.59974754
1587369681736,0.62728083,-8.971074,-0.19871874
1587369681749,0.19393034,-8.918402,0.2789245
1587369681759,-0.11492168,-9.021352,0.6596026
1587369681768,0.20709845,-9.544485,0.49679685
1587369681780,0.20709845,-9.544485,0.49679685
1587369681792,1.34195,-10.607511,-0.736217
1587369681802,1.6472107,-10.8624935,-0.80205756
1587369681815,1.6472107,-10.8624935,-0.80205756
1587369681825,1.2892777,-10.839748,0.4357447
1587369681837,1.3084313,-10.795456,0.9504981
1587369681847,1.4915876,-10.576386,1.0031705
1587369681859,1.804031,-10.158598,0.6560113
1587369681869,1.9835961,-10.371682,-0.08140286
1587369681881,1.9835961,-10.371682,-0.08140286
1587369681891,1.7621324,-10.313024,-0.18435353
1587369681903,2.111686,-10.120291,0.10414778
1587369681913,2.111686,-10.120291,0.10414778
1587369681925,3.3626564,-10.630256,0.095768064
1587369681936,2.9616275,-11.112687,0.1364695
1587369681946,1.661576,-11.604695,1.1264719
1587369681959,1.5191209,-12.097901,1.4987702
1587369681969,1.9728222,-12.865243,1.4520833
1587369681978,1.9728222,-12.865243,1.4520833
1587369681991,3.3135753,-13.3943615,0.7410054
1587369682001,3.7253778,-13.846866,-0.724246
1587369682014,3.7253778,-13.846866,-0.724246
1587369682023,1.8459295,-12.580333,0.045489833
1587369682035,-0.19871874,-12.704831,0.30406362
1587369682045,-2.3259668,-12.35049,-0.6751649
1587369682058,-4.3382936,-11.759122,-1.6950948
1587369682068,-7.097611,-11.786655,-1.6843209
1587369682078,-7.097611,-11.786655,-1.6843209
1587369682090,-7.1993647,-16.138117,-0.5267244
1587369682100,-5.853823,-18.3336,-0.20829555
1587369682111,-5.853823,-18.3336,-0.20829555
1587369682124,-2.0482395,-16.657658,1.9393034
1587369682134,-0.47405192,-14.398729,3.309984
1587369682143,0.61052144,-13.093889,4.5202527
1587369682155,1.2330139,-13.300987,3.4153287
1587369682164,1.4867992,-13.599066,1.7645266
1587369682176,0.90979666,-13.302185,-1.4951789
1587369682186,0.48602295,-12.5504055,-2.256535
1587369682199,-1.1264719,-9.715671,-2.1775265
1587369682209,-1.1264719,-9.715671,-2.1775265
1587369682219,-1.8543092,-6.9862804,-0.90979666
1587369682230,-1.8543092,-6.9862804,-0.90979666
1587369682242,-1.4317327,-5.225345,1.0103531
1587369682252,-0.6560113,-4.736928,1.4915876
1587369682265,-0.21547815,-4.2197804,1.4652514
1587369682271,-0.08738836,-3.3279405,1.5143325
1587369682283,-0.062249243,-3.3135753,0.9744401
1587369682295,-0.4141969,-3.3123782,0.7098808
1587369682308,-0.6847417,-3.1004913,0.5506664
1587369682318,-0.47405192,-2.0566192,-1.4293385
1587369682327,-0.47405192,-2.0566192,-1.4293385
1587369682339,-1.34195,-2.0470424,-1.0498575
1587369682350,-1.839944,-2.2062569,-0.5518635
1587369682362,-1.839944,-2.2062569,-0.5518635
1587369682371,-1.7250223,-3.3423057,0.8738836
1587369682385,-1.5167267,-3.904943,1.6627731
1587369682393,-1.2569559,-4.602853,3.7349546
1587369682404,-0.7326257,-5.1726727,4.921282
1587369682415,0.25977087,-6.564901,6.0525417
1587369682426,1.6831238,-8.124723,6.8773446
1587369682437,1.745373,-9.79827,7.467515
1587369682450,0.51475334,-15.067908,10.1226845
1587369682460,0.51475334,-15.067908,10.1226845
1587369682472,2.1643584,-20.952856,14.295778
1587369682482,3.2573113,-20.50993,10.8624935
1587369682494,2.5845408,-17.914614,9.653421
1587369682504,0.8643068,-14.945804,9.52174
1587369682515,-0.6907272,-11.787852,8.728063
1587369682527,-1.4149733,-8.0924015,6.791153
1587369682537,-1.9189527,-4.0438066,5.019444
1587369682549,-1.7753005,-0.1436521,5.149928
1587369682559,-1.7753005,-0.1436521,5.149928
1587369682571,-3.8187518,-5.2409077,7.3322425
1587369682581,-5.0146556,-9.785102,5.2899885
1587369682593,-6.775591,-15.617377,5.3606176
1587369682601,-6.5744777,-19.946095,1.9955671
1587369682614,-3.4153287,-30.426712,0.29209262
1587369682623,1.1288661,-11.659762,-6.30513
1587369682635,-1.8136078,0.91697925,-7.967903
1587369682648,-11.903971,2.6288335,1.3730747
1587369682658,-11.903971,2.6288335,1.3730747
1587369682668,1.1073183,-5.0385976,-2.907758
1587369682680,3.738546,-10.875661,-4.5154643
1587369682690,3.738546,-10.875661,-4.5154643
1587369682702,2.0733786,-18.485632,-0.9504981
1587369682710,2.0733786,-18.485632,-0.9504981
1587369682722,3.5673606,-15.828068,0.5291186
1587369682734,4.0976763,-12.145785,-0.7338228
1587369682744,4.0976763,-12.145785,-0.7338228
1587369682756,2.6767175,-8.208521,-0.25737667
1587369682767,1.7465701,-7.5572977,0.16519992
1587369682777,1.4030021,-7.392098,-0.21068975
1587369682789,1.412579,-7.943961,-1.2234371
1587369682799,0.8463503,-9.464279,-2.5342624
1587369682811,0.8463503,-9.464279,-2.5342624
1587369682819,-0.5303157,-9.349358,-1.2138603
1587369682831,-0.5746084,-8.944737,-1.5634137
1587369682843,-0.5746084,-8.944737,-1.5634137
1587369682853,-0.50996494,-8.552089,-1.4736311
1587369682865,-0.7517793,-8.686164,-1.0941502
1587369682875,-0.81642276,-8.611943,-0.46327803
1587369682887,-0.22026655,-8.974665,-1.2114661
1587369682897,1.0115502,-9.172187,-0.9588778
1587369682909,1.8339585,-9.101558,-0.81402856
1587369682920,2.2828712,-8.865729,0.37110126
1587369682930,2.0374656,-8.969876,0.93852705
1587369682941,2.0374656,-8.969876,0.93852705
1587369682953,1.5957354,-8.765172,1.2306197
1587369682963,2.148796,-8.831013,0.47046062
1587369682975,2.9939492,-9.270349,-0.4237737
1587369682986,3.2309752,-9.680955,-0.7278373
1587369682996,2.7617116,-10.016143,-0.45489833
1587369683008,2.0578163,-10.396821,0.25977087
1587369683018,0.20829555,-11.309011,1.411382
1587369683031,-0.4333505,-11.142614,1.6400281
1587369683037,-0.4333505,-11.142614,1.6400281
1587369683049,0.62368953,-10.770316,0.760159
1587369683061,0.62368953,-10.770316,0.760159
1587369683073,2.042254,-10.609905,-0.7493851
1587369683083,1.8579005,-10.617087,-0.60932434
1587369683094,1.8579005,-10.617087,-0.60932434
1587369683106,1.7322049,-10.868479,0.6584055
1587369683116,2.4552538,-11.099519,0.47285482
1587369683129,2.5893292,-11.694478,0.2681506
1587369683139,2.5893292,-11.694478,0.2681506
1587369683151,1.9309237,-12.191275,0.4381389
1587369683162,1.7022774,-12.780249,0.35553896
1587369683172,1.9237411,-13.330915,0.47405192
1587369683184,2.9975405,-13.634978,-0.5434838
1587369683194,2.9975405,-13.634978,-0.5434838
1587369683205,4.8003745,-13.579912,-2.542642
1587369683218,1.3634979,-14.617799,-0.78769237
1587369683229,-1.0618285,-14.932636,-1.3227965
1587369683239,-1.0618285,-14.932636,-1.3227965
1587369683249,-6.0142345,-14.602236,-2.5450363
1587369683261,-7.410054,-14.356831,-3.1112652
1587369683271,-8.082825,-14.581885,-2.89459
1587369683283,-6.9826894,-16.08305,-2.0506337
1587369683293,-6.9826894,-16.08305,-2.0506337
1587369683305,-4.167108,-15.5359745,0.11611878
1587369683315,-2.885013,-14.355634,1.6723499
1587369683327,-1.8590976,-13.479356,2.9855695
1587369683338,-1.13964,-13.176489,1.9512744
1587369683348,-0.6703765,-13.269863,-1.7429788
1587369683359,-0.6703765,-13.269863,-1.7429788
1587369683370,-0.32680854,-12.180501,-2.9891608
1587369683380,0.038307227,-11.311406,-3.2549171
1587369683392,0.038307227,-11.311406,-3.2549171
1587369683402,0.59495914,-7.2711906,-2.1416135
1587369683413,0.29448682,-5.99149,-1.8579005
1587369683424,0.1340753,-5.12838,-1.0498575
1587369683436,0.4333505,-4.602853,-0.10414778
1587369683445,0.14724341,-4.3287168,0.3878607
1587369683455,-0.48003745,-3.6727054,0.7505822
1587369683466,-1.0977415,-3.321955,1.1133038
1587369683475,-1.7274165,-2.9640217,1.3682863
1587369683486,-2.1152773,-2.8083985,1.8710686
1587369683498,-2.292448,-3.0250738,1.8794483
1587369683509,-1.2725182,-3.4009635,0.039504327
1587369683521,-1.0115502,-3.289633,-0.19632454
1587369683531,-1.0426749,-3.4608185,-0.04189853
1587369683543,-1.1252748,-3.6762967,0.25258827
1587369683553,-1.186327,-3.8905778,0.7661445
1587369683565,-1.3467385,-4.033033,1.388637
1587369683576,-1.4688427,-4.1862617,2.087744
1587369683586,-1.483208,-4.298789,2.8550856
1587369683598,-0.9995792,-4.9428296,4.519056
1587369683608,-0.9995792,-4.9428296,4.519056
1587369683620,0.25977087,-7.109582,5.073313
1587369683630,0.9780314,-8.986636,5.1559134
1587369683643,0.9780314,-8.986636,5.1559134
1587369683652,1.3491327,-13.705607,6.1387334
1587369683664,0.79607207,-16.03756,8.178593
1587369683674,0.46447513,-17.68118,10.839748
1587369683686,0.22984336,-16.94975,13.651738
1587369683695,0.34237084,-13.450625,14.05157
1587369683707,0.7577648,-11.298238,12.378023
1587369683717,1.2318168,-8.983045,8.015787
1587369683729,-1.0977415,-7.264008,6.0345855
1587369683739,-1.0977415,-7.264008,6.0345855
1587369683751,-1.4820108,-4.548983,5.2026005
1587369683761,-1.8938135,-3.9444473,6.8246717
1587369683773,-1.8938135,-3.9444473,6.8246717
1587369683783,-4.059369,-7.3897038,9.149442
1587369683795,-4.6244006,-10.969035,7.0928226
1587369683803,-6.6846113,-15.586253,4.4544125
1587369683815,-8.409634,-21.78125,2.7880478
1587369683827,-7.800309,-29.46185,-0.30047232
1587369683837,-6.5385647,-32.58628,-2.1021092
1587369683849,-3.6152446,3.4201171,-4.865018
1587369683859,-8.59279,8.438364,-4.1479545
1587369683871,-8.59279,8.438364,-4.1479545
1587369683881,-8.51019,5.222951,0.1352724
1587369683893,0.2693477,-2.468422,-0.093373865
1587369683903,4.308366,-8.702923,-0.08020575
1587369683915,3.7804444,-12.508507,-1.0079589
1587369683926,2.5246856,-15.721525,-1.1168951
1587369683936,2.6264393,-19.103334,1.0019734
1587369683948,4.570531,-12.780249,0.50278234
1587369683959,4.0617633,-9.715671,0.2777274
1587369683969,4.0617633,-9.715671,0.2777274
1587369683981,2.5366566,-6.9838862,1.364695
1587369683991,2.042254,-6.6486983,1.2366052
1587369684005,1.5993267,-6.8557963,0.41180268
1587369684016,1.3575124,-7.3106947,0.1412579
1587369684026,1.1815386,-8.145074,-0.32680854
1587369684038,0.91937345,-9.045294,-0.93014735
1587369684048,-0.1400608,-9.939528,-2.5773582
1587369684061,-0.80564886,-9.76116,-2.195483
1587369684071,-0.80564886,-9.76116,-2.195483
1587369684081,-0.9864111,-9.147048,-1.3599066
1587369684093,-0.91697925,-8.899248,-1.1540052
1587369684103,-0.8619126,-8.850166,-0.93613285
1587369684115,-1.0019734,-8.772355,-0.8439561
1587369684126,-0.82480246,-8.598776,-0.93373865
1587369684136,-0.78529817,-8.499416,-1.1360487
1587369684149,-0.08259996,-8.327033,-0.8774749
1587369684159,0.33758244,-9.349358,-0.2657564
1587369684169,0.33758244,-9.349358,-0.2657564
1587369684181,-0.5470751,-8.785523,0.25737667
1587369684191,-0.4201824,-8.468291,0.78769237
1587369684203,0.2681506,-8.655039,0.91458505
1587369684213,1.377863,-9.244013,0.10055647
1587369684225,2.4600422,-10.103531,-0.50876784
1587369684235,3.0621839,-10.809821,-0.878672
1587369684247,2.9161377,-11.086351,-0.58298814
1587369684258,0.92775315,-10.688913,1.5777789
1587369684268,0.92775315,-10.688913,1.5777789
1587369684280,-0.019153614,-10.875661,2.3942018
1587369684290,-0.019153614,-10.875661,2.3942018
1587369684302,1.4041992,-10.478224,0.12689269
1587369684312,1.7609353,-10.257957,-0.79367787
1587369684324,1.7609353,-10.257957,-0.79367787
1587369684334,2.5019407,-10.861296,-0.14963761
1587369684346,3.1794999,-11.404779,0.110133275
1587369684354,3.1794999,-11.404779,0.110133275
1587369684366,2.7832594,-12.290634,0.82240826
1587369684378,2.135628,-13.796587,0.91937345
1587369684388,2.135628,-13.796587,0.91937345
1587369684400,4.8027687,-13.485341,-1.79206
1587369684410,5.616797,-13.389573,-3.05141
1587369684422,5.616797,-13.389573,-3.05141
1587369684432,1.4975731,-15.290569,-1.8782512
1587369684444,-1.3251907,-15.546749,-1.9656396
1587369684454,-4.140772,-15.543158,-2.707842
1587369684465,-6.805518,-15.510836,-2.9903579
1587369684477,-8.7771435,-14.979323,-2.7222073
1587369684486,-9.668983,-14.119804,-2.706645
1587369684497,-9.002198,-14.873978,-2.0937295
1587369684508,-8.01459,-15.654488,-1.7753005
1587369684519,-8.01459,-15.654488,-1.7753005
1587369684530,-5.149928,-15.247474,0.06943185
1587369684541,-3.9205053,-14.384364,1.1133038
1587369684552,-3.0609868,-13.966576,1.5717934
1587369684564,-2.7018566,-14.068329,1.8459295
1587369684572,-2.7018566,-14.068329,1.8459295
1587369684584,-2.1679497,-13.067553,-1.1432313
1587369684596,-1.6879122,-12.4151325,-2.5187001
1587369684607,-0.1388637,-8.24563,-1.9668367
1587369684616,-0.1388637,-8.24563,-1.9668367
1587369684629,0.21308395,-5.7975593,-1.282095
1587369684638,0.14724341,-5.3318872,-0.9876082
1587369684649,0.06584055,-5.029021,-0.47524905
1587369684661,-0.049081136,-4.559757,0.4309563
1587369684672,-0.45729253,-3.9013517,0.89902276
1587369684680,-0.5770026,-3.2585084,1.7549498
1587369684691,-0.89902276,-2.7461493,1.9512744
1587369684702,-1.5777789,-2.3116016,2.0709844
1587369684713,-2.0638018,-1.7322049,1.9991584
1587369684724,-2.1763294,-2.1547816,1.4532804
1587369684735,-1.5849615,-2.112883,0.8643068
1587369684745,-0.9720459,-2.1080947,-0.050278235
1587369684757,-0.7529764,-2.4420857,0.09935937
1587369684768,-0.7194576,-2.755726,0.41180268
1587369684780,-0.93014735,-3.3039982,1.6220716
1587369684787,-1.0965444,-3.705027,2.4001873
1587369684799,-1.0965444,-3.705027,2.4001873
1587369684810,-1.2234371,-4.2544966,4.2760444
1587369684822,-1.2234371,-4.2544966,4.2760444
1587369684834,0.51834464,-6.229713,6.325481
1587369684844,1.6747441,-7.7213006,6.1926026
1587369684856,2.421735,-9.270349,5.6886234
1587369684866,2.6408045,-11.467029,5.4539914
1587369684879,0.33399114,-14.875175,8.566454
1587369684889,-1.4784195,-15.393519,11.427525
1587369684901,-1.4784195,-15.393519,11.427525
1587369684911,-0.8379706,-14.097059,11.844116
1587369684923,-0.21308395,-14.056358,9.419987
1587369684933,-0.31244332,-13.461399,7.739257
1587369684945,-1.7681179,-11.9746,7.2029557
1587369684956,-3.5051112,-9.728839,6.4607534
1587369684966,-3.855862,-7.3346367,5.33907
1587369684979,-3.4632127,-2.791639,4.685453
1587369684989,-4.334702,-2.432509,5.315128
1587369684999,-4.334702,-2.432509,5.315128
1587369685011,-6.3422403,-11.18571,5.3259015
1587369685021,-6.3422403,-11.18571,5.3259015
1587369685033,-12.789825,-26.463112,6.1303535
1587369685043,-5.183447,-36.504395,1.400608
1587369685055,-5.183447,-36.504395,1.400608
1587369685065,-4.023456,12.091916,-10.813412
1587369685076,-10.408792,18.814835,-6.465542
1587369685089,-5.424064,8.495825,0.36631286
1587369685099,-5.424064,8.495825,0.36631286
1587369685108,4.367024,-15.027207,-1.1240777
1587369685122,2.2732944,-17.459717,-1.7585411
1587369685132,1.0079589,-19.275719,-1.4065934
1587369685142,1.4149733,-21.924902,2.6240451
1587369685154,1.4149733,-21.924902,2.6240451
1587369685164,4.661511,-16.17403,1.3730747
1587369685176,4.4603977,-11.62744,0.3196259
1587369685186,3.3566709,-8.119935,0.40342298
1587369685199,2.2709002,-5.90889,0.7110779
1587369685209,1.1695676,-5.161899,1.922544
1587369685219,1.1695676,-5.161899,1.922544
1587369685231,1.1611878,-7.1754227,0.49200845
1587369685241,1.2473791,-8.723274,0.15562311
1587369685253,1.2473791,-8.723274,0.15562311
1587369685263,0.842759,-11.656171,-2.8694508
1587369685275,0.18195933,-10.736797,-2.457648
1587369685285,-0.6440403,-9.421184,-1.8447324
1587369685297,-1.1935096,-8.358158,-1.780089
1587369685307,-1.5490485,-7.878121,-1.246182
1587369685319,-1.5490485,-7.878121,-1.246182
1587369685329,-1.9273324,-8.340201,-0.49440265
1587369685341,-1.7322049,-8.593987,-0.19991584
1587369685351,-1.7322049,-8.593987,-0.19991584
1587369685363,-0.19632454,-8.805874,-0.6488287
1587369685373,0.52073884,-8.668207,-1.0893618
1587369685385,1.3575124,-8.838196,-1.6220716
1587369685395,1.5310919,-8.811859,-1.5622166
1587369685407,0.90381116,-8.826224,-0.92416185
1587369685417,0.06943185,-8.74123,-0.32321724
1587369685429,-0.5434838,-9.314642,0.30047232
1587369685439,0.30406362,-9.627085,-0.46686932
1587369685451,0.30406362,-9.627085,-0.46686932
1587369685461,1.6184803,-10.386047,-1.0522517
1587369685473,1.270124,-10.57878,-0.24420857
1587369685483,0.2645593,-11.068395,1.8315643
1587369685495,0.23104046,-11.297041,1.769315
1587369685506,0.6631939,-11.394006,0.7649474
1587369685517,1.3227965,-11.232397,-0.21906945
1587369685527,1.4341269,-11.039664,-0.62488663
1587369685539,1.0235212,-10.891224,0.6440403
1587369685548,1.0235212,-10.891224,0.6440403
1587369685561,2.6503813,-11.447875,0.7445967
1587369685570,2.4660277,-11.949461,0.7398083
1587369685581,1.7501614,-12.319365,1.1575965
1587369685592,1.0175357,-12.398374,1.6256629
1587369685603,0.8487445,-12.454638,1.6005238
1587369685614,1.5095441,-12.913127,0.7230489
1587369685625,2.1535845,-13.602657,-0.22984336
1587369685636,3.0693667,-14.049175,-0.6655881
1587369685648,4.4927197,-13.970167,-1.6484078
1587369685660,4.2556934,-14.106636,-3.084929
1587369685668,4.2556934,-14.106636,-3.084929
1587369685680,0.92775315,-14.41908,-2.4612393
1587369685692,-5.9483943,-14.381969,-2.585738
1587369685703,-5.9483943,-14.381969,-2.585738
1587369685712,-10.31901,-12.759898,-2.8742392
1587369685724,-10.126276,-13.016078,-2.6156654
1587369685736,-10.126276,-13.016078,-2.6156654
1587369685746,-7.651869,-15.260642,-2.731784
1587369685758,-4.392163,-14.560338,0.05626374
1587369685769,-2.9712043,-13.745112,1.4221559
1587369685779,-2.9712043,-13.745112,1.4221559
1587369685791,-1.1252748,-13.463793,1.5885528
1587369685801,-1.1252748,-13.463793,1.5885528
1587369685814,-0.94451255,-14.627376,0.44771573
1587369685823,-1.3251907,-15.111004,-1.412579
1587369685835,-1.3251907,-15.111004,-1.412579
1587369685845,-1.0163386,-13.154942,-2.1272483
1587369685857,-1.2270284,-11.365275,-3.0358477
1587369685867,-0.9744401,-9.239224,-1.4580688
1587369685879,-0.6907272,-7.7919292,-1.7621324
1587369685887,-0.712275,-6.3805475,-2.0123265
1587369685899,-1.1647792,-5.269638,-1.5334862
1587369685911,-0.4429273,-3.8367083,0.8283938
1587369685921,-0.49799395,-3.0693667,1.2162545
1587369685933,-0.49799395,-3.0693667,1.2162545
1587369685943,-1.6639702,-1.0702082,1.6867151
1587369685955,-1.7226281,-1.673547,0.9720459
1587369685965,-1.6472107,-2.0721815,0.38307226
1587369685977,-1.7609353,-1.6531962,-0.05267244
1587369685987,-1.9285295,-1.5131354,-0.14844051
1587369685999,-1.8303672,-1.4891934,-0.1364695
1587369686009,-1.2880806,-1.8255788,0.11133038
1587369686021,-0.93972415,-2.2409728,0.59256494
1587369686031,-0.93972415,-2.2409728,0.59256494
1587369686043,-0.8379706,-3.1675289,2.0123265
1587369686053,-0.9720459,-3.478775,2.8670566
1587369686065,-0.79008657,-3.9935284,3.9959226
1587369686075,-0.30885202,-4.8494554,4.8243165
1587369686088,0.6404489,-8.520964,5.9483943
1587369686097,0.6404489,-8.520964,5.9483943
1587369686111,-0.5422867,-13.911509,9.155427
1587369686122,-0.59974754,-17.735048,12.682086
1587369686132,-0.59974754,-17.735048,12.682086
1587369686142,0.5602432,-23.240517,13.745112
1587369686154,0.2645593,-18.825607,8.175002
1587369686164,-0.93972415,-14.608222,7.2544312
1587369686175,-1.9213469,-9.702502,6.7839704
1587369686188,-2.9855695,-1.8650831,6.090849
1587369686198,-2.9855695,-1.8650831,6.090849
1587369686208,-2.9783869,-4.948815,4.8626237
1587369686220,-4.559757,-10.105926,5.481525
1587369686231,-4.559757,-10.105926,5.481525
1587369686241,-8.336611,-21.932085,6.7492547
1587369686253,-7.1191587,-28.480227,6.179435
1587369686263,-5.770026,-32.52643,3.8007953
1587369686275,-2.2409728,-22.019472,-7.2580223
1587369686285,-2.779668,-1.5167267,-13.35366
1587369686297,-8.228871,14.642938,-6.254852
1587369686307,-15.871163,17.744625,-6.525397
1587369686319,-9.405622,3.98874,3.3375173
1587369686327,-9.405622,3.98874,3.3375173
1587369686339,9.743204,-17.81286,-2.4145525
1587369686351,7.9224133,-22.02546,-2.9364884
1587369686361,3.2716765,-21.960815,-3.2441432
1587369686373,2.8395233,-17.629704,1.1240777
1587369686383,2.8395233,-17.629704,1.1240777
1587369686395,2.815581,-7.8733325,0.48841715
1587369686405,1.8255788,-5.765238,0.82360536
1587369686416,0.90261406,-4.9823337,2.2337902
1587369686429,0.62009823,-5.197812,2.456451
1587369686435,1.2473791,-6.3901243,1.7058687
1587369686447,2.0602105,-7.9942393,0.40821138
1587369686459,2.4384944,-10.8182,-1.3263878
1587369686471,2.055422,-11.534067,-2.8778305
1587369686481,2.055422,-11.534067,-2.8778305
1587369686493,0.35075054,-9.939528,-1.8136078
1587369686503,-0.48722005,-8.969876,-1.5729905
1587369686515,-0.78290397,-8.303091,-0.92176765
1587369686525,-1.0378864,-8.3150625,-1.7669208
1587369686537,-1.0749966,-8.380903,-0.88944596
1587369686545,-1.1456255,-8.826224,-0.90620536
1587369686558,-1.1755531,-9.078813,-0.581791
1587369686569,-1.1671734,-9.187749,-0.34835634
1587369686578,-0.92655605,-9.027337,-0.24061728
1587369686590,0.427365,-7.9750857,-1.423353
1587369686602,0.3196259,-8.244433,-1.4401124
1587369686611,-0.22505496,-8.529344,-1.1947067
1587369686622,-0.8415619,-8.8884735,-0.58418524
1587369686634,-1.1599907,-9.003395,0.04309563
1587369686645,-0.7290344,-8.978256,-0.1436521
1587369686653,0.4261679,-9.153033,-0.82599956
1587369686664,1.496376,-9.742006,-1.4736311
1587369686675,1.7872716,-10.364499,-1.4891934
1587369686686,1.3838485,-10.670957,-0.664391
1587369686698,0.8523358,-10.984597,0.6404489
1587369686710,0.51235914,-11.355699,1.6531962
1587369686722,0.6619968,-11.741165,1.1683705
1587369686733,1.1348516,-11.641806,0.17836803
1587369686743,1.5490485,-11.261127,-0.39743748
1587369686755,1.5813702,-10.93791,-0.6787562
1587369686763,1.5813702,-10.93791,-0.6787562
1587369686776,2.0566192,-11.010934,0.37469256
1587369686785,2.4265234,-11.537658,0.4417302
1587369686798,1.982399,-12.228385,0.50517654
1587369686808,0.9636662,-12.957419,0.91817635
1587369686820,0.4381389,-13.863625,-0.19752164
1587369686829,0.4381389,-13.863625,-0.19752164
1587369686842,1.5346833,-14.097059,-0.4309563
1587369686852,3.003526,-14.075512,-1.4748282
1587369686864,3.003526,-14.075512,-1.4748282
1587369686872,2.7150247,-13.917495,-1.8590976
1587369686884,0.439336,-14.202404,-1.0618285
1587369686896,-1.3383588,-14.083892,-0.7062895
1587369686906,-3.1890767,-13.506889,-1.3634979
1587369686919,-6.7648168,-12.698846,-3.0250738
1587369686929,-6.7648168,-12.698846,-3.0250738
1587369686938,-8.032547,-11.900379,-3.8654387
1587369686950,-8.072051,-13.001713,-3.582923
1587369686962,-8.072051,-13.001713,-3.582923
1587369686972,-6.3745623,-15.198392,-1.8734628
1587369686984,-5.2540755,-15.134946,-0.5530606
1587369686994,-4.035427,-14.292187,1.6400281
1587369687007,-3.1962593,-13.705607,2.7281928
1587369687017,-2.8491,-13.439851,2.6886885
1587369687027,-2.846706,-13.554773,0.9564836
1587369687039,-2.2768857,-13.364434,-2.4193408
1587369687049,-1.614889,-12.650962,-2.9149406
1587369687061,-1.614889,-12.650962,-2.9149406
1587369687071,-0.10055647,-9.709685,-3.1040826
1587369687084,0.2621651,-8.194156,-2.7281928
1587369687090,0.021547815,-6.8222775,-2.6431987
1587369687102,-0.7374141,-5.511452,-1.3587095
1587369687114,-0.7374141,-5.511452,-1.3587095
1587369687126,-1.0486604,-3.514688,1.1827357
1587369687136,-1.3515269,-2.7629087,1.7872716
1587369687149,-1.899799,-1.1216835,1.6412252
1587369687159,-1.899799,-1.1216835,1.6412252
1587369687169,-1.2856863,-1.3036429,0.5482722
1587369687180,-1.2856863,-1.3036429,0.5482722
1587369687192,-0.8559271,-1.9045875,-0.35075054
1587369687200,-1.1097125,-1.5334862,-0.2693477
1587369687212,-1.1097125,-1.5334862,-0.2693477
1587369687225,-1.0402806,-1.8710686,0.10295067
1587369687235,-0.7146692,-2.2361844,0.007182605
1587369687244,-0.89543146,-2.6491842,0.6536171
1587369687256,-1.1839328,-3.1387985,1.4975731
1587369687269,-0.4297592,-4.882974,4.0857053
1587369687279,-0.4297592,-4.882974,4.0857053
1587369687289,-0.2801216,-7.726089,4.9344497
1587369687301,-1.151611,-10.064027,5.141548
1587369687309,-1.151611,-10.064027,5.141548
1587369687321,-4.0414124,-15.690401,9.308656
1587369687333,-4.2580876,-19.998766,13.504495
1587369687343,-1.3359646,-23.743298,15.005659
1587369687355,1.6950948,-24.219744,12.715605
1587369687365,1.6950948,-24.219744,12.715605
1587369687377,-0.35673606,-16.748638,7.321469
1587369687387,-2.789245,-12.270284,6.884527
1587369687399,-3.9109285,-2.1631613,6.5936313
1587369687409,-3.9109285,-2.1631613,6.5936313
1587369687421,-1.3311762,1.5454572,8.10557
1587369687431,-1.2366052,-0.79128367,9.329007
1587369687443,-2.5941176,-5.9567738,8.49343
1587369687453,-3.9731777,-12.4151325,6.7684083
1587369687465,-4.51307,-19.231424,6.1100025
1587369687475,-5.0757074,-27.308264,-3.582923
1587369687487,-2.1092918,-26.24883,-6.5924344
1587369687498,-8.930372,9.252393,-7.1383123
1587369687508,-8.930372,9.252393,-7.1383123
1587369687520,-14.167688,6.4763155,1.6915035
1587369687528,-14.167688,6.4763155,1.6915035
1587369687540,2.6767175,-4.608838,-1.9931729
1587369687553,5.2361193,-11.581951,-4.0581717
1587369687563,5.2361193,-11.581951,-4.0581717
1587369687573,2.565387,-21.44247,-1.3275849
1587369687585,3.3267434,-22.321142,1.4891934
1587369687594,4.3993454,-17.814058,1.6651673
1587369687607,4.6040497,-12.433089,0.830788
1587369687617,4.0186677,-8.972271,0.7757214
1587369687629,2.8874073,-7.1622543,1.22224
1587369687637,1.9644425,-6.631939,1.2689269
1587369687649,1.4856021,-7.285556,0.1376666
1587369687661,1.3072342,-7.9667063,-0.20829555
1587369687670,0.7110779,-8.669404,-0.6404489
1587369687682,-0.09935937,-9.129091,-2.136825
1587369687693,-0.9756372,-9.129091,-1.4676456
1587369687704,-2.207454,-9.002198,-1.0690111
1587369687715,-1.9560628,-8.700529,-1.2066777
1587369687726,-1.4556746,-8.704121,-1.7130513
1587369687737,-1.2138603,-8.796297,-1.2665327
1587369687746,-1.2138603,-8.796297,-1.2665327
1587369687758,-1.3323733,-8.651448,-0.8583213
1587369687770,-1.0905589,-8.415619,-1.1420342
1587369687780,-0.2896984,-8.451532,-1.0594343
1587369687792,-0.2896984,-8.451532,-1.0594343
1587369687802,-0.25977087,-8.831013,-0.33758244
1587369687814,-0.9995792,-8.738836,0.37349546
1587369687824,-1.4652514,-8.449138,0.7206547
1587369687838,-1.1408371,-8.336611,0.7098808
1587369687849,1.1767502,-9.333796,-1.0163386
1587369687859,1.1767502,-9.333796,-1.0163386
1587369687871,2.1164744,-9.945514,-0.8607155
1587369687881,1.6017209,-10.299856,-0.142455
1587369687893,1.6017209,-10.299856,-0.142455
1587369687903,0.10055647,-11.757924,1.163582
1587369687915,-0.6919243,-12.012907,1.4891934
1587369687925,-0.9995792,-11.162966,1.271321
1587369687937,-0.1400608,-10.761936,0.5602432
1587369687947,0.8619126,-10.548853,-0.24540567
1587369687959,1.3311762,-10.529699,-0.8403648
1587369687967,1.3060371,-10.480618,-0.49799395
1587369687980,2.2481554,-11.577163,-0.02633622
1587369687989,2.2481554,-11.577163,-0.02633622
1587369688001,1.0833763,-11.739968,0.04309563
1587369688014,0.21906945,-11.869255,0.5518635
1587369688024,-0.19991584,-11.951855,0.8714894
1587369688034,0.16879122,-12.363658,0.5434838
1587369688046,0.6344634,-13.072341,-0.1448492
1587369688056,0.94810385,-13.821727,-0.06703765
1587369688068,2.6300306,-14.395138,-1.8782512
1587369688076,2.6300306,-14.395138,-1.8782512
1587369688088,3.1914709,-14.634558,-3.41892
1587369688100,-0.31004912,-13.933057,-1.1372458
1587369688111,-0.31004912,-13.933057,-1.1372458
1587369688121,-6.2644286,-12.961011,-1.1480197
1587369688133,-7.7703815,-12.112267,-1.6986861
1587369688144,-7.7703815,-12.112267,-1.6986861
1587369688154,-8.204929,-13.87799,-3.8115692
1587369688165,-7.120356,-15.282189,-3.4213142
1587369688177,-5.839458,-16.183607,-2.2900538
1587369688185,-4.5657425,-15.776592,-0.7745243
1587369688198,-3.095703,-13.496115,2.5318682
1587369688208,-3.095703,-13.496115,2.5318682
1587369688220,-2.8658595,-13.381193,2.3570917
1587369688231,-2.896984,-13.4661875,0.34835634
1587369688240,-2.896984,-13.4661875,0.34835634
1587369688253,-2.705448,-12.641385,-2.220622
1587369688262,-2.3882163,-11.927913,-2.859874
1587369688274,-2.0290859,-10.836157,-2.565387
1587369688286,-1.3263878,-9.896433,-2.1930888
1587369688295,-0.7266402,-8.9998045,-2.2002714
1587369688307,-0.10414778,-8.086416,-1.423353
1587369688317,-0.18555063,-7.2604165,-1.0833763
1587369688329,-0.6631939,-5.207389,1.5741876
1587369688339,-0.6631939,-5.207389,1.5741876
1587369688351,-0.8415619,-3.894169,1.2150574
1587369688361,-0.8415619,-3.894169,1.2150574
1587369688373,-1.1815386,-0.9540894,0.6775591
1587369688383,-1.4173675,-0.8690952,0.82001406
1587369688395,-0.90381116,-1.1671734,0.31364042
1587369688403,-0.8595184,-0.9624691,0.19512744
1587369688414,-1.0426749,-1.1671734,0.4441244
1587369688426,-1.1300632,-1.6711528,0.6835446
1587369688439,-1.0965444,-2.220622,1.0043676
1587369688448,-0.5638345,-2.7844565,1.602918
1587369688460,-0.5638345,-2.7844565,1.602918
1587369688470,-0.89543146,-3.4021606,2.60968
1587369688482,-0.6919243,-4.262876,3.3051953
1587369688492,-0.6919243,-4.262876,3.3051953
1587369688505,-0.5566519,-6.8557963,3.819949
1587369688510,-0.5566519,-6.8557963,3.819949
1587369688525,-2.3104045,-11.473015,5.6467247
1587369688535,-3.8474822,-14.055161,7.989451
1587369688547,-3.9851487,-17.53992,12.424709
1587369688557,-2.586935,-20.545841,16.077065
1587369688569,1.6986861,-16.539145,10.752359
1587369688579,-1.9165585,-14.341269,7.273585
1587369688591,-1.9165585,-14.341269,7.273585
1587369688601,-2.7976246,-5.3606176,5.5701103
1587369688613,-2.0147207,-2.5797524,5.3223104
1587369688621,-1.2378023,-1.496376,5.7640405
1587369688633,-2.7461493,-3.0765493,6.8103065
1587369688645,-4.4340615,-8.542512,7.656657
1587369688656,-6.5936313,-14.237121,7.117962
1587369688667,-9.91798,-20.66196,8.610746
1587369688678,-10.483012,-28.814217,7.893683
1587369688688,-6.987478,-39.179913,4.548983
1587369688700,-2.3654714,-1.8495208,-10.82658
1587369688709,-9.13388,17.865534,-7.9810715
1587369688720,-9.13388,17.865534,-7.9810715
1587369688730,-14.325706,13.976152,2.72939
1587369688741,-4.605247,5.2899885,2.8275523
1587369688752,5.4061074,-8.087613,-0.47165772
1587369688763,6.7612257,-15.407885,-1.3060371
1587369688774,2.8383262,-17.881096,-3.834314
1587369688784,0.8295909,-22.688652,-0.3842694
1587369688795,1.6424223,-23.816322,3.4512417
1587369688806,2.9712043,-18.61013,1.1168951
1587369688818,3.1794999,-9.163807,0.5793968
1587369688830,1.3682863,-5.616797,1.2258313
1587369688838,1.3682863,-5.616797,1.2258313
1587369688850,0.7038953,-6.223727,1.0534488
1587369688861,0.51355624,-7.3669586,0.46806642
1587369688873,0.51355624,-7.3669586,0.46806642
1587369688883,-0.05626374,-9.595961,-0.5267244
1587369688895,-0.545878,-9.977836,-0.79966336
1587369688905,-0.7793127,-10.419566,-1.543063
1587369688917,-1.2330139,-10.188525,-2.7341783
1587369688927,-1.6460136,-9.38168,-2.219425
1587369688939,-1.5598224,-8.653842,-1.6531962
1587369688947,-1.079785,-8.4587145,-1.7465701
1587369688960,-1.1875241,-8.585608,-0.272939
1587369688970,-1.1875241,-8.585608,-0.272939
1587369688981,-1.5705963,-8.477868,-0.09935937
1587369688994,-1.1288661,-8.449138,-0.37828386
1587369689004,-0.47764325,-8.359355,-0.9995792
1587369689013,0.047884032,-8.360553,-0.688333
1587369689025,0.047884032,-8.360553,-0.688333
1587369689037,-0.40940848,-8.661025,-0.031124622
1587369689047,-0.80086046,-8.620323,-0.18435353
1587369689060,-0.6607997,-8.821436,0.19273324
1587369689070,-0.6607997,-8.821436,0.19273324
1587369689080,1.2413936,-9.896433,-0.90620536
1587369689091,1.2413936,-9.896433,-0.90620536
1587369689103,1.1049241,-10.805033,-0.79248077
1587369689113,0.06584055,-11.073183,0.6631939
1587369689125,0.06584055,-11.073183,0.6631939
1587369689135,-0.7278373,-11.232397,2.1547816
1587369689147,0.16759412,-11.379641,1.3431472
1587369689157,1.1288661,-11.429919,0.16998832
1587369689169,1.5334862,-11.401189,-0.5315128
1587369689179,1.4221559,-11.109096,0.15562311
1587369689191,1.4221559,-11.109096,0.15562311
1587369689201,1.6543933,-11.756727,0.049081136
1587369689213,0.80445176,-12.088325,0.34596214
1587369689224,0.80445176,-12.088325,0.34596214
1587369689234,-0.46686932,-12.37922,1.3395559
1587369689246,-0.11611878,-12.689269,0.78290397
1587369689255,1.1683705,-13.711593,-0.37708676
1587369689268,2.5330653,-14.117411,-1.5933412
1587369689274,2.5330653,-14.117411,-1.5933412
1587369689286,2.8574798,-14.295778,-3.1615434
1587369689298,-2.0745757,-14.340071,-0.8810662
1587369689310,-4.0462008,-13.704411,-1.4748282
1587369689320,-4.0462008,-13.704411,-1.4748282
1587369689333,-7.6494746,-12.800599,-3.3973722
1587369689342,-8.6095495,-11.908759,-4.7740383
1587369689354,-9.264363,-11.331757,-4.88896
1587369689365,-9.5492735,-11.791444,-4.292804
1587369689375,-9.168595,-13.11424,-3.490746
1587369689387,-8.178593,-14.859612,-1.99437
1587369689397,-6.9000893,-15.74427,-0.21906945
1587369689410,-4.1922474,-14.41908,3.394978
1587369689419,-4.1922474,-14.41908,3.394978
1587369689431,-2.682703,-13.760674,1.982399
1587369689441,-2.56419,-13.581109,0.2717419
1587369689453,-2.504335,-13.374011,-1.4867992
1587369689463,-2.0697873,-12.974179,-3.1148565
1587369689475,-1.1300632,-10.1143055,-2.9161377
1587369689485,-0.5434838,-8.719683,-2.146402
1587369689497,-0.31244332,-7.445967,-2.124854
1587369689508,-1.0881647,-5.1762643,-1.1097125
1587369689517,-1.0881647,-5.1762643,-1.1097125
1587369689529,-1.3994108,-4.1096473,0.7613561
1587369689541,-1.6567876,-3.6882677,2.0925324
1587369689551,-1.5717934,-3.690662,2.8909986
1587369689563,-1.2198458,-3.5422213,2.8862102
1587369689574,-0.9624691,-2.8048072,2.1021092
1587369689584,-0.7517793,-2.4827871,1.0283096
1587369689596,-0.6572084,-2.4827871,0.38187516
1587369689604,-0.81283146,-2.5785553,-0.073023155
1587369689616,-0.93972415,-2.9855695,0.1448492
1587369689628,-0.85473,-3.3734303,-0.80445176
1587369689638,-0.85473,-3.3734303,-0.80445176
1587369689650,-1.5131354,-3.549404,0.8714894
1587369689660,-1.6460136,-3.8426938,1.6567876
1587369689672,-1.6460136,-3.8426938,1.6567876
1587369689682,-1.970428,-4.1180267,3.7193923
1587369689694,-1.602918,-4.912902,4.2161894
1587369689704,-1.602918,-4.912902,4.2161894
1587369689716,-0.82599956,-6.787562,4.808754
1587369689726,-0.56982,-8.429984,4.9907136
1587369689739,-0.92535895,-10.247183,5.5126495
1587369689749,-1.2593501,-16.184803,10.332177
1587369689759,-0.45130703,-18.684351,14.196419
1587369689771,0.51116204,-19.44451,15.332468
1587369689780,1.0151415,-18.292898,11.48738
1587369689791,0.5710171,-16.431406,8.313866
1587369689803,-0.39384618,-13.922283,7.833828
1587369689815,-0.8571242,-10.6398325,7.630321
1587369689821,-2.079364,-7.123947,7.4830775
1587369689834,-2.6013002,-4.107253,6.453571
1587369689845,-2.3750482,-2.3690627,5.1343656
1587369689858,-4.3754034,-5.115212,5.5389857
1587369689868,-4.3754034,-5.115212,5.5389857
1587369689880,-7.72968,-14.3281,4.7022123
1587369689890,-10.21127,-19.414581,4.2580876
1587369689902,-10.21127,-19.414581,4.2580876
1587369689912,-3.1675289,-19.62527,-3.7984009
1587369689925,-2.135628,-0.9983821,-3.2249897
1587369689931,-5.4527946,9.374496,-4.406528
1587369689943,-10.524911,10.394426,-4.19943
1587369689955,-10.524911,10.394426,-4.19943
1587369689967,-3.5422213,0.20590134,-0.7182605
1587369689977,2.7569232,-7.667431,-0.49559975
1587369689989,2.6886885,-19.569008,-5.1666875
1587369689999,2.6886885,-19.569008,-5.1666875
1587369690010,2.7329812,-21.132421,-1.1959038
1587369690023,2.6599581,-15.47612,-0.8774749
1587369690033,1.8459295,-10.245986,-0.5267244
1587369690045,0.62608373,-6.7684083,-0.23582886
1587369690056,-0.46567222,-5.1810527,0.6560113
1587369690067,-0.92057055,-4.782418,0.9744401
1587369690077,-0.6787562,-5.6586957,0.19153613
1587369690089,0.22505496,-8.433576,-1.0271125
1587369690099,0.22505496,-8.433576,-1.0271125
1587369690111,0.45010993,-10.552444,-3.441665
1587369690121,0.45010993,-10.552444,-3.441665
1587369690133,-0.48841715,-9.1350765,-2.0530279
1587369690143,-0.5279215,-8.406042,-1.9081788
1587369690155,-0.5279215,-8.406042,-1.9081788
1587369690165,-0.6991069,-8.541314,-1.2389994
1587369690177,-0.8607155,-8.683769,-0.80684596
1587369690187,-0.5434838,-9.193734,-0.415394
1587369690199,-0.0011971008,-9.831789,-0.29209262
1587369690209,0.25498247,-9.94312,0.50158525
1587369690221,0.25498247,-9.94312,0.50158525
1587369690231,-0.2657564,-8.423999,1.3263878
1587369690244,-0.35553896,-7.976283,1.1815386
1587369690254,-0.35553896,-7.976283,1.1815386
1587369690266,0.5470751,-8.676587,-0.08738836
1587369690276,1.0737995,-9.39365,-0.35434186
1587369690287,1.2162545,-9.757569,-0.6440403
1587369690299,0.90740246,-9.647436,-0.46447513
1587369690309,-1.0905589,-9.941922,-0.3184288
1587369690321,-1.0905589,-9.941922,-0.3184288
1587369690331,-2.2230163,-10.619482,0.34955344
1587369690343,-2.2014685,-10.709264,0.33638534
1587369690353,-2.2014685,-10.709264,0.33638534
1587369690365,-0.6344634,-10.764331,-0.6607997
1587369690373,-0.1448492,-10.614694,-0.63087213
1587369690385,0.23582886,-10.3453455,-0.36391866
1587369690397,0.6847417,-10.073604,-0.272939
1587369690407,1.3323733,-10.176555,-0.50876784
1587369690419,1.7070658,-10.5919485,-0.6967127
1587369690429,0.4213795,-11.858481,0.8631097
1587369690441,0.12808979,-12.281057,1.459266
1587369690451,0.12808979,-12.281057,1.459266
1587369690463,1.5921441,-13.478158,0.2669535
1587369690473,2.232593,-14.002489,-0.1448492
1587369690485,2.7581203,-14.032416,-1.0833763
1587369690495,2.6599581,-14.607024,-2.005144
1587369690507,2.1691468,-15.31092,-2.006341
1587369690518,1.448492,-15.520412,-1.388637
1587369690528,-1.2868834,-14.856022,-0.80205756
1587369690540,-7.4830775,-13.254301,-1.4927847
1587369690550,-7.4830775,-13.254301,-1.4927847
1587369690561,-9.4535055,-12.422316,-4.268862
1587369690574,-10.01734,-13.729549,-1.8315643
1587369690583,-8.991425,-14.990097,-1.1767502
1587369690598,-7.41604,-15.503654,-0.7457938
1587369690606,-5.795165,-15.301343,0.39743748
1587369690618,-4.4077253,-15.030798,1.6687586
1587369690628,-3.323152,-14.592659,2.303222
1587369690640,-2.0937295,-15.377957,0.9552865
1587369690650,-2.0937295,-15.377957,0.9552865
1587369690662,-2.0410569,-15.731102,-1.3634979
1587369690672,-1.9476831,-14.4130945,-2.2349873
1587369690684,-1.4341269,-12.518084,-2.8562827
1587369690694,-1.6160861,-9.427169,-1.8902222
1587369690706,-1.8531121,-7.93199,-2.232593
1587369690716,-2.2960393,-6.4751186,-2.1990743
1587369690729,-2.160767,-4.3754034,0.93254155
1587369690739,-1.8698715,-4.5896845,0.9540894
1587369690749,-1.8698715,-4.5896845,0.9540894
1587369690761,-0.8331822,-2.9855695,0.50278234
1587369690771,-0.38307226,-2.2625206,1.1887212
1587369690783,-0.60333884,-2.1140802,0.93014735
1587369690794,-1.5705963,-1.8854338,0.533907
1587369690804,-1.9452889,-1.2198458,0.1604115
1587369690816,-2.1416135,-1.3670892,-0.047884032
1587369690828,-2.088941,-1.7262194,-0.22864626
1587369690838,-1.9967642,-1.5801731,0.39145198
1587369690848,-1.9967642,-1.5801731,0.39145198
1587369690859,-1.5813702,-2.5701754,1.34195
1587369690871,-1.6196774,-2.9771898,2.0015526
1587369690880,-1.6196774,-2.9771898,2.0015526
1587369690891,-1.9261353,-3.8630445,3.6846764
1587369690902,-1.5741876,-4.6339774,4.6016555
1587369690913,-1.0115502,-5.6586957,5.2085857
1587369690922,-0.37349546,-6.7743936,5.2875943
1587369690933,-0.37349546,-6.7743936,5.2875943
1587369690944,0.23104046,-10.69011,5.3642087
1587369690956,-0.6404489,-12.723985,6.563704
1587369690968,-1.400608,-15.537172,9.514558
1587369690978,-1.2366052,-18.890251,12.856863
1587369690990,-0.78410107,-19.928139,12.199655
1587369691000,-0.78410107,-19.928139,12.199655
1587369691011,-2.4492683,-13.620613,8.115147
1587369691023,-2.0099323,-6.6163764,6.975507
1587369691031,-2.0099323,-6.6163764,6.975507
1587369691043,1.6903064,-1.1563994,6.6427126
1587369691055,1.910573,-0.2789245,7.20535
1587369691065,0.29328972,-0.58538234,7.868544
1587369691077,-2.066196,-4.0545807,7.1766195
1587369691087,-3.8139634,-9.374496,4.4723687
1587369691099,-7.4028716,-16.186,2.8215668
1587369691109,-12.179304,-33.522415,1.3587095
1587369691121,-8.285135,-37.656006,-3.1663318
1587369691131,-8.285135,-37.656006,-3.1663318
1587369691144,-3.916914,6.5361705,-4.2521024
1587369691154,-10.87207,11.559206,-6.906075
1587369691164,-14.541184,8.110358,-1.1133038
1587369691176,-9.441534,8.492233,1.7202339
1587369691186,1.5179238,-1.3982137,0.12689269
1587369691198,5.628768,-10.943896,-2.232593
1587369691208,1.6927006,-20.131645,-2.2661119
1587369691221,2.1212628,-23.058558,1.6376339
1587369691231,2.1212628,-23.058558,1.6376339
1587369691241,3.0621839,-10.839748,0.39504328
1587369691253,1.8387469,-8.24563,0.9636662
1587369691263,0.7074866,-6.513426,1.6436194
1587369691275,0.22625206,-6.0250087,1.7142484
1587369691285,0.30406362,-6.469133,0.89184016
1587369691298,0.28491,-7.395689,-0.077811554
1587369691308,-0.6428431,-8.973468,-0.6919243
1587369691318,-1.1755531,-9.522937,-1.1145009
1587369691330,-1.1755531,-9.522937,-1.1145009
1587369691340,-2.079364,-9.876082,-1.8076223
1587369691352,-1.8830396,-9.454702,-1.8303672
1587369691360,-1.400608,-9.018958,-1.7992426
1587369691372,-0.82001406,-9.004593,-1.673547
1587369691384,-0.82001406,-9.004593,-1.673547
1587369691394,-0.5602432,-8.850166,-0.6871359
1587369691406,-0.9995792,-8.785523,-0.2753332
1587369691417,-1.246182,-8.534132,-0.35194764
1587369691427,-1.1755531,-8.276755,-0.6835446
1587369691439,-0.50038815,-8.00621,-1.4137762
1587369691449,-0.50038815,-8.00621,-1.4137762
1587369691460,-1.0785879,-8.635885,-0.6991069
1587369691471,-1.1779473,-8.919599,-0.47405192
1587369691481,-1.1779473,-8.919599,-0.47405192
1587369691493,-1.1133038,-8.7292595,0.6464345
1587369691503,-0.35793316,-8.8645315,0.2657564
1587369691515,0.3878607,-9.333796,-0.415394
1587369691524,0.700304,-9.898827,-0.7529764
1587369691536,0.33279404,-10.30225,-0.50876784
1587369691549,-0.2813187,-10.666168,0.2801216
1587369691559,-0.6931214,-11.277887,0.92176765
1587369691568,-0.41180268,-11.143812,0.521936
1587369691582,-0.41180268,-11.143812,0.521936
1587369691592,0.52073884,-10.415975,-0.019153614
1587369691602,0.7517793,-10.453085,-0.02633622
1587369691614,0.91937345,-10.741586,-0.047884032
1587369691624,1.2401965,-11.15698,-0.005985504
1587369691636,1.4664485,-11.616667,0.090979666
1587369691647,1.2940661,-11.870452,0.24301147
1587369691657,0.8571242,-12.01171,0.62847793
1587369691670,0.25019407,-12.304999,0.9600749
1587369691680,0.25019407,-12.304999,0.9600749
1587369691692,0.439336,-14.146141,0.3890578
1587369691702,1.3742718,-14.322115,-0.7146692
1587369691714,2.5318682,-14.398729,-2.7497406
1587369691724,2.7700913,-14.089877,-3.0538042
1587369691736,1.4460979,-14.628572,-1.745373
1587369691745,-0.36152446,-15.409082,-0.6799533
1587369691758,-2.6048915,-14.705187,-0.2753332
1587369691768,-5.0362034,-14.325706,-0.878672
1587369691779,-6.731298,-13.763068,-1.8363527
1587369691792,-8.161834,-11.425131,-3.9707835
1587369691798,-8.161834,-11.425131,-3.9707835
1587369691810,-8.730456,-11.058818,-3.9791632
1587369691822,-8.175002,-12.308591,-2.5127146
1587369691835,-7.065289,-13.22557,-1.2306197
1587369691844,-5.839458,-13.588292,0.49559975
1587369691857,-4.759673,-13.852851,2.220622
1587369691868,-3.2369606,-13.9198885,2.3774424
1587369691878,-3.2369606,-13.9198885,2.3774424
1587369691888,-3.5470097,-13.873201,-2.859874
1587369691900,-3.3327289,-12.707226,-2.7808652
1587369691908,-2.8658595,-11.45865,-3.1471782
1587369691919,-1.9883845,-10.250774,-2.7114334
1587369691930,-1.1468226,-8.604761,-2.7569232
1587369691942,-0.4417302,-7.2699933,-1.6472107
1587369691953,-0.20350714,-6.6175733,-1.4077905
1587369691964,-0.2753332,-5.753267,-0.61052144
1587369691975,-0.6811504,-4.871003,0.89902276
1587369691986,-0.82719666,-4.1395745,2.6001031
1587369691996,-1.1695676,-3.9707835,2.480393
1587369692007,-1.3180081,-3.5745432,2.2385786
1587369692016,-1.4377182,-2.693477,1.9321208
1587369692028,-1.5873557,-2.146402,1.5011644
1587369692040,-1.3383588,-2.3451207,0.7469909
1587369692050,-1.1899183,-1.934515,0.5746084
1587369692062,-1.1899183,-1.934515,0.5746084
1587369692072,-0.93134445,-2.220622,0.6679823
1587369692084,-0.9708488,-2.4732103,0.6787562
1587369692094,-0.9648633,-2.7856536,0.91219085
1587369692106,-1.0354922,-2.991555,1.30484
1587369692116,-1.2090719,-3.1854854,1.6903064
1587369692128,-1.2808979,-3.6882677,2.6312277
1587369692138,-0.89902276,-5.1810527,3.4632127
1587369692150,-0.878672,-6.615179,3.7660792
1587369692160,-0.878672,-6.615179,3.7660792
1587369692172,-2.2816741,-10.572795,5.805939
1587369692182,-3.6894648,-12.53604,7.429208
1587369692194,-4.709395,-15.444995,10.901998
1587369692204,-3.774459,-18.995596,14.00608
1587369692216,-1.9572599,-20.256144,13.200431
1587369692226,-0.45729253,-18.071434,10.521319
1587369692238,1.4089876,-15.555128,7.1371155
1587369692248,-0.40102878,-9.941922,5.245696
1587369692260,-0.40102878,-9.941922,5.245696
1587369692270,-1.0522517,-3.8953662,6.367379
1587369692283,-0.2825158,-2.0015526,6.7863646
1587369692293,-0.15203181,-1.1204864,7.349002
1587369692303,-1.5514427,-1.8962077,7.5908165
1587369692316,-2.4887726,-6.4906807,6.155493
1587369692326,-4.5286326,-12.491747,4.5238442
1587369692336,-8.792706,-19.22544,5.8837504
1587369692348,-13.018472,-25.655067,-0.5351041
1587369692358,-13.018472,-25.655067,-0.5351041
1587369692369,-6.647501,5.4539914,-4.5154643
1587369692382,-10.05445,9.198523,-1.0187328
1587369692391,-5.602432,8.582016,-0.40821138
1587369692403,2.291251,-1.0642227,-2.552219
1587369692414,2.291251,-1.0642227,-2.552219
1587369692424,1.4939818,-12.971785,-4.746505
1587369692435,-0.8319851,-15.72392,-4.212598
1587369692448,-1.055843,-19.566614,0.9720459
1587369692454,-1.055843,-19.566614,0.9720459
1587369692466,0.51355624,-16.831238,1.4532804
1587369692478,1.3503298,-13.372813,0.81163436
1587369692490,0.6787562,-8.06008,0.093373865
1587369692500,0.6787562,-6.9000893,0.48482585
1587369692512,0.6787562,-6.9000893,0.48482585
1587369692522,-0.92176765,-5.9388175,1.0366893
1587369692534,-0.7338228,-6.851008,0.8882488
1587369692544,-0.41299978,-8.0445175,0.035913024
1587369692556,-0.130484,-8.971074,-0.9744401
1587369692564,-0.130484,-8.971074,-0.9744401
1587369692576,-0.25617957,-9.800665,-1.982399
1587369692588,-1.340753,-8.258799,-0.93732995
1587369692598,-1.6651673,-8.062474,-0.027533319
1587369692610,-1.6651673,-8.062474,-0.027533319
1587369692620,-1.6160861,-8.895657,1.2689269
1587369692632,-1.3084313,-9.387665,1.5933412
1587369692642,-0.8822633,-9.49301,1.484405
1587369692654,-0.2705448,-9.646238,1.0235212
1587369692664,0.50637364,-9.494206,0.80684596
1587369692676,1.0582372,-8.930372,0.19991584
1587369692687,1.7322049,-8.36175,-0.020350715
1587369692697,2.1559787,-7.607576,-0.4405331
1587369692709,2.373851,-7.3753386,-0.4261679
1587369692719,2.5007436,-9.032125,-0.29328972
1587369692731,2.2744915,-10.329783,-0.31124622
1587369692742,1.7489643,-11.030087,-0.027533319
1587369692752,0.9684546,-10.988189,0.35913026
1587369692764,0.25977087,-10.618284,0.6931214
1587369692773,-0.33997664,-9.944317,0.80804306
1587369692788,-1.3515269,-9.343372,0.9708488
1587369692796,-1.3515269,-9.343372,0.9708488
1587369692808,-1.0175357,-10.193314,0.5805939
1587369692818,0.06703765,-10.451887,-0.6895301
1587369692830,0.045489833,-10.708067,-1.2665327
1587369692840,0.045489833,-10.708067,-1.2665327
1587369692852,-0.92535895,-11.798626,-1.1815386
1587369692862,-0.92535895,-11.798626,-1.1815386
1587369692874,0.16280572,-12.644977,-0.47644615
1587369692884,0.2873042,-12.531252,0.36152446
1587369692895,0.2873042,-12.531252,0.36152446
1587369692907,0.20709845,-12.471396,2.2301989
1587369692917,0.7697359,-12.932281,2.1823149
1587369692929,1.1420342,-13.631388,1.6424223
1587369692939,1.6005238,-14.026431,1.3934253
1587369692951,2.7820623,-14.725537,-1.435324
1587369692962,2.7820623,-14.725537,-1.435324
1587369692974,1.0522517,-16.782156,-0.58777654
1587369692984,-0.8319851,-17.08622,0.16160862
1587369692993,-0.8319851,-17.08622,0.16160862
1587369693006,-5.686229,-14.001291,-0.79008657
1587369693016,-8.106767,-10.5704,-2.8455088
1587369693027,-8.470686,-11.422736,-4.1240125
1587369693038,-8.470686,-11.422736,-4.1240125
1587369693049,-6.9000893,-13.0280485,-3.4033577
1587369693060,-5.566519,-13.833697,-1.5957354
1587369693071,-4.6363716,-14.021643,0.9672575
1587369693082,-3.891775,-13.93186,3.478775
1587369693094,-3.891775,-13.93186,3.478775
1587369693104,-3.5733461,-13.490129,2.565387
1587369693116,-3.5326445,-13.478158,-0.094570965
1587369693126,-3.6296098,-13.30817,-2.098518
1587369693138,-3.2154129,-12.658144,-3.1986535
1587369693149,-2.3319526,-10.05445,-2.3391352
1587369693158,-2.3319526,-10.05445,-2.3391352
1587369693170,-0.89902276,-7.949947,-1.8291701
1587369693182,-0.6943185,-6.9288197,-1.2078748
1587369693192,-0.6943185,-6.9288197,-1.2078748
1587369693204,-1.316811,-4.6351743,1.3467385
1587369693214,-1.7992426,-3.7481227,2.0961237
1587369693226,-1.7190368,-2.7724855,1.448492
1587369693236,-1.496376,-2.0147207,0.7218518
1587369693248,-1.1923125,-1.4879963,0.39983168
1587369693258,-1.1923125,-1.4879963,0.39983168
1587369693270,-1.3227965,-1.8315643,0.61530983
1587369693280,-1.4496891,-1.9249382,0.557849
1587369693292,-1.4496891,-1.9249382,0.557849
1587369693302,-1.1540052,-3.004723,0.5638345
1587369693314,-1.1228806,-3.2381577,0.6895301
1587369693324,-1.2868834,-3.333926,1.1288661
1587369693336,-1.8315643,-3.4225113,1.7513585
1587369693346,-2.3750482,-3.5098996,2.4660277
1587369693358,-2.7102363,-3.6727054,3.1196449
1587369693368,-2.8048072,-4.011485,3.7804444
1587369693380,-2.4971523,-5.9483943,4.650737
1587369693389,-2.4971523,-5.9483943,4.650737
1587369693401,-3.2824504,-10.439917,5.815516
1587369693413,-4.2544966,-12.650962,6.6762314
1587369693423,-4.784812,-16.304514,9.31943
1587369693435,-3.5936968,-20.123266,13.144167
1587369693443,-3.5936968,-20.123266,13.144167
1587369693455,0.80684596,-16.432604,10.96664
1587369693468,-2.5151088,-9.985018,8.5700445
1587369693478,-3.2944214,-6.4032927,6.9611416
1587369693488,-3.2944214,-6.4032927,6.9611416
1587369693500,-2.9472623,-5.08289,2.7162218
1587369693509,-2.9472623,-5.08289,2.7162218
1587369693521,-8.76996,-13.263878,4.4687777
1587369693533,-11.168951,-17.699137,6.4787097
1587369693544,-11.168951,-17.699137,6.4787097
1587369693554,-8.3390045,-24.92364,5.9651537
1587369693566,-5.0781016,-22.81794,2.255338
1587369693577,-3.5230677,-6.956353,-7.4447703
1587369693587,-3.892972,11.129447,-6.9707184
1587369693599,-10.131064,10.496181,-1.7070658
1587369693609,-10.131064,10.496181,-1.7070658
1587369693621,0.78888947,-7.678205,1.6089035
1587369693631,5.9878983,-16.129736,-1.5215151
1587369693643,5.9878983,-16.129736,-1.5215151
1587369693653,0.62488663,-20.074184,-3.1783028
1587369693665,-0.7529764,-17.778145,2.1068976
1587369693675,-0.0023942017,-10.388441,1.6364368
1587369693687,0.35793316,-7.511808,0.9600749
1587369693697,0.11133038,-6.0345855,0.91219085
1587369693709,-0.31603462,-5.6778493,1.1133038
1587369693719,0.24420857,-7.2747817,0.59855044
1587369693731,0.7074866,-8.470686,-0.01436521
1587369693741,0.7074866,-8.470686,-0.01436521
1587369693753,0.9636662,-10.448297,-1.1671734
1587369693763,0.62368953,-10.717644,-2.3463178
1587369693775,-0.1592144,-10.295067,-2.5390508
1587369693785,-0.61291564,-9.7324295,-1.875857
1587369693797,-1.4089876,-9.069236,-2.3307555
1587369693807,-1.7812861,-8.268375,-2.135628
1587369693819,-2.0470424,-8.103176,-2.1272483
1587369693829,-2.8119898,-8.237251,-0.6811504
1587369693841,-2.8119898,-8.237251,-0.6811504
1587369693851,-2.4193408,-8.687361,-0.545878
1587369693864,-1.8614918,-8.732851,-0.7769185
1587369693874,-1.1168951,-8.845378,-1.1204864
1587369693886,-0.91697925,-8.704121,-1.0714053
1587369693896,-1.1659763,-8.123527,-0.3842694
1587369693908,-1.2521675,-7.7440453,-0.19033903
1587369693918,-1.1049241,-8.161834,-0.32800564
1587369693930,0.022744916,-9.688137,-0.81163436
1587369693940,0.022744916,-9.688137,-0.81163436
1587369693952,1.4700398,-10.685322,-1.0366893
1587369693962,1.3024458,-11.060015,-0.7697359
1587369693974,1.3024458,-11.060015,-0.7697359
1587369693984,-0.688333,-10.499771,0.7721301
1587369693996,-1.6280571,-9.931149,1.6280571
1587369694006,-1.8112136,-9.861717,1.7298107
1587369694018,-1.1180922,-10.581175,0.8415619
1587369694028,-0.021547815,-12.11107,-1.3239936
1587369694040,-0.021547815,-12.11107,-1.3239936
1587369694051,-0.015562311,-12.698846,-0.770933
1587369694060,0.46208093,-13.120225,-0.16519992
1587369694071,0.46208093,-13.120225,-0.16519992
1587369694083,-0.19273324,-13.163321,0.8511387
1587369694094,-0.78170687,-13.078327,1.6160861
1587369694103,-1.0043676,-12.8532715,2.2529438
1587369694114,-0.272939,-12.546814,1.5370775
1587369694125,0.1412579,-12.902353,0.4309563
1587369694137,0.18315643,-13.176489,0.21188685
1587369694149,2.0913353,-14.401123,-0.51116204
1587369694159,2.2457612,-14.780604,-1.4676456
1587369694171,2.2457612,-14.780604,-1.4676456
1587369694181,-0.58538234,-13.402741,-1.0139444
1587369694193,-3.1136594,-12.6354,-1.1348516
1587369694203,-5.451597,-12.275072,-2.823961
1587369694215,-7.383718,-12.174516,-3.763685
1587369694226,-8.796297,-12.712014,-4.3299136
1587369694236,-9.441534,-14.026431,-4.425682
1587369694248,-8.513782,-17.093403,-3.681085
1587369694258,-8.513782,-17.093403,-3.681085
1587369694270,-7.21373,-16.942568,-1.9632454
1587369694280,-5.493496,-14.4107,1.4915876
1587369694293,-5.5341973,-13.772645,2.019509
1587369694303,-5.8382607,-13.406332,1.6089035
1587369694313,-6.6427126,-12.931084,-1.0199299
1587369694324,-6.6427126,-12.931084,-1.0199299
1587369694336,-6.3422403,-10.720038,-3.6882677
1587369694346,-4.7058034,-9.655815,-4.0665517
1587369694359,-1.3682863,-7.517793,-2.4253263
1587369694368,-1.3682863,-7.517793,-2.4253263
1587369694380,-0.3172317,-5.4324436,-1.3742718
1587369694391,-0.3172317,-5.4324436,-1.3742718
1587369694401,-1.3491327,-3.1591492,0.9804256
1587369694413,-1.7669208,-2.4839842,1.0067618
1587369694423,-1.7669208,-2.4839842,1.0067618
1587369694435,-1.9153614,-1.3670892,0.89662856
1587369694445,-1.6244658,-1.508347,1.0031705
1587369694457,-1.6005238,-1.0462662,1.3215994
1587369694467,-1.7776948,-1.0486604,1.2150574
1587369694479,-1.7992426,-1.1899183,0.4237737
1587369694489,-1.7992426,-1.1899183,0.4237737
1587369694501,-1.3072342,-1.7190368,0.60932434
1587369694511,-1.2234371,-1.9117701,0.92057055
1587369694523,-1.2234371,-1.9117701,0.92057055
1587369694533,-1.7705121,-2.1571758,1.7405846
1587369694545,-2.2457612,-2.2266076,2.469619
1587369694555,-2.0494366,-2.9041667,4.0462008
1587369694567,-1.3862427,-3.8989575,4.9643774
1587369694577,-0.35913026,-6.1638722,6.123171
1587369694589,-0.35075054,-9.467871,7.047333
1587369694599,-3.0478187,-16.555904,9.387665
1587369694611,-5.269638,-21.899763,12.694057
1587369694620,-5.269638,-21.899763,12.694057
1587369694633,-6.2105594,-23.39973,12.125435
1587369694643,-3.3614593,-17.62731,10.445902
1587369694655,-1.0869676,-14.647726,8.066066
1587369694665,-1.3838485,-11.893197,7.132327
1587369694677,-2.3570917,-8.438364,6.8342485
1587369694687,-2.3822308,-4.2317514,6.564901
1587369694699,-2.9137435,-0.22266077,6.7731967
1587369694709,-3.9731777,-1.3275849,6.767211
1587369694723,-3.9731777,-1.3275849,6.767211
1587369694733,-8.230068,-9.783905,6.5241995
1587369694743,-9.180567,-15.240291,6.4739213
1587369694753,-8.532935,-21.80998,6.0716953
1587369694765,-9.301474,-29.551632,3.83192
1587369694775,-4.489128,-24.63873,-8.576031
1587369694786,-4.8362875,9.012972,-5.9519854
1587369694799,-8.22528,15.357607,-3.9312792
1587369694809,-9.8677025,4.450821,2.2637177
1587369694819,-9.8677025,4.450821,2.2637177
1587369694831,1.198298,-11.769896,3.4524388
1587369694841,4.7261543,-18.270153,0.7457938
1587369694853,4.7261543,-18.270153,0.7457938
1587369694864,-0.005985504,-19.161993,-4.023456
1587369694874,-1.4161704,-16.803705,-1.9285295
1587369694886,-1.2078748,-12.264298,1.4676456
1587369694897,-0.7218518,-8.221688,2.1918917
1587369694907,-0.36870706,-6.007052,1.7872716
1587369694919,-0.09935937,-5.3833623,1.6328455
1587369694929,0.6715736,-8.040926,0.6428431
1587369694941,1.0498575,-9.1350765,0.12210429
1587369694951,1.0498575,-9.1350765,0.12210429
1587369694963,0.85473,-10.223241,-0.32441434
1587369694973,0.47764325,-10.172963,-0.1316811
1587369694985,-0.094570965,-9.818622,-1.4221559
1587369694995,-1.340753,-8.871715,-2.3762453
1587369695007,-2.2828712,-8.057686,-1.5885528
1587369695017,-2.6874914,-8.052897,-1.1599907
1587369695029,-2.6156654,-8.524555,-1.1899183
1587369695039,-2.6156654,-8.524555,-1.1899183
1587369695051,-2.6084828,-8.884883,-0.10534488
1587369695061,-1.9692309,-8.723274,-0.34955344
1587369695073,-1.3970166,-8.700529,-0.985214
1587369695083,-1.2366052,-8.541314,-1.863886
1587369695095,-1.2497733,-8.171411,-1.5119383
1587369695106,-1.2497733,-8.171411,-1.5119383
