@ HyperIMU -ianovir - 2018
@ Date:Mon Apr 20 09:56:43 GMT+02:00 2020, Sampling Rate:10ms

timestamp,K6DS3TR_Accelerometer.x,K6DS3TR_Accelerometer.y,K6DS3TR_Accelerometer.z
1587369403911,0.0,0.0,0.0
1587369403922,0.0,0.0,0.0
1587369403933,0.0,0.0,0.0
1587369403943,0.0,0.0,0.0
1587369403954,0.0,0.0,0.0
1587369403966,0.0,0.0,0.0
1587369403977,0.0,0.0,0.0
1587369403988,0.90261406,1.697489,9.787497
1587369403999,0.94690675,1.8650831,9.668983
1587369404010,0.9564836,1.9405005,9.594764
1587369404021,0.80205756,1.8974048,9.564836
1587369404029,0.7218518,1.8291701,9.589975
1587369404040,0.6847417,1.7549498,9.879673
1587369404051,0.50757074,1.673547,9.903615
1587369404063,0.32680854,1.6280571,9.855731
1587369404074,0.34356794,1.578976,9.902418
1587369404085,0.45370123,1.5993267,9.853337
1587369404096,0.5566519,1.6484078,9.782708
1587369404108,0.6979098,1.7357962,9.667787
1587369404119,0.62967503,1.7202339,9.572019
1587369404130,0.545878,1.7034745,9.465476
1587369404139,0.581791,1.7741034,9.317036
1587369404150,0.581791,1.7741034,9.317036
1587369404162,0.7637503,2.1308396,8.519767
1587369404174,0.6655881,2.1452048,8.632295
1587369404183,0.60094464,1.9033904,8.957906
1587369404194,0.60453594,1.4580688,9.816227
1587369404205,0.50158525,1.1587936,9.605537
1587369404216,0.36750996,1.1994951,9.507375
1587369404227,0.3866636,1.5813702,9.336189
1587369404238,0.7098808,1.8148049,9.495404
1587369404247,0.7098808,1.8148049,9.495404
1587369404257,0.60214174,1.5382746,9.239224
1587369404268,0.60214174,1.5382746,9.239224
1587369404279,0.47285482,0.7398083,10.327389
1587369404291,0.60812724,0.78649527,10.188525
1587369404302,0.60812724,0.78649527,10.188525
1587369404313,1.0809821,0.78410107,9.714474
1587369404324,1.1121067,0.8846575,9.753978
1587369404335,1.0390835,1.0319009,9.67018
1587369404346,1.0283096,1.0941502,9.44752
1587369404356,1.0690111,1.2545617,9.358934
1587369404367,1.115698,1.4329298,9.188946
1587369404378,1.1779473,1.5658079,9.161413
1587369404390,1.1779473,1.5658079,9.161413
1587369404399,1.1815386,1.423353,9.064447
1587369404410,1.1815386,1.423353,9.064447
1587369404421,0.79367787,0.44771573,9.354146
1587369404432,0.50278234,0.025139118,10.010158
1587369404443,0.6332663,0.16998832,9.696517
1587369404455,0.39264908,0.19512744,9.944317
1587369404462,-0.061052144,0.23702596,10.111911
1587369404473,-0.049081136,0.14604631,9.753978
1587369404484,0.142455,0.06823475,9.226056
1587369404495,0.12689269,0.12928689,8.942344
1587369404506,-0.10654198,0.29448682,8.172607
1587369404517,-0.51834464,0.58897364,9.647436
1587369404529,-0.7086837,0.6955156,7.797915
1587369404540,-0.59017074,0.5662287,8.189367
1587369404551,-0.59017074,0.5662287,8.189367
1587369404564,-1.3096284,0.7769185,10.469844
1587369404569,-1.3670892,0.94331545,9.534908
1587369404582,-1.4496891,1.0103531,9.8916445
1587369404593,-0.50397944,0.93373865,9.187749
1587369404605,0.037110128,0.50517654,8.331821
1587369404616,0.21667525,0.01436521,8.881291
1587369404628,0.6464345,-0.62129533,8.1163435
1587369404637,0.47884035,-0.16519992,9.625888
1587369404648,0.47884035,-0.16519992,9.625888
1587369404659,0.7649474,1.1994951,12.814964
1587369404670,1.0031705,1.1109096,10.905589
1587369404680,1.2725182,1.3599066,9.537302
1587369404691,1.4389153,1.3467385,9.015367
1587369404702,1.5682021,1.3084313,8.446744
1587369404713,1.5358804,1.2306197,8.085219
1587369404725,1.4568717,1.1647792,8.207323
1587369404738,1.5227122,0.9720459,10.155006
1587369404748,1.5227122,0.9720459,10.155006
1587369404758,0.9588778,1.6723499,12.7814455
1587369404769,0.82240826,2.4049757,9.733627
1587369404778,1.2844892,3.3638535,8.191761
1587369404792,2.2469583,3.86903,8.787917
1587369404803,3.3913867,3.405752,9.320627
1587369404813,4.1922474,2.3750482,9.056067
1587369404823,4.1335893,1.9369092,9.03452
1587369404836,3.8642416,1.9764135,8.944737
1587369404847,3.4021606,2.243367,9.303867
1587369404857,2.7521348,2.4899697,9.898827
1587369404866,2.3511062,2.669535,9.922769
1587369404878,3.2704794,1.7501614,9.051279
1587369404890,3.5853171,1.4209588,9.050082
1587369404898,3.5853171,1.4209588,9.050082
1587369404910,2.9735985,1.8004397,9.156625
1587369404923,2.3702598,1.9776106,9.123106
1587369404933,2.1883004,2.1811178,8.986636
1587369404944,2.1703439,2.2900538,8.979453
1587369404954,2.3953989,2.2170308,8.828619
1587369404966,2.6898856,2.1894975,8.566454
1587369404977,2.6180596,2.2349873,8.792706
1587369404987,2.3080103,2.160767,8.808268
1587369404999,2.2661119,2.1799207,8.333019
1587369405008,2.2218192,1.7944542,7.657854
1587369405020,2.3008277,1.3742718,7.3873096
1587369405030,2.3008277,1.3742718,7.3873096
1587369405042,2.0278888,1.3323733,8.019379
1587369405054,1.9548657,1.6220716,8.154651
1587369405064,2.1906946,1.9680338,8.182184
1587369405073,2.3642743,2.3355439,8.39886
1587369405086,2.280477,2.4049757,8.610746
1587369405096,1.7729063,2.0266917,9.15423
1587369405109,1.1061212,0.30526072,7.6506715
1587369405115,1.1061212,0.30526072,7.6506715
1587369405127,0.63206923,-0.24540567,7.514202
1587369405139,0.92895025,-0.079008654,8.562862
1587369405151,0.7182605,0.17238252,8.176199
1587369405163,0.7110779,0.46208093,8.508993
1587369405172,0.37469256,0.18435353,8.963891
1587369405184,-0.075417355,-0.44651863,8.748413
1587369405195,-0.7290344,-1.3263878,8.808268
1587369405205,-0.9744401,-2.1643584,8.384495
1587369405217,-1.0378864,-2.3786395,8.010999
1587369405224,-0.9756372,-1.9488802,7.526173
1587369405236,-0.45250413,-2.0817583,6.7624226
1587369405247,-0.5554548,-2.5677812,7.0329676
1587369405259,-1.9249382,-4.285621,7.7081323
1587369405272,-2.1535845,-4.6483426,7.8829093
1587369405281,-2.1535845,-4.6483426,7.8829093
1587369405292,-0.80086046,-3.3770216,8.447941
1587369405303,0.81283146,-2.6731262,8.488642
1587369405314,2.6312277,-2.6982653,8.839393
1587369405325,3.6966474,-3.2010477,9.876082
1587369405336,2.9652188,-5.17387,11.079168
1587369405346,1.5167267,-6.5457473,11.686098
1587369405359,2.6168625,-2.7856536,12.088325
1587369405369,6.039374,-0.33877954,13.802573
1587369405379,6.039374,-0.33877954,13.802573
1587369405391,7.067683,-1.3754689,14.027628
1587369405402,7.551312,-0.61650693,13.385982
1587369405412,8.918402,-0.8331822,12.0488205
1587369405424,8.746018,-2.3654714,11.799823
1587369405435,8.0445175,-3.4799721,11.428721
1587369405445,8.380903,-2.5210943,11.936293
1587369405457,8.668207,-1.1085154,12.398374
1587369405467,10.839748,-0.45848963,13.845669
1587369405479,10.839748,-0.45848963,13.845669
1587369405489,9.996989,-0.82121116,13.48175
1587369405501,9.291897,-0.7015011,13.599066
1587369405511,8.718486,-1.2150574,12.641385
1587369405524,8.726865,-1.5478514,12.058397
1587369405534,8.416816,-1.9428947,11.518504
1587369405544,8.019379,-1.9907787,10.80623
1587369405555,7.9331875,-1.7118542,10.411186
1587369405568,7.5465236,-2.4396915,9.578004
1587369405578,7.5465236,-2.4396915,9.578004
1587369405588,6.220136,-3.7600937,9.512163
1587369405600,6.1100025,-4.369418,9.009381
1587369405610,5.9388175,-4.679467,8.672996
1587369405623,5.8083334,-4.763264,8.052897
1587369405633,5.533,-4.709395,7.499837
1587369405643,5.1942205,-4.7405195,6.703765
1587369405655,5.0745106,-4.829105,6.2392898
1587369405664,5.213374,-5.0278234,5.8083334
1587369405677,5.019444,-5.243302,5.837064
1587369405687,4.3382936,-5.403713,5.9639564
1587369405697,3.015497,-4.960786,5.8574142
1587369405709,2.1392193,-4.119224,6.351817
1587369405719,2.5605986,-3.465607,5.7305217
1587369405731,2.5605986,-3.465607,5.7305217
1587369405741,4.1144357,-3.9145198,5.2325277
1587369405754,5.9160724,-4.325125,5.595249
1587369405764,6.9958572,-3.8379054,5.7963624
1587369405776,7.654263,-3.6511576,5.6670756
1587369405786,8.35337,-3.5326445,5.08289
1587369405798,9.137471,-3.3446999,4.6160207
1587369405808,9.694122,-3.2465374,3.276465
1587369405820,9.233239,-3.1771057,3.323152
1587369405830,9.233239,-3.1771057,3.323152
1587369405842,8.346188,-2.5701754,4.3047748
1587369405852,8.14268,-2.6288335,5.3725886
1587369405864,7.5465236,-2.7006595,5.3474493
1587369405874,7.6853876,-2.160767,4.6363716
1587369405886,8.476671,-1.1384429,5.040992
1587369405896,9.251195,-1.7046716,4.449624
1587369405908,9.029732,-4.8482585,0.7086837
1587369405918,8.640674,-7.1167645,-0.8403648
1587369405931,8.640674,-7.1167645,-0.8403648
1587369405941,6.5601125,-5.7017913,-0.6619968
1587369405951,6.1040173,-5.0254292,-0.47524905
1587369405963,6.2632318,-4.859032,1.851915
1587369405974,6.835446,-4.3742065,2.542642
1587369405984,8.039729,-4.935647,2.8383262
1587369405996,8.568848,-5.067328,2.4552538
1587369406007,8.878897,-5.249287,2.36188
1587369406017,9.26197,-5.4982843,2.585738
1587369406029,9.898827,-4.5765166,1.8650831
1587369406039,9.068039,-5.955577,1.8555063
1587369406052,8.364143,-5.366603,2.1140802
1587369406062,8.364143,-5.366603,2.1140802
1587369406072,7.6614456,-5.3486466,1.5646108
1587369406084,7.72968,-5.8741736,1.5346833
1587369406095,8.028955,-5.213374,2.0338743
1587369406104,7.016208,-5.565322,2.445677
1587369406117,7.2221093,-4.4819455,2.4636335
1587369406127,7.8829093,-4.0258503,2.5450363
1587369406139,9.44752,-5.2899885,2.56419
1587369406149,9.994595,-5.021838,2.645593
1587369406162,9.994595,-5.021838,2.645593
1587369406172,10.023325,-4.832696,3.6535518
1587369406183,9.504981,-4.794389,4.0306387
1587369406193,8.974665,-4.6399627,3.2082303
1587369406205,8.7771435,-4.771644,2.707842
1587369406214,8.7771435,-4.771644,2.707842
1587369406226,8.593987,-4.55856,1.9141643
1587369406235,8.882488,-4.915296,2.0147207
1587369406247,8.871715,-5.0505686,2.5821466
1587369406259,8.871715,-5.0505686,2.5821466
1587369406270,7.928399,-4.817134,3.1783028
1587369406281,7.9355817,-4.805163,2.6408045
1587369406291,7.785944,-4.3742065,2.4372973
1587369406304,7.621941,-4.185065,2.5474305
1587369406314,7.4962454,-4.096479,2.5965118
1587369406325,7.443573,-3.9803603,2.4708161
1587369406336,7.5225816,-3.9145198,2.2110453
1587369406347,7.551312,-4.594473,1.4449008
1587369406358,7.551312,-4.594473,1.4449008
1587369406369,7.9391727,-4.542998,2.2002714
1587369406380,7.503428,-4.1060557,2.5953147
1587369406391,5.306748,-3.845088,4.582502
1587369406402,2.1871033,-5.0960584,7.7069354
1587369406414,2.6276364,-7.920019,4.9524064
1587369406424,6.9264255,-7.4471645,0.9672575
1587369406436,9.720459,-5.645528,-1.3144168
1587369406447,10.516531,-5.837064,0.09935937
1587369406457,11.864467,-5.7065797,2.336741
1587369406469,8.032547,-5.1223946,-0.47644615
1587369406479,8.032547,-5.1223946,-0.47644615
1587369406491,9.048885,-4.060566,-0.7290344
1587369406501,8.750807,-4.571728,-0.18076223
1587369406513,8.184579,-5.0661306,0.12808979
1587369406523,7.9032598,-4.473566,0.053869538
1587369406535,8.032547,-3.9468415,0.2741361
1587369406543,8.440758,-4.223372,0.33758244
1587369406555,8.74961,-5.046977,1.0175357
1587369406568,8.892065,-6.0022635,1.7717092
1587369406577,8.892065,-6.0022635,1.7717092
1587369406589,8.513782,-4.6603136,3.039439
1587369406598,7.904457,-5.052963,2.8550856
1587369406609,7.904457,-5.052963,2.8550856
1587369406620,6.381745,-7.7560163,3.1244333
1587369406632,6.5936313,-7.9307933,2.6048915
1587369406643,6.7133417,-7.9068513,2.006341
1587369406652,6.6893997,-8.649054,2.0518308
1587369406663,6.623559,-8.9758625,1.447295
1587369406675,6.993463,-9.540894,0.6739678
1587369406687,7.1514807,-7.5201874,0.5279215
1587369406697,5.66109,-6.4008985,1.8423382
1587369406709,5.66109,-6.4008985,1.8423382
1587369406719,6.209362,-6.8366427,1.3503298
1587369406733,6.6403184,-7.0425444,0.8331822
1587369406743,6.631939,-6.7851677,1.7776948
1587369406752,6.4643445,-6.5110316,1.5131354
1587369406765,6.525397,-6.4583592,1.3730747
1587369406774,6.671443,-6.7612257,0.9923966
1587369406785,6.9288197,-7.03177,0.6955156
1587369406797,7.052121,-7.3777328,0.6548142
1587369406809,7.004237,-7.687782,0.81043726
1587369406819,7.1873937,-7.100005,0.21068975
1587369406831,6.9467764,-7.1263413,0.11971009
1587369406841,6.6965823,-7.1347213,-0.20111294
1587369406853,6.26802,-7.038953,0.25617957
1587369406864,6.25964,-7.091625,0.40102878
1587369406874,6.5481415,-7.237672,0.17118542
1587369406885,6.943185,-7.3071036,0.45489833
1587369406899,7.597999,-7.21373,0.36391866
1587369406909,7.597999,-7.21373,0.36391866
1587369406919,6.956353,-7.03177,1.2030864
1587369406929,6.903681,-6.933608,1.2665327
1587369406941,6.871359,-6.827066,0.9648633
1587369406951,6.88333,-6.793547,0.5231331
1587369406963,7.026982,-6.8557963,0.34117374
1587369406973,7.1059904,-6.5960255,0.5374983
1587369406985,7.1083846,-6.23091,0.7410054
1587369406996,7.505822,-5.959168,0.21188685
1587369407007,7.587225,-6.542156,0.91937345
1587369407017,7.551312,-6.5385647,1.5298948
1587369407029,7.0461354,-6.432023,1.2952632
1587369407039,6.895301,-6.6163764,0.7589619
1587369407051,6.7145386,-6.7827735,-0.095768064
1587369407063,6.7803793,-6.9000893,-1.021127
1587369407073,6.9024835,-6.9144545,-0.89184016
1587369407082,6.9491706,-6.727707,-0.5542577
1587369407096,6.92044,-6.0489507,-0.079008654
1587369407107,6.9599442,-5.9890957,0.2717419
1587369407116,6.6893997,-5.459977,0.49919105
1587369407128,6.0800753,-3.726575,1.6843209
1587369407138,6.0800753,-3.726575,1.6843209
1587369407150,7.043741,-5.246893,1.1923125
1587369407161,7.043741,-5.246893,1.1923125
1587369407171,7.1861963,-8.091205,0.25378537
1587369407183,7.53575,-8.08881,0.16639702
1587369407193,7.53575,-8.08881,0.16639702
1587369407205,7.157466,-6.9731126,0.45130703
1587369407216,6.453571,-6.293159,0.24660277
1587369407226,5.687426,-5.9531827,0.49200845
1587369407238,5.129577,-6.8653736,0.36990416
1587369407248,5.270835,-6.8198833,0.5710171
1587369407260,5.270835,-6.8198833,0.5710171
1587369407271,5.195418,-6.953959,1.3730747
1587369407281,4.685453,-7.776367,2.0470424
1587369407293,4.685453,-7.776367,2.0470424
1587369407303,4.179079,-7.3322425,1.5969325
1587369407315,4.1180267,-6.691794,0.6356605
1587369407325,4.7429137,-6.4846954,-0.58657944
1587369407337,4.823119,-6.1411276,-0.6787562
1587369407348,5.5365915,-9.569624,0.30765492
1587369407358,5.5365915,-9.569624,0.30765492
1587369407370,6.4882865,-12.083536,-0.81402856
1587369407379,6.429629,-11.911154,-0.6931214
1587369407390,6.429629,-11.911154,-0.6931214
1587369407402,6.4392056,-10.374076,0.61291564
1587369407414,5.9424086,-9.91439,0.6799533
1587369407421,5.911284,-9.2547865,0.80564886
1587369407432,5.697003,-8.963891,0.6979098
1587369407443,5.645528,-8.710106,0.5291186
1587369407454,5.2385135,-8.213309,0.19393034
1587369407465,4.3263226,-7.6626425,0.32321724
1587369407477,4.2461166,-9.536105,0.059855044
1587369407489,4.449624,-11.274296,0.008379706
1587369407500,4.3897686,-11.471817,0.130484
1587369407514,3.7720647,-10.571598,0.16280572
1587369407525,3.064578,-10.283096,-0.5746084
1587369407535,2.8383262,-10.425551,-0.89184016
1587369407548,2.4396915,-10.128671,-0.14963761
1587369407557,2.4396915,-10.128671,-0.14963761
1587369407569,1.079785,-10.378864,-0.7757214
1587369407579,1.2054806,-10.633847,0.17597382
1587369407591,1.2054806,-10.633847,0.17597382
1587369407601,2.232593,-10.030508,-0.07182605
1587369407613,3.952827,-9.051279,-0.46686932
1587369407623,6.979098,-7.1766195,-1.0881647
1587369407635,4.534618,-8.019379,0.664391
1587369407644,4.0414124,-8.847773,0.8643068
1587369407656,3.7098155,-8.992621,0.10055647
1587369407666,3.4105403,-9.066842,-0.04189853
1587369407678,3.2609026,-9.085996,-0.1436521
1587369407688,3.2609026,-9.085996,-0.1436521
1587369407700,3.3650506,-9.068039,0.04189853
1587369407711,3.25372,-9.36492,0.14844051
1587369407722,3.1914709,-9.2907,-0.0035913025
1587369407732,3.453636,-9.800665,0.093373865
1587369407744,3.2680852,-9.719262,0.16160862
1587369407752,3.1483753,-9.57561,0.047884032
1587369407764,3.0023289,-9.503783,-0.01316811
1587369407776,2.8754363,-9.478644,-0.059855044
1587369407786,2.7497406,-9.41879,-0.07062895
1587369407799,2.815581,-9.333796,-0.008379706
1587369407809,2.9724014,-9.344569,-0.027533319
1587369407819,3.1531637,-9.329007,-0.038307227
1587369407831,3.3135753,-9.3182335,-0.009576807
1587369407841,3.3135753,-9.3182335,-0.009576807
1587369407853,3.5529952,-9.222465,0.04189853
1587369407861,3.6008794,-9.160215,0.095768064
1587369407873,4.542998,-9.297882,-0.12210429
1587369407885,2.4157495,-8.4347725,0.8702923
1587369407895,3.9755719,-9.564836,-0.021547815
1587369407908,3.738546,-9.19134,0.1436521
1587369407918,3.8905778,-9.193734,0.2908955
1587369407928,3.9971197,-9.214086,0.2681506
1587369407940,3.9971197,-9.214086,0.2681506
1587369407950,4.068946,-9.156625,0.1436521
1587369407962,3.8989575,-9.167398,0.25019407
1587369407971,3.8055837,-9.121908,0.22864626
1587369407982,3.5697548,-9.111135,0.260968
1587369407995,3.6643257,-9.210494,0.20949265
1587369408005,3.6774938,-9.2787285,0.0035913025
1587369408015,3.1268275,-9.392453,-0.17597382
1587369408028,2.991555,-9.618706,-0.11971009
1587369408038,2.991555,-9.618706,-0.11971009
1587369408048,2.979584,-9.576807,-0.15442601
1587369408060,2.9999347,-9.555259,-0.2633622
1587369408071,2.9999347,-9.555259,-0.2633622
1587369408081,4.6806645,-8.737639,-0.61530983
1587369408093,4.4568067,-9.52174,0.0023942017
1587369408103,3.5637693,-9.7324295,-0.02633622
1587369408115,3.1244333,-9.506178,-0.11971009
1587369408126,2.6132712,-9.440337,-0.21547815
1587369408137,2.2756886,-9.460688,-0.21308395
1587369408147,2.2014685,-9.259575,-0.47165772
1587369408159,2.718616,-9.31105,-0.4345476
1587369408169,2.718616,-9.31105,-0.4345476
1587369408181,3.1232362,-9.569624,-0.20949265
1587369408189,3.1232362,-9.569624,-0.20949265
1587369408201,3.5865142,-9.139865,-0.10414778
1587369408214,3.657143,-8.863335,-0.05626374
1587369408224,3.7708676,-8.772355,0.020350715
1587369408235,3.558981,-8.780735,-0.05746084
1587369408245,3.0657754,-8.283937,-0.31244332
1587369408257,2.8419175,-7.955932,-0.40222588
1587369408267,2.9759927,-7.8326306,-0.36990416
1587369408279,3.3075895,-10.26514,-0.11252748
1587369408289,3.3075895,-10.26514,-0.11252748
1587369408301,2.9963434,-10.554838,-0.17477672
1587369408312,2.4349031,-11.056423,-0.2813187
1587369408322,2.4349031,-11.056423,-0.2813187
1587369408334,1.6412252,-10.66138,-0.70509243
1587369408344,1.3970166,-10.370484,-0.81522566
1587369408356,0.81402856,-10.158598,-1.0474633
1587369408367,0.9684546,-9.840169,-0.5793968
1587369408377,0.88944596,-9.434352,-0.9552865
1587369408389,0.7661445,-9.52174,-0.6931214
1587369408399,1.0630256,-10.143036,-0.7577648
1587369408412,1.1504139,-10.195708,-0.78888947
1587369408422,1.1504139,-10.195708,-0.78888947
1587369408433,0.8607155,-10.225636,-0.90141696
1587369408443,0.9516952,-9.992201,-0.8678981
1587369408454,0.89662856,-10.092757,-0.82719666
1587369408466,0.90381116,-10.281899,-0.9804256
1587369408475,0.8463503,-9.967062,-0.8678981
1587369408487,0.60094464,-9.646238,-0.91697925
1587369408498,2.9891608,-8.865729,0.15322891
1587369408508,7.0952168,-9.234436,0.6667852
1587369408519,7.0952168,-9.234436,0.6667852
1587369408532,1.8950106,-9.454702,-0.51116204
1587369408542,2.006341,-9.552865,-0.78050977
1587369408552,1.9488802,-9.838972,-0.82240826
1587369408564,2.148796,-9.586384,-0.30645782
1587369408575,2.1703439,-9.7324295,-0.02873042
1587369408585,2.2936451,-9.691729,0.25019407
1587369408598,2.0410569,-9.592369,-0.089782566
1587369408607,2.0231004,-9.539697,-0.22266077
1587369408618,2.0231004,-9.539697,-0.22266077
1587369408628,1.9967642,-9.878476,-0.24301147
1587369408639,2.0135236,-9.775525,-0.2681506
1587369408650,1.8806454,-9.722853,-0.38307226
1587369408661,1.7070658,-9.762358,-0.4357447
1587369408671,1.7070658,-9.762358,-0.4357447
1587369408683,1.5370775,-9.822212,-0.50637364
1587369408693,1.364695,-9.727641,-0.5662287
1587369408704,1.3108255,-9.725247,-0.5614403
1587369408715,1.316811,-9.787497,-0.59615624
1587369408726,1.3239936,-9.848549,-0.61291564
1587369408735,1.3491327,-9.910798,-0.61171854
1587369408746,1.3634979,-9.920375,-0.581791
1587369408757,1.4101849,-9.860519,-0.5386954
1587369408767,1.4796166,-9.803059,-0.48961425
1587369408778,1.6579847,-9.712079,-0.40821138
1587369408789,1.7429788,-9.702502,-0.34356794
1587369408800,1.8315643,-9.703699,-0.2908955
1587369408811,1.9045875,-9.716867,-0.260968
1587369408821,1.9045875,-9.716867,-0.260968
1587369408834,1.9776106,-9.773131,-0.25737667
1587369408840,1.9847932,-9.7719345,-0.24420857
1587369408852,1.9764135,-9.767146,-0.24181437
1587369408864,2.0135236,-9.739613,-0.25378537
1587369408876,2.0350714,-9.728839,-0.2669535
1587369408887,2.0590134,-9.698911,-0.29568392
1587369408902,2.0769699,-9.728839,-0.30765492
1587369408912,2.0458453,-9.745598,-0.34835634
1587369408925,1.9907787,-9.749189,-0.39624038
1587369408935,1.9165585,-9.749189,-0.4369418
1587369408944,1.8064252,-9.774328,-0.48243165
1587369408957,1.7010803,-9.80665,-0.56982
1587369408967,1.7010803,-9.80665,-0.56982
1587369408978,1.5861586,-9.8198185,-0.6703765
1587369408989,1.541866,-9.827001,-0.7206547
1587369409001,1.5586253,-9.832987,-0.79128367
1587369409010,1.5334862,-9.841366,-0.80086046
1587369409021,1.5466543,-9.822212,-0.80086046
1587369409032,1.5586253,-9.792285,-0.770933
1587369409043,1.6005238,-9.734824,-0.7493851
1587369409055,1.6591818,-9.721656,-0.7182605
1587369409064,1.7142484,-9.709685,-0.6811504
1587369409076,1.7501614,-9.683349,-0.6380547
1587369409086,1.7944542,-9.677363,-0.59735334
1587369409098,1.8411411,-9.702502,-0.5410896
1587369409109,1.8974048,-9.685743,-0.4357447
1587369409119,1.8974048,-9.685743,-0.4357447
1587369409131,2.067393,-9.715671,-0.32561144
1587369409141,2.086547,-9.745598,-0.30526072
1587369409153,2.086547,-9.745598,-0.30526072
1587369409163,2.0649989,-9.757569,-0.23942018
1587369409175,2.042254,-9.755175,-0.25139117
1587369409185,2.0266917,-9.757569,-0.2645593
1587369409198,2.0087352,-9.757569,-0.2765303
1587369409207,1.9668367,-9.725247,-0.29927522
1587369409219,1.9668367,-9.725247,-0.29927522
1587369409229,1.8459295,-9.787497,-0.39983168
1587369409242,1.7549498,-9.799467,-0.4213795
1587369409252,1.7549498,-9.799467,-0.4213795
1587369409262,1.6400281,-9.80665,-0.427365
1587369409274,1.6328455,-9.805453,-0.40701428
1587369409282,1.6496049,-9.782708,-0.40342298
1587369409294,1.661576,-9.759963,-0.4285621
1587369409307,1.6639702,-9.722853,-0.45250413
1587369409317,1.6663644,-9.718064,-0.4441244
1587369409327,1.6567876,-9.722853,-0.39384618
1587369409339,1.733402,-9.707291,-0.37469256
1587369409349,1.733402,-9.707291,-0.37469256
1587369409361,1.7776948,-9.749189,-0.38187516
1587369409372,1.7669208,-9.762358,-0.37828386
1587369409382,1.8016368,-9.738416,-0.38187516
1587369409394,1.7872716,-9.728839,-0.35673606
1587369409404,1.839944,-9.689334,-0.36272156
1587369409416,1.8459295,-9.677363,-0.35673606
1587369409427,1.8243817,-9.698911,-0.34835634
1587369409438,1.8171991,-9.752781,-0.35434186
1587369409448,1.8171991,-9.752781,-0.35434186
1587369409460,1.7357962,-9.764751,-0.35075054
1587369409470,1.7130513,-9.7803135,-0.35434186
1587369409482,1.6879122,-9.779117,-0.37349546
1587369409492,1.6687586,-9.7958765,-0.37708676
1587369409504,1.6807296,-9.781511,-0.39504328
1587369409513,1.6639702,-9.764751,-0.39983168
1587369409524,1.6699557,-9.759963,-0.4165911
1587369409536,1.6723499,-9.77792,-0.44891283
1587369409547,1.697489,-9.782708,-0.45848963
1587369409558,1.7190368,-9.733627,-0.45729253
1587369409569,1.7226281,-9.7324295,-0.4345476
1587369409580,1.7429788,-9.76116,-0.4357447
1587369409591,1.7705121,-9.791088,-0.39863458
1587369409603,1.7980455,-9.817424,-0.39743748
1587369409611,1.8088194,-9.813833,-0.3890578
1587369409624,1.8016368,-9.800665,-0.39145198
1587369409634,1.8076223,-9.7563715,-0.3866636
1587369409646,1.8207904,-9.750386,-0.40102878
1587369409657,1.8112136,-9.727641,-0.40222588
1587369409667,1.8219875,-9.739613,-0.4189853
1587369409680,1.7717092,-9.753978,-0.427365
1587369409690,1.7597382,-9.752781,-0.4441244
1587369409700,1.7597382,-9.752781,-0.4441244
1587369409712,1.7238252,-9.743204,-0.45250413
1587369409720,1.7310078,-9.762358,-0.44651863
1587369409732,1.7633295,-9.782708,-0.45968673
1587369409744,1.7776948,-9.788693,-0.46806642
1587369409754,1.7645266,-9.764751,-0.46208093
1587369409766,1.7477672,-9.773131,-0.50278234
1587369409776,1.7405846,-9.783905,-0.50278234
1587369409789,1.7513585,-9.738416,-0.45968673
1587369409799,1.7513585,-9.738416,-0.45968673
1587369409809,1.7717092,-9.758766,-0.4357447
1587369409822,1.7597382,-9.731233,-0.44891283
1587369409828,1.7621324,-9.718064,-0.45729253
1587369409840,1.7717092,-9.706094,-0.45370123
1587369409852,1.7705121,-9.740809,-0.48961425
1587369409864,1.7609353,-9.8042555,-0.48722005
1587369409874,1.733402,-9.803059,-0.45489833
1587369409886,1.7226281,-9.80665,-0.41180268
1587369409897,1.7381904,-9.791088,-0.36750996
1587369409907,1.7609353,-9.765948,-0.33399114
1587369409919,1.8064252,-9.736021,-0.31244332
1587369409929,1.8195933,-9.727641,-0.32202014
1587369409941,1.8327614,-9.744401,-0.35075054
1587369409951,1.8327614,-9.744401,-0.35075054
1587369409963,1.8100165,-9.822212,-0.37110126
1587369409973,1.7681179,-9.837775,-0.35075054
1587369409985,1.7549498,-9.821015,-0.30765492
1587369409995,1.7417817,-9.809045,-0.2705448
1587369410008,1.7489643,-9.782708,-0.32561144
1587369410018,1.7489643,-9.782708,-0.32561144
1587369410028,1.7741034,-9.788693,-0.33159694
1587369410040,1.7968484,-9.744401,-0.25378537
1587369410048,1.7968484,-9.744401,-0.25378537
1587369410060,1.8626889,-9.698911,-0.29328972
1587369410073,1.8435353,-9.709685,-0.32561144
1587369410083,1.8495208,-9.714474,-0.2789245
1587369410093,1.8674773,-9.750386,-0.25857377
1587369410105,1.8986019,-9.774328,-0.21906945
1587369410116,1.9309237,-9.765948,-0.20111294
1587369410126,1.9991584,-9.746795,-0.18555063
1587369410139,2.0685902,-9.744401,-0.16160862
1587369410149,2.0685902,-9.744401,-0.16160862
1587369410161,2.042254,-9.758766,-0.15562311
1587369410171,2.005144,-9.757569,-0.16998832
1587369410183,1.9608512,-9.765948,-0.19512744
1587369410193,1.922544,-9.763555,-0.23942018
1587369410205,1.9045875,-9.793482,-0.24779987
1587369410215,1.8746599,-9.834184,-0.25139117
1587369410228,1.8674773,-9.908403,-0.21787235
1587369410238,1.8531121,-9.951499,-0.1388637
1587369410248,1.9297266,-9.96347,-0.005985504
1587369410260,2.0578163,-9.975441,0.039504327
1587369410268,2.0841527,-9.986216,0.06823475
1587369410280,2.0841527,-9.986216,0.06823475
1587369410292,2.0733786,-9.982624,0.17836803
1587369410302,2.0494366,-9.986216,0.25258827
1587369410314,2.0697873,-10.0664215,0.33638534
1587369410324,2.0949266,-9.903615,0.37828386
1587369410336,2.1906946,-10.016143,0.46926352
1587369410346,2.1823149,-10.110714,0.545878
1587369410358,2.172738,-10.014946,0.7781156
1587369410369,2.1859062,-9.7863,0.93732995
1587369410379,2.1859062,-9.7863,0.93732995
1587369410391,2.2242134,-9.419987,1.3503298
1587369410401,2.3008277,-9.458294,1.6891093
1587369410413,2.3894134,-9.475053,1.8926164
1587369410423,2.4732103,-9.509769,2.098518
1587369410435,2.6982653,-9.419987,2.2780828
1587369410445,2.9233203,-9.277532,2.3175871
1587369410457,3.6248214,-9.193734,2.4408886
1587369410467,3.8845923,-9.209297,2.553416
1587369410479,4.0976763,-9.2069025,2.6719291
1587369410487,4.247314,-9.434352,2.6803088
1587369410499,4.43885,-9.911995,2.767697
1587369410511,4.272453,-11.767501,4.261679
1587369410521,3.7110126,-12.591106,4.5884876
1587369410533,2.4672248,-12.814964,3.3446999
1587369410544,1.5179238,-11.536461,1.8974048
1587369410554,1.5861586,-10.569203,2.1799207
1587369410566,1.8076223,-9.856929,2.4971523
1587369410576,2.4109612,-9.385271,3.3925838
1587369410587,3.204639,-9.326612,5.117606
1587369410597,3.204639,-9.326612,5.117606
1587369410608,1.5011644,-8.356961,4.721366
1587369410619,0.48482585,-7.7464395,4.247314
1587369410630,0.48482585,-7.7464395,4.247314
1587369410641,0.4177882,-6.8043213,3.8259344
1587369410652,0.61650693,-6.56131,3.6631286
1587369410663,0.6464345,-6.445191,3.5434184
1587369410675,0.4441244,-6.0226145,4.096479
1587369410686,0.4225766,-6.199785,4.3598413
1587369410696,0.5506664,-6.271611,4.414908
1587369410708,0.5506664,-6.3685765,4.6842556
1587369410718,0.44891283,-6.4284315,4.7441106
1587369410731,0.44891283,-6.4284315,4.7441106
1587369410741,0.3172317,-6.4260373,5.097255
1587369410751,0.47285482,-6.3697734,5.3139305
1587369410763,0.6356605,-6.2704144,5.2995653
1587369410773,0.80564886,-6.179435,5.2600613
1587369410785,0.8475474,-6.1123967,5.2409077
1587369410796,0.79966336,-6.05733,5.351041
1587369410806,0.59017074,-6.1112,5.4168816
1587369410819,0.33638534,-6.6427126,5.566519
1587369410829,0.33638534,-6.6427126,5.566519
1587369410839,0.6440403,-7.819463,5.4899044
1587369410851,0.79846627,-8.59279,5.5737014
1587369410861,0.760159,-9.068039,5.8502316
1587369410873,0.5410896,-9.078813,5.947197
1587369410884,0.4345476,-8.768764,5.7185507
1587369410894,0.39145198,-8.297106,5.257667
1587369410906,0.059855044,-7.833828,4.903325
1587369410916,-0.19991584,-7.86615,5.2983685
1587369410928,-0.32441434,-7.8865004,5.6826377
1587369410938,-0.1592144,-7.8888946,5.6790466
1587369410950,-0.021547815,-7.6865845,5.249287
1587369410961,0.029927522,-7.6590514,5.1104236
1587369410971,-0.009576807,-7.5920134,5.2289367
1587369410983,-0.18435353,-7.41604,5.5042696
1587369410993,-0.2837129,-7.350199,5.7137623
1587369411005,-0.30765492,-7.621941,5.9747305
1587369411015,-0.10175357,-8.082825,6.1926026
1587369411027,0.29927522,-8.622718,6.682217
1587369411035,0.5327099,-9.091981,7.240066
1587369411048,0.23223756,-9.516952,7.8984714
1587369411058,-0.7685388,-10.035296,8.054094
1587369411070,-1.1348516,-8.913613,7.050924
1587369411080,-1.1348516,-8.913613,7.050924
1587369411092,-1.8303672,-6.721721,6.5122285
1587369411102,-2.7629087,-6.042965,5.627571
1587369411114,-2.7629087,-6.042965,5.627571
1587369411124,-2.741361,-12.530055,3.1914709
1587369411136,-3.6044707,-17.034744,4.876989
1587369411144,-2.1260512,-21.831528,6.51582
1587369411156,1.4101849,-26.635494,9.464279
1587369411169,2.6036944,-17.78413,2.4265234
1587369411179,2.6036944,-17.78413,2.4265234
1587369411188,-6.3589997,1.9416976,-5.0421886
1587369411201,-7.6135616,2.837129,-4.6591167
1587369411211,-7.6135616,2.837129,-4.6591167
1587369411223,-1.8806454,-3.0310593,1.958457
1587369411233,2.6551697,-9.149442,2.0733786
1587369411246,5.0278234,-13.138182,2.148796
1587369411252,5.886145,-14.415488,1.5717934
1587369411264,5.9962783,-13.705607,0.427365
1587369411276,5.345055,-12.118252,0.41180268
1587369411288,3.4021606,-8.948329,2.3116016
1587369411298,2.4408886,-7.7691846,1.6124948
1587369411310,2.4408886,-7.7691846,1.6124948
1587369411320,2.2110453,-6.8091097,1.6915035
1587369411333,2.6862943,-7.1227503,0.7386112
1587369411343,2.885013,-7.8386164,-0.16998832
1587369411353,2.9771898,-9.588778,0.5267244
1587369411367,3.301604,-9.822212,0.8499416
1587369411375,3.608062,-9.816227,1.1001357
1587369411387,4.1240125,-8.892065,1.423353
1587369411397,4.5082817,-8.183381,1.0247183
1587369411409,4.5082817,-8.183381,1.0247183
1587369411419,5.6539073,-7.4244194,-0.23343466
1587369411431,6.019023,-7.3466077,-0.79607207
1587369411441,5.662287,-7.231686,-0.6572084
1587369411453,4.7297454,-7.309498,-0.581791
1587369411463,4.7297454,-7.309498,-0.581791
1587369411475,3.072958,-8.000225,-0.05267244
1587369411485,2.4660277,-8.555679,0.5805939
1587369411497,2.1021092,-8.816648,0.8583213
1587369411507,2.1021092,-8.816648,0.8583213
1587369411519,2.3080103,-8.4587145,0.7457938
1587369411529,2.3080103,-8.4587145,0.7457938
1587369411541,2.5761611,-8.341399,-0.15083471
1587369411552,2.4827871,-8.226477,-0.2873042
1587369411562,2.4827871,-8.226477,-0.2873042
1587369411574,2.4636335,-8.335413,-0.4333505
1587369411582,2.622848,-8.854955,-0.2681506
1587369411594,2.9484594,-9.329007,0.11971009
1587369411606,3.323152,-9.677363,0.33758244
1587369411617,3.821146,-9.958682,0.5363012
1587369411628,4.209007,-10.125079,0.62129533
1587369411638,4.423288,-10.25676,0.5746084
1587369411649,4.096479,-10.117896,0.9804256
1587369411660,4.096479,-10.117896,0.9804256
1587369411672,3.5996823,-10.058042,1.8854338
1587369411682,3.843891,-9.969456,1.7884687
1587369411693,4.3179426,-9.764751,1.0773908
1587369411704,4.6495395,-9.831789,0.33039984
1587369411715,5.1690817,-9.718064,0.35075054
1587369411726,5.734113,-9.844957,0.16400282
1587369411737,6.2488666,-10.000581,0.5267244
1587369411750,6.18542,-10.680533,1.8962077
1587369411760,6.18542,-10.680533,1.8962077
1587369411770,6.944382,-10.631453,0.8714894
1587369411782,7.4603324,-10.432734,0.034715924
1587369411792,9.129091,-10.560823,-1.2210429
1587369411804,8.89446,-11.820174,-3.1950622
1587369411815,7.217321,-14.689625,-2.7617116
1587369411825,4.2521024,-17.984047,-3.6703112
1587369411837,0.25977087,-20.667946,-4.5537715
1587369411847,-2.8562827,-20.150799,-3.1423898
1587369411859,-4.104859,-18.027142,-3.064578
1587369411869,-3.2393548,-12.209231,-4.4675803
1587369411882,-2.4265234,-12.275072,-3.9671922
1587369411892,-1.7621324,-13.627796,-2.7629087
1587369411902,-0.49320555,-14.585477,-1.067814
1587369411914,1.079785,-15.406688,0.6607997
1587369411924,2.5330653,-16.28536,2.1440077
1587369411936,3.2836475,-16.528372,2.5187001
1587369411947,3.252523,-16.041151,2.4732103
1587369411957,2.8275523,-15.472528,2.7461493
1587369411969,2.4540567,-13.881581,1.3814543
1587369411980,2.4396915,-12.5264635,-1.0785879
1587369411990,2.8886044,-10.821792,-0.59495914
1587369412001,2.6886885,-9.829395,0.25498247
1587369412014,2.3714569,-8.12233,0.5470751
1587369412020,1.9955671,-6.1926026,-0.7206547
1587369412032,1.8926164,-6.054936,-0.34955344
1587369412044,1.6053122,-4.739322,-0.15682021
1587369412056,1.0450691,-4.5022964,0.47884035
1587369412066,0.22266077,-3.5936968,1.2030864
1587369412078,-0.06823475,-3.882198,1.1216835
1587369412088,-0.28491,-3.7936125,0.47405192
1587369412100,-0.108936176,-3.776853,0.2825158
1587369412110,-0.108936176,-3.776853,0.2825158
1587369412122,-0.16759412,-3.83192,0.36870706
1587369412130,-0.15322891,-3.537433,0.63206923
1587369412142,-0.33997664,-3.2142158,0.7314286
1587369412154,-0.5386954,-2.9747956,1.353921
1587369412164,-0.45968673,-2.9400797,1.6986861
1587369412177,-0.16400282,-3.2022448,2.2014685
1587369412187,-0.023942016,-3.4356794,2.778471
1587369412197,0.10654198,-3.716998,3.4715924
1587369412209,0.39264908,-3.9372647,4.0222588
1587369412219,1.2545617,-4.394557,4.909311
1587369412232,1.8183962,-5.1762643,5.139154
1587369412238,1.8183962,-5.1762643,5.139154
1587369412250,4.2054152,-7.3298483,5.792771
1587369412262,3.9636009,-8.86932,6.0082493
1587369412274,3.0382419,-10.929531,7.704541
1587369412284,2.2637177,-13.64695,11.318588
1587369412296,2.6599581,-15.636531,14.032416
1587369412306,4.63278,-16.189592,13.086706
1587369412318,5.889736,-14.501679,8.740033
1587369412329,3.526659,-13.169307,8.158242
1587369412339,3.526659,-13.169307,8.158242
1587369412351,-1.1097125,-7.759608,6.4272346
1587369412361,-1.7633295,-5.245696,5.8119245
1587369412373,-1.6950948,-3.5996823,6.432023
1587369412383,-1.9548657,-2.5330653,7.896077
1587369412395,-2.8395233,-2.9364884,9.176975
1587369412406,-2.8886044,-5.6646814,7.642292
1587369412416,-2.1643584,-11.127052,0.25617957
1587369412429,-4.485537,-24.742878,-3.7481227
1587369412439,-4.485537,-24.742878,-3.7481227
1587369412448,4.155137,-27.710491,3.2609026
1587369412462,3.5613751,-19.594147,-6.265626
1587369412472,-5.2037973,1.9907787,-5.139154
1587369412482,-7.965509,0.24540567,-2.9233203
1587369412494,-4.7560816,-2.3355439,-0.5722142
1587369412504,-0.5734113,-6.362591,-0.20231004
1587369412516,2.4744074,-8.962694,-1.2413936
1587369412527,4.6782703,-11.334151,-0.12210429
1587369412537,7.169437,-13.584701,2.2541409
1587369412549,11.1414175,-14.398729,1.4401124
1587369412559,11.1414175,-14.398729,1.4401124
1587369412571,9.059659,-9.568427,-0.10295067
1587369412581,6.6774287,-7.228095,1.270124
1587369412593,6.6774287,-7.228095,1.270124
1587369412603,3.5302503,-5.959168,2.8562827
1587369412615,3.430891,-5.9663506,2.4241292
1587369412625,3.4715924,-6.1159883,1.9812019
1587369412637,3.7804444,-6.363788,1.6687586
1587369412647,4.0545807,-6.9360023,1.0953473
1587369412659,3.9827545,-7.547721,0.59974754
1587369412670,3.5182793,-7.6770077,-0.015562311
1587369412680,3.1244333,-7.6865845,-0.2681506
1587369412692,2.6420016,-7.6734166,-0.29688102
1587369412703,2.645593,-7.929596,-0.1352724
1587369412712,2.7114334,-7.7667904,-0.11492168
1587369412723,2.9317,-7.788338,0.01436521
1587369412734,3.1423898,-7.8613615,0.320823
1587369412745,3.1555579,-7.9714947,0.81881696
1587369412756,3.0921116,-8.185776,0.89902276
1587369412767,2.6862943,-8.649054,0.8451532
1587369412778,2.4372973,-8.627506,0.94570965
1587369412787,2.4372973,-8.627506,0.94570965
1587369412797,2.7712884,-8.287529,1.0570401
1587369412808,3.5110967,-8.5473,0.62488663
1587369412819,4.131195,-8.792706,0.40222588
1587369412830,4.5178585,-9.063251,0.22026655
1587369412842,4.5178585,-9.063251,0.22026655
1587369412854,4.6244006,-9.378088,0.18555063
1587369412866,4.545392,-9.706094,0.25977087
1587369412876,4.6040497,-10.168175,0.79966336
1587369412889,4.277241,-10.454282,1.4293385
1587369412895,4.285621,-10.3692875,1.3024458
1587369412907,4.6339774,-10.018537,0.8678981
1587369412919,5.243302,-9.508572,1.0702082
1587369412931,6.0597243,-9.665392,1.0295067
1587369412941,6.0597243,-9.665392,1.0295067
1587369412953,6.2608376,-9.986216,1.3670892
1587369412963,5.973533,-10.481815,1.6591818
1587369412975,5.6215854,-10.812215,2.2146366
1587369412985,5.493496,-10.667366,2.5629928
1587369412997,5.887342,-10.262746,2.2589293
1587369413005,6.3769565,-9.950302,1.1432313
1587369413018,8.240842,-10.234015,-1.1468226
1587369413028,8.722076,-11.279084,-2.8443117
1587369413040,8.722076,-11.279084,-2.8443117
1587369413050,5.9160724,-14.340071,-2.5019407
1587369413062,3.763685,-15.853207,-2.0626047
1587369413072,0.49679685,-17.355568,-2.754529
1587369413084,-2.0147207,-17.705122,-3.4680011
1587369413094,-2.1535845,-17.331627,-4.0342298
1587369413107,-1.4137762,-16.956934,-4.5645456
1587369413113,-0.23582886,-17.676392,-3.550601
1587369413125,0.61052144,-18.20551,-1.7202339
1587369413138,1.4077905,-17.675194,0.6548142
1587369413148,2.1894975,-13.464991,3.38181
1587369413160,2.5594015,-13.970167,4.923676
1587369413170,2.6420016,-15.094245,3.181894
1587369413182,2.5222914,-15.598224,0.5267244
1587369413192,2.172738,-14.610616,-1.377863
1587369413204,1.7286136,-12.427104,-0.59974754
1587369413214,1.2976574,-10.195708,-0.32561144
1587369413226,1.7477672,-8.519767,-0.6667852
1587369413237,1.8136078,-7.4735007,-1.520318
1587369413247,2.505532,-6.205771,-1.4556746
1587369413259,2.220622,-5.007473,-0.9636662
1587369413269,2.220622,-5.007473,-0.9636662
1587369413281,1.6783354,-3.4680011,0.80564886
1587369413291,0.79966336,-2.7126305,0.7254431
1587369413303,0.30286652,-2.5462334,0.45370123
1587369413314,-0.2813187,-2.7880478,0.47764325
1587369413324,-0.2813187,-2.7880478,0.47764325
1587369413336,-0.62967503,-3.13401,0.41180268
1587369413346,-0.33399114,-3.2477345,0.22984336
1587369413358,0.34237084,-3.489549,0.51714754
1587369413368,0.34237084,-3.489549,0.51714754
1587369413380,0.33518824,-4.1611223,1.757344
1587369413390,0.30166942,-4.5884876,2.3570917
1587369413403,0.25977087,-5.035006,3.0789435
1587369413412,0.2825158,-5.4204726,3.9588125
1587369413424,0.39983168,-5.7484784,4.7919946
1587369413434,0.7565677,-6.2740054,5.3402667
1587369413446,1.3431472,-6.862979,5.4743423
1587369413457,2.315193,-7.01142,5.2887917
1587369413467,3.064578,-7.4950485,4.8279076
1587369413479,2.2050598,-9.862914,6.241684
1587369413489,2.2050598,-9.862914,6.241684
1587369413501,-0.92416185,-11.745954,11.4359045
1587369413511,-0.8607155,-11.810597,13.837289
1587369413524,1.3156139,-11.529279,12.822147
1587369413534,4.4436383,-10.959458,9.17099
1587369413544,5.8215013,-11.468226,6.75524
1587369413556,3.6499605,-12.076353,6.147113
1587369413566,0.2621651,-11.287464,6.051345
1587369413578,-2.9257145,-4.6938324,5.7137623
1587369413588,-2.9257145,-4.6938324,5.7137623
1587369413600,-3.858256,-6.3099184,7.7308774
1587369413610,-1.5849615,-9.692925,6.554127
1587369413622,-1.5849615,-9.692925,6.554127
1587369413632,-1.1911154,-23.107637,4.1132383
1587369413644,0.20470424,-29.634232,2.5019407
1587369413654,4.209007,-34.52918,1.7142484
1587369413666,9.879673,-31.052795,4.024653
1587369413676,7.5189905,-9.600749,-1.6208745
1587369413688,-2.086547,10.000581,-10.335769
1587369413698,-13.169307,6.029797,-1.2246342
1587369413710,-5.2480903,3.5110967,1.9608512
1587369413720,-5.2480903,3.5110967,1.9608512
1587369413733,8.714894,-11.052833,-3.0897174
1587369413743,10.001778,-14.386758,-1.8291701
1587369413753,10.8182,-17.749414,1.3096284
1587369413765,11.366472,-19.634848,2.6791117
1587369413773,10.747571,-16.970102,2.2601264
1587369413784,8.865729,-11.251551,-0.005985504
1587369413796,6.279991,-7.1670427,-0.49799395
1587369413808,1.0785879,-5.6922145,1.7956513
1587369413817,1.0785879,-5.6922145,1.7956513
1587369413828,1.5801731,-8.365341,0.6691794
1587369413839,2.6599581,-8.992621,0.81043726
1587369413849,3.5350387,-8.696938,0.8882488
1587369413860,4.3658266,-8.194156,0.7422025
1587369413873,4.923676,-8.190564,-0.41299978
1587369413879,4.921282,-8.027759,-1.6998832
1587369413893,4.0438066,-7.6051817,-1.9416976
1587369413903,3.0119057,-7.4483614,-1.7118542
1587369413915,2.0446482,-7.511808,-1.62686
1587369413926,1.6172832,-7.65546,-1.3192052
1587369413936,1.7441759,-7.6985555,-0.37229836
1587369413949,2.8431146,-7.86615,0.7254431
1587369413958,3.679888,-8.236053,0.62967503
1587369413970,3.679888,-8.236053,0.62967503
1587369413982,3.8391025,-8.768764,1.2090719
1587369413989,3.0669725,-8.665813,1.9728222
1587369414001,2.4672248,-8.406042,1.9476831
1587369414013,2.3810337,-8.000225,1.3503298
1587369414026,3.0813377,-7.6841903,0.062249243
1587369414036,5.2037973,-8.316259,-0.48362875
1587369414047,5.66109,-8.748413,-0.48362875
1587369414057,5.4312468,-9.338584,0.12449849
1587369414069,5.1116204,-10.031705,0.93972415
1587369414079,3.822343,-11.215638,2.7832594
1587369414091,3.4751837,-10.9822035,2.967613
1587369414100,4.2425256,-10.597934,1.8171991
1587369414111,5.6060233,-10.432734,0.9684546
1587369414124,6.291962,-10.491392,0.5614403
1587369414134,6.3063273,-10.427945,1.0426749
1587369414144,6.827066,-10.15381,1.9129672
1587369414156,7.8302364,-10.048465,1.970428
1587369414166,8.100781,-10.503363,2.0482395
1587369414178,6.707356,-11.204864,3.241749
1587369414188,7.217321,-11.269507,3.0813377
1587369414200,8.046912,-11.428721,2.0506337
1587369414208,8.154651,-11.262324,1.1647792
1587369414220,8.154651,-11.262324,1.1647792
1587369414233,8.540117,-11.246762,-2.0721815
1587369414242,7.563283,-12.206838,-2.4791958
1587369414254,7.563283,-12.206838,-2.4791958
1587369414265,1.4030021,-16.593016,-1.7501614
1587369414275,-2.4660277,-16.95454,-2.4899697
1587369414287,-4.3239284,-16.385916,-2.9831753
1587369414297,-4.1252093,-15.822082,-3.6332011
1587369414309,-0.8391677,-17.226282,-3.4009635
1587369414317,-0.8391677,-17.226282,-3.4009635
1587369414329,2.1679497,-16.500837,0.36631286
1587369414341,2.3319526,-15.203181,2.4791958
1587369414351,2.3319526,-15.203181,2.4791958
1587369414364,2.3307555,-13.11424,5.482722
1587369414374,2.980781,-13.505692,5.245696
1587369414384,3.38181,-14.223952,2.2517467
1587369414396,3.4512417,-14.292187,0.21068975
1587369414407,3.5649664,-13.623008,0.016759412
1587369414417,4.0414124,-11.249157,0.9780314
1587369414429,4.188656,-8.016984,0.076614454
1587369414439,4.131195,-6.992266,0.32202014
1587369414451,4.131195,-6.992266,0.32202014
1587369414461,3.1866825,-4.8279076,0.038307227
1587369414475,1.3072342,-2.4600422,0.11851298
1587369414485,0.17238252,-1.4532804,-0.31124622
1587369414495,-0.19632454,-1.1085154,-0.6332663
1587369414506,-0.2789245,-1.1923125,-1.1959038
1587369414516,-0.521936,-1.2425907,-1.376666
1587369414529,-0.7170634,-1.4556746,-0.8762778
1587369414535,-0.7170634,-1.4556746,-0.8762778
1587369414547,-0.78410107,-1.4700398,-0.7793127
1587369414559,-0.79966336,-1.8734628,-0.023942016
1587369414571,-0.6811504,-2.408567,0.50996494
1587369414581,-0.41180268,-3.0466216,1.3670892
1587369414593,0.1352724,-3.572149,2.5929205
1587369414603,0.6871359,-4.1455603,3.810372
1587369414615,1.0199299,-4.5920787,4.9703627
1587369414625,1.2737153,-5.0302176,6.23091
1587369414637,2.5270798,-6.6367273,7.9152308
1587369414645,2.5270798,-6.6367273,7.9152308
1587369414658,1.769315,-10.704475,8.565256
1587369414668,1.769315,-10.704475,8.565256
1587369414680,2.742558,-15.375564,15.163676
1587369414690,9.85214,-17.699137,9.027337
1587369414702,9.85214,-17.699137,9.027337
1587369414712,4.7680526,-14.572309,9.504981
1587369414724,0.6955156,-9.792285,9.380483
1587369414734,-1.340753,-5.2804117,7.693767
1587369414746,-1.8028339,-2.2876596,6.0489507
1587369414754,-3.0358477,-2.146402,5.864597
1587369414766,-3.3207579,-5.470751,5.981913
1587369414779,-1.8746599,-20.062214,3.691859
1587369414789,-1.2952632,-25.339033,3.3039982
1587369414800,-1.2952632,-25.339033,3.3039982
1587369414810,8.961497,-31.774649,3.513491
1587369414823,6.2225304,-11.7782755,-5.957971
1587369414832,-4.3299136,3.1866825,-10.030508
1587369414844,-12.878411,3.0083144,-6.7564373
1587369414853,-12.683284,0.7649474,-0.3196259
1587369414867,-5.7760115,0.6512229,0.050278235
1587369414876,2.432509,-5.0505686,-3.2010477
1587369414887,7.4447703,-10.700885,-4.7740383
1587369414898,9.394848,-14.733917,-2.0326772
1587369414909,11.724405,-18.55267,1.7537527
1587369414919,8.573636,-9.022549,0.62728083
1587369414931,6.0142345,-6.105214,0.62368953
1587369414941,4.0581717,-5.12838,1.7393875
1587369414955,2.9963434,-5.2289367,2.160767
1587369414965,2.9700072,-5.671864,1.8734628
1587369414978,3.4021606,-6.4631476,1.353921
1587369414988,4.3634324,-7.505822,0.664391
1587369414998,4.3634324,-7.505822,0.664391
1587369415010,3.7804444,-8.6334915,-0.130484
1587369415021,3.2908301,-8.911219,-0.5638345
1587369415031,2.7090392,-8.760384,-0.88944596
1587369415043,1.8447324,-8.708909,-1.6627731
1587369415053,1.0654198,-8.522161,-1.5490485
1587369415065,0.59256494,-8.6095495,-1.1528081
1587369415076,0.7098808,-8.261193,-0.8690952
1587369415087,1.258153,-8.043321,-0.7673417
1587369415097,2.1320367,-7.9786773,-0.46926352
1587369415109,2.9173348,-8.470686,0.7757214
1587369415120,2.955642,-8.828619,1.1192893
1587369415130,2.955642,-8.828619,1.1192893
1587369415142,3.477578,-7.93199,0.25258827
1587369415152,4.423288,-7.9128366,-0.58897364
1587369415164,5.231331,-8.1402855,-0.8463503
1587369415174,5.403713,-8.294712,-0.47884035
1587369415186,5.2768207,-8.591593,-0.22744916
1587369415194,5.0146556,-9.106346,0.22026655
1587369415206,4.662708,-9.8916445,1.0390835
1587369415218,3.6774938,-10.801441,2.4672248
1587369415228,3.6774938,-10.801441,2.4672248
1587369415240,4.167108,-9.733627,1.7166426
1587369415250,4.167108,-9.733627,1.7166426
1587369415262,5.273229,-8.902839,-0.4237737
1587369415272,4.9224787,-9.127894,-0.3196259
1587369415284,4.620809,-9.339781,0.2741361
1587369415295,4.8578353,-9.788693,0.58418524
1587369415305,5.2660465,-10.283096,0.6368576
1587369415318,5.1559134,-10.693702,0.79726917
1587369415328,4.9559975,-10.827777,1.3215994
1587369415338,5.080496,-11.21085,2.1511903
1587369415350,5.080496,-11.21085,2.1511903
1587369415361,6.4044895,-10.340557,1.3036429
1587369415371,7.3071036,-10.400413,0.8631097
1587369415383,7.3071036,-10.400413,0.8631097
1587369415394,9.228451,-10.807426,-2.3415294
1587369415404,7.997831,-11.822568,-2.7162218
1587369415417,5.9184666,-13.444639,-1.7753005
1587369415427,3.1627405,-14.670471,-1.8974048
1587369415437,-0.19871874,-16.078262,-2.3642743
1587369415450,-2.7281928,-16.667234,-2.5234885
1587369415460,-2.4839842,-16.053122,-3.53863
1587369415471,-1.3611037,-16.103401,-3.4560301
1587369415481,-1.3611037,-16.103401,-3.4560301
1587369415493,1.7405846,-17.223886,-0.37948096
1587369415503,2.3930047,-16.758215,0.3878607
1587369415516,2.7665,-14.975732,1.2892777
1587369415522,2.6910827,-12.959814,2.2541409
1587369415534,2.6384103,-12.027272,3.9013517
1587369415546,2.731784,-12.548011,4.2305546
1587369415558,2.7976246,-14.222755,0.7398083
1587369415568,2.6192567,-13.607446,0.17956513
1587369415580,2.6192567,-13.607446,0.17956513
1587369415591,2.6539726,-8.6813755,-1.0654198
1587369415601,2.5594015,-7.7368627,-1.1324574
1587369415613,2.4588451,-7.383718,-1.2258313
1587369415623,2.2457612,-6.2871737,-0.5470751
1587369415635,1.970428,-5.473145,0.19273324
1587369415645,1.6555905,-4.6662993,1.0055647
1587369415657,0.82719666,-3.1268275,1.2294226
1587369415668,0.4429273,-2.7868507,0.79248077
1587369415679,0.4429273,-2.7868507,0.79248077
1587369415688,0.12330139,-2.6396074,0.2621651
1587369415700,-0.06584055,-2.7281928,0.079008654
1587369415712,-0.33758244,-2.7808652,-0.074220255
1587369415722,-0.320823,-2.8443117,-0.25258827
1587369415734,-0.39504328,-2.753332,-0.11971009
1587369415743,-0.4333505,-2.846706,0.25019407
1587369415755,-0.2753332,-3.0813377,0.79607207
1587369415765,-0.08020575,-3.489549,1.2856863
1587369415777,0.11372458,-3.8414967,2.0231004
1587369415787,0.24301147,-4.2664676,2.8921957
1587369415799,1.4460979,-4.6698904,5.6670756
1587369415809,2.6048915,-5.0541596,6.7947445
1587369415821,3.3279405,-5.9304376,7.21373
1587369415831,3.3279405,-5.9304376,7.21373
1587369415844,3.0370448,-9.4295635,7.9810715
1587369415849,2.8323407,-12.417527,11.139024
1587369415863,4.0258503,-15.4845,14.211981
1587369415876,6.362591,-17.30529,13.6409645
1587369415886,8.732851,-17.78892,9.910798
1587369415897,8.457518,-17.739838,7.94037
1587369415907,2.5462334,-11.909956,8.009802
1587369415920,-0.63206923,-7.666234,7.026982
1587369415929,-0.63206923,-7.666234,7.026982
1587369415940,-2.9819782,-5.5856724,4.9284644
1587369415952,-2.0829554,-11.212047,5.104438
1587369415959,0.11851298,-18.371906,6.939594
1587369415969,2.8395233,-23.361423,5.151125
1587369415980,2.8395233,-23.361423,5.151125
1587369415991,8.319851,-28.495789,5.7161565
1587369416002,7.7368627,-17.124527,0.30645782
1587369416013,-2.3582888,-0.31603462,-7.687782
1587369416026,-18.364723,9.97185,-10.722432
1587369416038,-4.9440265,-2.5833437,6.588843
1587369416050,5.011064,-7.5189905,-2.2577322
1587369416060,12.316971,-16.114174,-4.223372
1587369416072,14.395138,-20.77329,-3.0095115
1587369416082,12.949039,-20.786459,0.14724341
1587369416094,9.561244,-17.391481,2.9855695
1587369416104,5.637148,-11.546038,3.1376014
1587369416116,3.0011318,-6.4643445,1.7417817
1587369416127,1.2808979,-3.9085343,1.4879963
1587369416137,0.61530983,-3.4165258,2.2756886
1587369416149,3.192668,-6.455965,1.6436194
1587369416159,5.100847,-8.209718,0.36750996
1587369416171,6.659472,-9.175778,-0.4309563
1587369416179,6.659472,-9.175778,-0.4309563
1587369416192,7.1766195,-8.349778,0.44532153
1587369416202,6.3925185,-7.7560163,0.94211835
1587369416214,6.3925185,-7.7560163,0.94211835
1587369416224,4.333505,-7.3178773,0.25258827
1587369416236,3.5553896,-7.2927384,-0.14844051
1587369416246,2.6970682,-7.347805,-0.45250413
1587369416258,2.6994624,-7.4615297,-0.2753332
1587369416268,2.7341783,-8.24563,0.7015011
1587369416280,2.7341783,-8.24563,0.7015011
1587369416289,2.3223755,-8.583213,0.7433996
1587369416301,1.9931729,-8.597578,0.24899697
1587369416311,1.9931729,-8.597578,0.24899697
1587369416323,2.0386627,-7.7691846,0.49799395
1587369416333,2.1930888,-7.5549035,0.44891283
1587369416346,2.3307555,-7.5201874,0.25498247
1587369416356,2.621651,-7.821857,0.33039984
1587369416367,2.8646624,-8.39886,0.06464344
1587369416377,3.309984,-8.9279785,-0.062249243
1587369416389,3.9995139,-8.950723,-0.06344634
1587369416397,3.9995139,-8.950723,-0.06344634
1587369416409,4.4520183,-8.870518,-0.10055647
1587369416421,4.6698904,-9.27394,0.20350714
1587369416431,4.5022964,-9.726444,0.7374141
1587369416444,4.1012673,-10.241198,1.3982137
1587369416454,3.6116533,-10.623073,1.697489
1587369416464,3.6834793,-11.135432,1.2138603
1587369416476,4.8243165,-10.791864,0.6356605
1587369416487,6.045359,-9.980229,0.5674258
1587369416498,8.112753,-9.848549,1.0570401
1587369416508,8.112753,-9.848549,1.0570401
1587369416520,8.554482,-11.192893,1.9249382
1587369416530,8.554482,-11.192893,1.9249382
1587369416542,7.515399,-11.980585,2.681506
1587369416553,7.3466077,-11.727997,2.2661119
1587369416563,7.3466077,-11.727997,2.2661119
1587369416575,7.267599,-11.2132435,1.3599066
1587369416585,7.7931266,-10.630256,-0.10295067
1587369416597,8.206126,-10.429143,-2.5210943
1587369416607,7.0784574,-11.099519,-3.4859576
1587369416619,2.8898015,-14.536396,-1.7166426
1587369416629,2.8898015,-14.536396,-1.7166426
1587369416641,-1.1647792,-16.763002,-1.7537527
1587369416651,-3.654749,-16.178818,-2.2900538
1587369416663,-4.461595,-15.272613,-3.550601
1587369416673,-4.4400473,-14.332889,-3.6631286
1587369416685,-1.4317327,-16.127342,-2.598906
1587369416695,0.1592144,-17.183186,-0.5303157
1587369416708,1.3623008,-17.524359,1.5897499
1587369416718,2.2014685,-15.33965,3.667917
1587369416730,2.3403323,-14.317327,5.151125
1587369416740,2.5941176,-14.018051,3.335123
1587369416752,2.7497406,-13.808558,0.12330139
1587369416762,2.7497406,-13.808558,0.12330139
1587369416774,2.754529,-12.594698,-0.36990416
1587369416784,2.791639,-10.939108,-0.6584055
1587369416796,2.9819782,-9.083601,-0.62967503
1587369416806,3.13401,-8.350976,-0.07062895
1587369416818,3.2130187,-5.6299653,0.033518825
1587369416828,3.2130187,-5.6299653,0.033518825
1587369416840,2.6623523,-3.4727895,1.282095
1587369416850,1.401805,-2.1871033,0.78529817
1587369416862,1.401805,-2.1871033,0.78529817
1587369416872,-0.22146365,-1.2282255,-0.009576807
1587369416884,-0.5243302,-0.9768343,-0.2645593
1587369416894,-1.0151415,-1.067814,-0.25737667
1587369416906,-1.0809821,-1.2497733,-0.25977087
1587369416917,-1.0534488,-1.3215994,-0.24420857
1587369416927,-0.91937345,-1.4317327,0.17477672
1587369416939,-0.3196259,-2.2301989,1.3323733
1587369416948,-0.19752164,-2.7593174,2.1978772
1587369416960,-0.19752164,-2.7593174,2.1978772
1587369416970,0.6631939,-3.8654387,4.423288
1587369416981,1.4377182,-4.537012,5.8334723
1587369416993,2.7509377,-5.437232,7.183802
1587369417002,4.284424,-6.167464,7.669825
1587369417013,5.163096,-7.751228,8.173804
1587369417024,5.0062757,-10.229227,8.354567
1587369417035,4.189853,-12.562376,8.974665
1587369417046,2.801216,-14.231135,11.066
1587369417055,2.610877,-14.726735,13.524845
1587369417066,3.3973722,-13.974956,13.169307
1587369417077,4.84347,-13.560759,10.509348
1587369417088,2.992752,-13.810952,7.439982
1587369417101,0.1340753,-12.034455,7.0449386
1587369417111,0.1340753,-12.034455,7.0449386
1587369417123,-3.8606503,-5.9244523,6.727707
1587369417133,-4.489128,-6.3470287,7.097611
1587369417145,-2.610877,-10.016143,5.7975593
1587369417155,-0.17357962,-16.383522,2.2768857
1587369417167,1.2318168,-30.220812,0.0023942017
1587369417177,1.2318168,-30.220812,0.0023942017
1587369417189,6.1686606,-27.301083,5.5018754
1587369417199,-3.0095115,-3.2836475,-5.3199162
1587369417211,-11.750742,10.777499,-14.961367
1587369417222,-15.618575,7.8039002,-5.6120086
1587369417232,-9.702502,7.6602483,4.1623197
1587369417244,3.3770216,-0.8643068,2.2936451
1587369417254,10.411186,-11.281479,-2.1894975
1587369417266,10.079589,-16.011225,-3.7349546
1587369417274,9.064447,-17.61893,-1.0450691
1587369417286,8.141483,-18.887857,3.2752678
1587369417299,7.7560163,-12.337321,2.3415294
1587369417309,7.7560163,-12.337321,2.3415294
1587369417319,4.88896,-6.6762314,0.31603462
1587369417331,3.345897,-6.349423,1.0618285
1587369417342,3.345897,-6.349423,1.0618285
1587369417352,3.5326445,-7.878121,1.1312603
1587369417364,4.590882,-8.015787,1.0139444
1587369417374,5.2684407,-7.765593,0.62368953
1587369417386,5.4887075,-7.2843585,0.6967127
1587369417397,5.6407394,-6.721721,1.1204864
1587369417407,5.3845596,-6.3542113,0.49440265
1587369417419,3.9133227,-7.1023993,-0.19752164
1587369417429,2.256535,-8.008605,-1.6400281
1587369417441,2.256535,-8.008605,-1.6400281
1587369417451,1.2018893,-7.603985,-0.94810385
1587369417464,1.5239093,-7.252037,-0.2693477
1587369417475,2.030283,-7.1407065,-0.053869538
1587369417485,2.5079262,-7.2364745,0.3196259
1587369417498,3.1304188,-8.358158,1.5957354
1587369417508,3.1304188,-8.358158,1.5957354
1587369417518,2.408567,-8.858546,2.1033063
1587369417530,2.1787236,-8.540117,1.5358804
1587369417540,2.1787236,-8.540117,1.5358804
1587369417553,3.2932243,-8.267179,0.51954174
1587369417563,4.4208937,-8.8645315,-0.24660277
1587369417573,4.6579194,-10.0987425,-0.4225766
1587369417585,4.8901567,-10.654198,-0.22385786
1587369417595,4.747702,-10.589554,0.5386954
1587369417607,4.5657425,-9.872491,2.078167
1587369417617,4.8003745,-9.384073,3.016694
1587369417630,6.033388,-9.725247,1.6005238
1587369417641,6.033388,-9.725247,1.6005238
1587369417651,5.8693852,-10.087969,0.8415619
1587369417661,6.003461,-10.360908,1.2126632
1587369417674,6.733692,-10.569203,1.0702082
1587369417684,7.217321,-10.935516,0.51954174
1587369417694,6.543353,-11.137826,0.8319851
1587369417706,5.7748146,-11.390414,1.3299791
1587369417715,5.189432,-11.71842,1.5227122
1587369417727,5.2289367,-11.899182,1.2725182
1587369417737,5.3725886,-11.839328,0.3184288
1587369417749,6.76362,-10.668563,0.31004912
1587369417759,6.76362,-10.668563,0.31004912
1587369417771,8.550891,-10.5045595,-2.7018566
1587369417781,6.7971387,-12.117055,-3.2381577
1587369417794,1.958457,-16.01721,-3.7217865
1587369417804,-0.046686932,-17.167624,-3.5075054
1587369417813,-2.7090392,-17.18558,-2.4863784
1587369417826,-4.023456,-16.043545,-1.9165585
1587369417835,-3.7936125,-13.819332,-2.6635494
1587369417846,-2.5797524,-12.887988,-3.1387985
1587369417857,-0.37708676,-13.839683,-1.899799
1587369417868,1.3575124,-16.299725,0.25977087
1587369417879,1.8136078,-16.312893,0.92775315
1587369417890,1.8136078,-16.312893,0.92775315
1587369417901,2.0685902,-13.828909,3.1759086
1587369417912,2.088941,-13.662512,4.232949
1587369417923,2.220622,-14.359224,3.7600937
1587369417932,2.280477,-15.5754795,1.6783354
1587369417943,2.3702598,-15.322891,-0.51595044
1587369417954,2.183512,-13.628993,-1.0606314
1587369417964,2.1332338,-11.142614,-0.1448492
1587369417975,2.2266076,-8.809465,0.34476504
1587369417986,1.8171991,-6.455965,-0.2837129
1587369417997,1.7669208,-5.318719,0.23822308
1587369418008,2.0829554,-4.223372,1.0223241
1587369418019,2.03148,-3.4021606,1.614889
1587369418029,1.8315643,-2.574964,1.400608
1587369418041,1.4532804,-2.3223755,1.0737995
1587369418051,0.5554548,-1.9931729,1.0522517
1587369418062,-0.24779987,-1.804031,0.9876082
1587369418073,-0.91219085,-1.8698715,0.90620536
1587369418084,-1.234211,-1.9776106,0.80804306
1587369418095,-1.210269,-1.7657237,0.24181437
1587369418106,-0.9911995,-1.4999673,-0.25258827
1587369418117,-0.8714894,-1.4101849,0.08379706
1587369418128,-0.7158663,-1.6783354,0.52073884
1587369418139,-0.7158663,-1.6783354,0.52073884
1587369418149,-0.37708676,-2.6874914,2.006341
1587369418162,-0.090979666,-3.2154129,2.980781
1587369418172,0.61291564,-3.7122097,4.2221746
1587369418182,1.6304513,-4.3406878,5.422867
1587369418195,2.7281928,-5.040992,6.2632318
1587369418206,3.7900212,-6.099229,6.683414
1587369418216,4.4939165,-8.106767,6.7767878
1587369418227,5.0014873,-10.271125,7.6853876
1587369418237,4.0186677,-14.749479,12.832921
1587369418249,7.398083,-14.748282,11.717223
1587369418257,7.398083,-14.748282,11.717223
1587369418270,7.765593,-13.566744,9.269152
1587369418280,4.146757,-11.6190605,8.3821
1587369418291,0.9768343,-9.582792,7.619547
1587369418304,-1.1492168,-6.9527617,6.278794
1587369418314,-1.9524715,-4.7141833,5.237316
1587369418323,-1.9524715,-4.7141833,5.237316
1587369418335,-2.8107927,-5.2516813,5.9029045
1587369418348,0.260968,-13.934254,3.1543608
1587369418358,0.45968673,-20.557814,2.6635494
1587369418370,0.45968673,-20.557814,2.6635494
1587369418380,3.833117,-32.908302,2.56419
1587369418392,9.263166,-34.37116,4.0043025
1587369418402,3.7792473,-13.204022,-2.6420016
1587369418414,-8.352173,6.5026517,-10.296265
1587369418424,-15.702372,5.614403,-5.6156
1587369418436,-13.749901,2.6862943,1.6519991
1587369418447,-6.223727,5.3701944,1.4748282
1587369418457,4.2916064,-1.6304513,-0.8439561
1587369418469,12.060791,-13.459004,-3.9312792
1587369418477,11.415554,-17.617733,0.23582886
1587369418489,10.444705,-19.062634,3.7253778
1587369418501,7.920019,-11.60709,1.0055647
1587369418511,5.542577,-8.0445175,-0.33997664
1587369418523,5.542577,-8.0445175,-0.33997664
1587369418533,1.1085154,-6.575675,0.8774749
1587369418545,0.50637364,-6.963536,1.0139444
1587369418555,0.8595184,-7.441179,0.5482722
1587369418568,1.8195933,-8.051701,0.19512744
1587369418578,4.5238442,-8.6334915,0.16759412
1587369418590,4.5238442,-8.6334915,0.16759412
1587369418600,5.66109,-8.115147,0.12569559
1587369418612,5.3115363,-8.030152,-0.10654198
1587369418622,5.3115363,-8.030152,-0.10654198
1587369418634,3.7301662,-7.487866,-0.5626374
1587369418644,2.9508536,-7.4615297,-1.0055647
1587369418656,2.5354595,-7.479486,-0.712275
1587369418667,2.3463178,-7.7464395,-0.35314476
1587369418677,2.27928,-7.6961613,0.08738836
1587369418689,1.9261353,-8.063671,0.5374983
1587369418697,1.3718776,-8.206126,0.30286652
1587369418710,2.5725696,-8.730456,1.0366893
1587369418720,2.5725696,-8.730456,1.0366893
1587369418733,2.0494366,-8.963891,0.7290344
1587369418743,2.100912,-8.949526,0.51954174
1587369418753,2.2996306,-8.760384,0.5470751
1587369418765,2.9269116,-8.89805,0.15083471
1587369418776,3.6655228,-9.301474,-0.005985504
1587369418787,4.010288,-9.579201,0.1364695
1587369418797,4.1683054,-9.568427,0.78769237
1587369418810,4.948815,-9.697714,2.4301147
1587369418820,4.948815,-9.697714,2.4301147
1587369418830,6.0728927,-9.959879,1.484405
1587369418843,6.015432,-9.953894,0.7517793
1587369418853,5.3318872,-9.998186,0.29927522
1587369418863,4.92607,-9.880871,0.5530606
1587369418875,5.297171,-9.557653,0.39983168
1587369418885,5.8442464,-9.674969,-0.089782566
1587369418897,5.0002904,-10.19092,0.8463503
1587369418907,4.572925,-11.177331,1.8794483
1587369418919,4.6818614,-11.314998,2.3259668
1587369418929,6.14831,-10.995371,0.7170634
1587369418941,7.2939353,-10.747571,-0.1328782
1587369418951,8.725668,-10.4171715,-1.4568717
1587369418963,9.592369,-10.565612,-3.1280246
1587369418973,7.9810715,-11.810597,-3.2273839
1587369418987,4.7800236,-14.003686,-2.9843724
1587369418998,-0.89184016,-17.419014,-2.9903579
1587369419008,-3.0023289,-17.676392,-3.1052797
1587369419018,-3.0023289,-17.676392,-3.1052797
1587369419029,-2.6647465,-17.238253,-4.453215
1587369419042,-1.9213469,-17.134104,-3.5685577
1587369419052,-0.9792285,-17.735048,-1.7250223
1587369419062,-0.4165911,-18.32522,-0.5770026
1587369419077,-0.17597382,-17.756598,0.24420857
1587369419088,0.33518824,-15.998055,1.2856863
1587369419098,1.4856021,-12.902353,3.6523547
1587369419107,2.2613235,-12.919112,4.5046906
1587369419117,2.2613235,-12.919112,4.5046906
1587369419128,2.9700072,-14.29099,-0.027533319
1587369419137,2.9700072,-14.29099,-0.027533319
1587369419149,3.1411927,-9.494206,0.56982
1587369419159,3.2848446,-7.195773,0.37708676
1587369419170,3.2848446,-7.195773,0.37708676
1587369419181,2.8574798,-5.571307,-1.6172832
1587369419192,2.5570073,-4.8279076,-1.6651673
1587369419203,2.3630772,-3.6739025,-0.32561144
1587369419215,1.8950106,-2.8311436,-0.06943185
1587369419227,0.7374141,-0.7374141,0.91338795
1587369419237,0.7374141,-0.7374141,0.91338795
1587369419249,0.110133275,-1.079785,0.58538234
1587369419259,-0.7410054,-2.3139958,0.9708488
1587369419271,-0.7410054,-2.3139958,0.9708488
1587369419282,-1.2904748,-1.9141643,0.8343793
1587369419292,-1.1180922,-1.9057846,0.6380547
1587369419304,-1.1180922,-1.9057846,0.6380547
1587369419314,-0.51834464,-1.8938135,0.48003745
1587369419326,-0.31004912,-1.7968484,0.7745243
1587369419336,-0.095768064,-1.8363527,1.2677298
1587369419349,0.34117374,-2.9747956,3.8187518
1587369419355,0.34117374,-2.9747956,3.8187518
1587369419366,0.4237737,-3.3794158,4.471172
1587369419378,1.2689269,-4.0557775,6.1650696
1587369419390,2.493561,-5.0038815,7.023391
1587369419401,2.493561,-5.0038815,7.023391
1587369419413,3.7074213,-10.45069,7.5800424
1587369419423,5.12838,-13.84088,10.662578
1587369419435,7.811083,-17.589003,14.0312195
1587369419446,10.411186,-19.752165,12.293029
1587369419457,10.9103775,-19.082985,8.1319065
1587369419467,8.610746,-16.869545,7.702147
1587369419479,0.39983168,-9.782708,9.203311
1587369419491,-2.6970682,-6.137536,7.606379
1587369419501,-2.6970682,-6.137536,7.606379
1587369419511,-4.5501804,-3.4045548,3.7816415
1587369419523,-5.3043537,-5.4204726,2.6443958
1587369419532,-2.3535004,-10.571598,2.5438392
1587369419544,-0.93852705,-18.65921,1.3670892
1587369419554,-1.1180922,-26.584019,2.292448
1587369419565,0.095768064,-31.52206,0.91099375
1587369419574,8.11395,-34.94936,4.882974
1587369419585,0.5793968,-5.7604494,-6.7743936
1587369419598,-9.440337,13.320141,-12.378023
1587369419608,-12.046426,11.353305,3.3518825
1587369419620,-12.046426,11.353305,3.3518825
1587369419630,10.734404,-7.335834,-5.0397944
1587369419642,10.9822035,-14.173674,-4.1802764
1587369419653,10.9822035,-14.173674,-4.1802764
1587369419663,9.679757,-19.81561,4.1299977
1587369419675,9.436746,-19.190723,5.9304376
1587369419683,8.991425,-14.548367,4.4017396
1587369419695,7.514202,-9.232041,1.7848774
1587369419707,5.8586116,-6.612785,1.2198458
1587369419717,3.9839516,-5.6419363,2.0518308
1587369419729,2.5438392,-5.734113,2.0721815
1587369419740,3.0190883,-6.457162,1.3275849
1587369419750,3.0190883,-6.457162,1.3275849
1587369419761,4.485537,-8.737639,-1.1252748
1587369419774,4.5322237,-8.965088,-0.91697925
1587369419784,3.9719806,-9.214086,-0.9780314
1587369419796,2.7605145,-8.99741,-0.7146692
1587369419807,2.5019407,-8.608353,-0.6452374
1587369419818,2.1978772,-8.488642,-0.48961425
1587369419828,1.5765818,-8.265982,0.28491
1587369419840,1.6424223,-8.413225,0.61052144
1587369419850,1.6424223,-8.413225,0.61052144
1587369419862,1.6879122,-8.321048,0.21188685
1587369419872,1.9117701,-7.9487495,-0.35913026
1587369419885,2.5079262,-7.2089415,-0.9588778
1587369419895,3.0346506,-6.63553,-1.1384429
1587369419908,3.8953662,-7.6746135,-0.18914193
1587369419918,3.8953662,-7.6746135,-0.18914193
1587369419928,2.8287494,-8.191761,1.0115502
1587369419941,3.0262709,-7.615956,2.4349031
1587369419950,3.0262709,-7.615956,2.4349031
1587369419961,4.661511,-7.1047935,0.3890578
1587369419973,5.8143187,-7.374141,-0.2645593
1587369419982,6.3482256,-8.1797905,-0.10055647
1587369419993,6.2009826,-9.062054,1.0007763
1587369420003,5.8825536,-9.566033,2.6024973
1587369420014,6.8186865,-9.376891,3.13401
1587369420025,7.3310456,-9.060856,2.3690627
1587369420036,7.3418193,-9.057265,1.4137762
1587369420047,7.156269,-9.108741,0.9756372
1587369420058,6.7887588,-10.390836,1.1839328
1587369420069,6.256049,-10.990582,1.8830396
1587369420080,5.3761797,-11.179725,2.7808652
1587369420090,4.614824,-10.969035,3.5122938
1587369420101,4.197036,-10.445902,3.6152446
1587369420112,4.653131,-10.257957,2.2397757
1587369420122,5.2744265,-10.897209,-0.22385786
1587369420134,7.2484455,-11.988965,-1.5059528
1587369420144,9.260772,-13.205219,-3.335123
1587369420157,7.9212165,-15.121778,-3.1184478
1587369420168,7.9212165,-15.121778,-3.1184478
1587369420178,1.3144168,-18.620903,-4.4783545
1587369420187,-2.0518308,-19.982008,-5.2157683
1587369420199,-2.0518308,-19.982008,-5.2157683
1587369420210,-3.311181,-21.277271,-3.309984
1587369420221,-1.8100165,-21.259314,-1.4808137
1587369420230,0.866701,-17.308882,-0.21428105
1587369420241,1.5801731,-14.867992,0.20231004
1587369420252,2.2709002,-13.226768,1.3838485
1587369420264,2.7569232,-12.983756,2.8095956
1587369420276,3.5063083,-13.523648,4.8279076
1587369420287,3.6535518,-15.188815,2.078167
1587369420297,4.11683,-15.060726,1.3227965
1587369420309,3.1244333,-13.221979,-0.90500826
1587369420320,2.9221232,-10.274716,1.163582
1587369420330,1.9333179,-9.173384,1.4700398
1587369420342,1.2749124,-7.8446016,-1.2354081
1587369420352,1.0809821,-6.1399302,-1.7932571
1587369420364,0.24420857,-4.734534,-1.8650831
1587369420374,-0.37469256,-2.8287494,-1.2210429
1587369420386,-0.50278234,-1.9213469,-0.6931214
1587369420396,-1.1145009,-0.9888053,-0.2908955
1587369420408,-1.0187328,-0.10414778,0.08379706
1587369420418,-0.33638534,-0.1352724,0.08619126
1587369420431,-0.33638534,-0.1352724,0.08619126
1587369420441,0.1412579,-0.7098808,-0.2861071
1587369420453,-0.5542577,-1.1312603,-0.7134721
1587369420463,-1.0857705,-1.543063,-0.688333
1587369420475,-1.4053963,-2.0326772,-0.25498247
1587369420486,-1.3455414,-2.6324248,0.47285482
1587369420499,-1.0726024,-3.3806129,1.5047557
1587369420511,0.062249243,-4.9045224,3.799598
1587369420521,1.0199299,-5.697003,4.8602295
1587369420530,1.0199299,-5.697003,4.8602295
1587369420539,3.1423898,-8.791509,6.381745
1587369420551,3.3423057,-11.372458,6.993463
1587369420558,2.5737667,-14.973337,8.819042
1587369420570,2.597709,-18.39106,13.509283
1587369420581,2.597709,-18.39106,13.509283
1587369420593,8.282741,-17.91701,13.420697
1587369420605,10.092757,-13.862428,8.215703
1587369420615,8.772355,-11.943475,7.1826053
1587369420627,6.181829,-9.848549,7.7703815
1587369420636,2.896984,-6.47033,8.094796
1587369420648,0.08259996,-3.4272997,7.523779
1587369420659,-1.2318168,-1.9800048,6.6846113
1587369420669,-1.3251907,-5.686229,5.1583076
1587369420681,-1.3251907,-5.686229,5.1583076
1587369420690,-0.073023155,-26.65345,2.6635494
1587369420701,-0.58298814,-33.71874,2.1559787
1587369420713,2.3894134,-39.170338,1.5514427
1587369420724,7.3873096,-28.680141,1.4413095
1587369420735,-1.2294226,-0.8499416,-8.785523
1587369420747,-11.893197,12.706028,-9.054871
1587369420756,-16.32247,10.839748,-1.4700398
1587369420767,2.5498247,2.2529438,-0.9959879
1587369420776,2.5498247,2.2529438,-0.9959879
1587369420787,11.872847,-14.877569,-6.7348895
1587369420798,11.872847,-14.877569,-6.7348895
1587369420809,9.396045,-21.5538,3.144784
1587369420823,8.6334915,-19.42775,4.7979803
1587369420831,8.6334915,-19.42775,4.7979803
1587369420842,6.242881,-9.051279,0.82001406
1587369420853,4.3718123,-6.896498,0.664391
1587369420865,2.5594015,-6.117185,1.483208
1587369420877,1.5753847,-6.05733,1.6867151
1587369420886,1.5047557,-6.290765,1.4089876
1587369420898,3.156755,-7.5788455,0.29688102
1587369420912,3.156755,-7.5788455,0.29688102
1587369420922,3.156755,-7.5788455,0.29688102
1587369420931,3.156755,-7.5788455,0.29688102
1587369420945,3.156755,-7.5788455,0.29688102
1587369420954,4.2784386,-8.028955,-0.14963761
1587369420963,3.6631286,-7.8505874,0.095768064
1587369420974,3.015497,-7.560889,-0.33758244
1587369420986,2.408567,-7.454347,0.23343466
1587369420994,2.1404164,-7.501034,0.045489833
1587369421005,2.208651,-7.3873096,0.21188685
1587369421017,2.4229321,-7.3310456,0.59376204
1587369421028,2.7952304,-7.380127,0.63206923
1587369421038,2.9005754,-7.5800424,0.58897364
1587369421049,2.823961,-7.6853876,0.6895301
1587369421060,2.8419175,-7.831434,0.61171854
1587369421071,3.0454245,-8.230068,0.5291186
1587369421082,3.478775,-8.790312,0.8403648
1587369421094,3.942053,-9.174581,1.0235212
1587369421102,4.473566,-9.1590185,1.0342951
1587369421114,5.4204726,-8.9602995,0.7517793
1587369421126,5.3965306,-9.210494,0.5590461
1587369421136,5.093664,-9.497798,0.93732995
1587369421148,4.818331,-9.913192,1.5885528
1587369421159,5.1319714,-9.810242,1.6519991
1587369421170,5.3402667,-9.500193,1.0223241
1587369421181,5.3402667,-9.500193,1.0223241
1587369421191,4.7788267,-9.805453,0.736217
1587369421202,4.8243165,-10.047267,1.2210429
1587369421212,5.3366756,-10.024523,1.2629414
1587369421224,5.687426,-9.985018,0.8643068
1587369421233,5.4312468,-10.093954,0.7410054
1587369421245,4.891354,-10.436325,1.0031705
1587369421257,4.3622355,-10.740389,1.5741876
1587369421266,4.0857053,-10.722432,2.3810337
1587369421280,4.3239284,-10.404003,2.9628246
1587369421290,5.693412,-9.313444,0.878672
1587369421299,6.0800753,-8.991425,-0.22744916
1587369421310,7.880515,-9.807847,-0.12210429
1587369421319,9.374496,-11.054029,-1.1827357
1587369421331,9.374496,-11.054029,-1.1827357
1587369421343,5.055357,-15.382746,-1.8686744
1587369421353,1.0606314,-17.234661,-2.2601264
1587369421365,-1.804031,-17.736246,-2.9352913
1587369421375,-2.6001031,-17.476475,-3.9552212
1587369421388,-0.6344634,-18.4988,-3.2920272
1587369421399,0.6607997,-17.811663,-2.5498247
1587369421409,0.6607997,-17.811663,-2.5498247
1587369421419,1.2689269,-14.387955,0.092176765
1587369421431,0.6584055,-12.752715,1.5586253
1587369421441,0.22146365,-11.948263,2.3020248
1587369421453,0.30645782,-11.911154,3.1483753
1587369421463,0.30645782,-11.911154,3.1483753
1587369421476,1.7381904,-14.13417,2.6372132
1587369421486,2.2625206,-15.225925,-0.32561144
1587369421496,2.5198972,-15.021221,-0.48602295
1587369421509,2.468422,-13.850457,0.6596026
1587369421519,2.5713725,-10.426748,1.1623849
1587369421529,2.5713725,-10.426748,1.1623849
1587369421541,2.5354595,-7.4495587,0.11611878
1587369421551,3.0238767,-6.25964,1.151611
1587369421564,3.0238767,-6.25964,1.151611
1587369421573,1.2258313,-3.0777464,1.103727
1587369421585,0.93134445,-2.4073699,0.8798691
1587369421596,0.4309563,-1.7741034,0.45729253
1587369421606,0.1328782,-1.3575124,0.31004912
1587369421619,-0.12569559,-1.3275849,0.2908955
1587369421629,-0.12569559,-1.3275849,0.2908955
1587369421639,-0.23942018,-1.745373,0.3196259
1587369421651,-0.4249708,-1.8842367,0.40701428
1587369421661,-0.4249708,-1.8842367,0.40701428
1587369421673,-0.1376666,-2.457648,1.2425907
1587369421683,0.110133275,-2.8526914,1.7513585
1587369421696,0.2753332,-3.2381577,2.2613235
1587369421706,0.32561144,-3.5889084,2.8323407
1587369421717,0.37349546,-3.858256,3.157952
1587369421728,0.5758055,-4.4220905,3.3183637
1587369421738,1.2761095,-6.135142,3.3854012
1587369421750,1.8734628,-7.967903,3.9755719
1587369421758,1.8734628,-7.967903,3.9755719
1587369421770,2.3175871,-12.166136,7.654263
1587369421783,7.1873937,-15.702372,17.058687
1587369421794,10.3226,-15.945383,14.083892
1587369421804,9.621099,-15.4880905,10.144233
1587369421816,7.180211,-14.001291,9.295488
1587369421827,3.7181952,-11.552023,9.323022
1587369421837,1.1061212,-8.415619,8.063671
1587369421847,0.7170634,-5.3701944,5.793968
1587369421859,0.23463176,-3.1352072,4.5513773
1587369421867,-0.7230489,-3.394978,5.1319714
1587369421879,-1.5119383,-7.0688806,6.5325794
1587369421891,-1.4784195,-18.632875,5.2265425
1587369421901,-2.540248,-26.259604,6.281188
1587369421914,0.50637364,-33.615788,2.8048072
1587369421924,5.2049947,-39.19308,2.5139117
1587369421934,7.2927384,-22.19425,-2.693477
1587369421946,-2.9412768,5.058948,-10.584765
1587369421956,-12.765883,11.263522,-9.242816
1587369421968,-8.27077,5.318719,2.4253263
1587369421976,-8.27077,5.318719,2.4253263
1587369421988,7.8062944,-8.631097,-3.168726
1587369422000,8.492233,-15.818491,0.039504327
1587369422010,8.492233,-15.818491,0.039504327
1587369422023,8.615535,-17.568651,4.951209
1587369422033,7.9008656,-13.36204,3.0418332
1587369422043,6.7923503,-9.095572,1.0450691
1587369422055,5.5258174,-6.4260373,0.7565677
1587369422066,4.175488,-5.3833623,1.4772224
1587369422076,3.1124623,-5.153519,1.922544
1587369422088,3.5781345,-6.4248405,0.7038953
1587369422098,4.296395,-7.529764,0.033518825
1587369422110,4.296395,-7.529764,0.033518825
1587369422120,5.317522,-9.519346,-0.41060558
1587369422133,4.8733974,-9.776723,-0.29927522
1587369422143,3.915717,-9.923966,-0.51595044
1587369422153,2.754529,-9.488221,-0.7206547
1587369422165,1.6879122,-8.694544,-0.9888053
1587369422176,0.9780314,-8.310274,-1.4269443
1587369422187,0.7338228,-8.073248,-1.4221559
1587369422197,0.93254155,-8.051701,-0.81642276
1587369422209,1.4293385,-8.161834,-0.2873042
1587369422219,2.3750482,-8.3868885,-0.2657564
1587369422232,2.4600422,-7.9834657,-0.2896984
1587369422242,2.871845,-7.6363063,-0.21188685
1587369422252,3.2489316,-7.574057,-0.46447513
1587369422264,3.4799721,-7.675811,-0.7326257
1587369422274,3.6750996,-7.8529816,-0.40462008
1587369422287,3.5853171,-8.244433,0.073023155
1587369422297,3.8977604,-9.027337,1.0881647
1587369422309,3.8977604,-9.027337,1.0881647
1587369422318,5.1319714,-8.932767,0.45729253
1587369422329,5.4049106,-8.896853,0.320823
1587369422340,5.2049947,-8.938752,0.5518635
1587369422352,4.8542438,-9.188946,1.3108255
1587369422363,4.775235,-9.829395,1.9548657
1587369422374,5.133168,-10.132261,2.1930888
1587369422386,5.397728,-10.260351,1.6436194
1587369422397,5.1223946,-10.101137,1.0690111
1587369422407,4.8578353,-9.913192,1.0618285
1587369422419,6.2608376,-9.91798,0.40821138
1587369422429,6.6965823,-10.02572,0.4297592
1587369422441,6.6965823,-10.02572,0.4297592
1587369422451,5.7161565,-11.474212,3.240552
1587369422464,5.7065797,-11.506534,3.5877113
1587369422475,6.2285156,-11.3640785,2.553416
1587369422485,6.55293,-11.040861,1.1623849
1587369422496,7.5465236,-10.791864,0.62847793
1587369422506,8.900445,-10.527305,-0.260968
1587369422518,8.519767,-12.373235,-2.0231004
1587369422527,8.519767,-12.373235,-2.0231004
1587369422539,6.70975,-13.694834,-1.4329298
1587369422549,1.8926164,-17.47887,-2.6132712
1587369422561,-1.0319009,-17.918205,-3.5470097
1587369422571,-2.421735,-17.00362,-3.6750996
1587369422583,-2.8383262,-16.31409,-4.19943
1587369422594,-2.8383262,-16.31409,-4.19943
1587369422604,-2.4420857,-17.140089,-3.2956185
1587369422616,-1.8004397,-17.519571,-1.9057846
1587369422626,-1.1204864,-17.128119,-0.18674773
1587369422639,-0.5566519,-15.672444,0.8439561
1587369422649,1.0833763,-12.095507,4.11683
1587369422659,1.0833763,-12.095507,4.11683
1587369422671,2.469619,-13.88637,0.35793316
1587369422681,2.8790276,-13.248315,0.6488287
1587369422693,3.1759086,-11.797429,0.50397944
1587369422703,3.5122938,-9.555259,0.60094464
1587369422715,3.645172,-8.617929,0.108936176
1587369422726,3.7301662,-7.926005,-0.19273324
1587369422736,4.010288,-6.2823853,-0.7038953
1587369422748,2.9580362,-4.5884876,0.7781156
1587369422758,2.9580362,-4.5884876,0.7781156
1587369422771,1.283292,-2.8909986,1.115698
1587369422781,0.34835634,-2.554613,1.3000516
1587369422791,0.34835634,-2.554613,1.3000516
1587369422804,-0.90620536,-2.3870192,1.1803415
1587369422814,-0.8714894,-2.719813,0.8283938
1587369422824,-0.90620536,-2.80361,0.40462008
1587369422836,-0.6823475,-2.7341783,0.046686932
1587369422847,-0.6344634,-2.4420857,-0.049081136
1587369422857,-0.6404489,-2.1811178,0.19033903
1587369422869,-0.6811504,-2.2134395,0.6739678
1587369422879,-0.7374141,-2.4492683,1.2378023
1587369422892,-0.7374141,-2.4492683,1.2378023
1587369422902,-0.36870706,-3.6391866,3.441665
1587369422912,0.05865794,-3.8151605,4.392163
1587369422924,0.830788,-4.226963,5.2528787
1587369422935,1.9847932,-4.8614264,5.7640405
1587369422945,3.4500446,-6.033388,5.7760115
1587369422958,4.924873,-8.231265,5.831078
1587369422964,5.9412117,-11.142614,6.341043
1587369422976,5.7855883,-14.184448,8.246828
1587369422988,4.630386,-16.812084,11.32218
1587369423000,5.4312468,-16.14889,12.500127
1587369423011,6.0010667,-14.403518,10.00896
1587369423021,5.4551888,-13.245921,8.847773
1587369423034,3.6655228,-11.779472,8.347384
1587369423044,1.2425907,-9.441534,7.499837
1587369423054,-0.51714754,-6.4140663,6.5086374
1587369423066,-1.6244658,-3.7576995,5.813122
1587369423075,-2.9604304,-3.1663318,6.149507
1587369423088,-2.4672248,-5.9567738,6.254852
1587369423098,0.15442601,-16.620548,5.3486466
1587369423108,0.15442601,-16.620548,5.3486466
1587369423120,5.628768,-33.31771,4.630386
1587369423130,6.882133,-30.863653,3.833117
1587369423142,-0.06584055,-13.927072,-1.6292542
1587369423152,-10.638636,7.015011,-8.593987
1587369423164,-16.4338,14.79497,-11.896789
1587369423174,-15.3528185,10.732009,-4.614824
1587369423186,-7.9487495,6.041768,4.0677485
1587369423196,2.7617116,-4.4843397,3.3746274
1587369423209,13.469779,-16.497248,-3.4320881
1587369423219,12.471396,-18.669985,-0.7433996
1587369423228,10.737994,-19.102139,2.1799207
1587369423240,10.737994,-19.102139,2.1799207
1587369423252,6.719327,-12.41633,3.6116533
1587369423262,4.1395745,-7.5561004,2.0003555
1587369423274,2.1667526,-4.699818,1.353921
1587369423284,1.0007763,-3.6511576,1.6783354
1587369423296,0.6799533,-4.1599255,1.6986861
1587369423307,1.5011644,-5.5641246,1.4856021
1587369423317,2.5450363,-7.241263,1.42455
1587369423329,4.9428296,-9.090784,1.1360487
1587369423339,4.9428296,-9.090784,1.1360487
1587369423355,6.895301,-8.325836,1.6639702
1587369423365,6.384139,-8.23366,0.15562311
1587369423375,5.2037973,-7.539341,-0.961272
1587369423384,3.9923313,-6.8486137,-0.4441244
1587369423394,2.955642,-6.7959414,0.22385786
1587369423405,2.1942859,-7.291541,0.22744916
1587369423416,1.8339585,-7.644686,0.81522566
1587369423427,1.9835961,-8.571242,1.292869
1587369423438,1.9835961,-8.571242,1.292869
1587369423449,2.9388826,-8.678981,1.3515269
1587369423460,3.1016884,-8.728063,1.2844892
1587369423471,3.0202854,-8.716091,0.5722142
1587369423482,2.7234044,-8.327033,0.14724341
1587369423493,2.5677812,-8.101978,-0.22625206
1587369423505,2.5701754,-7.773973,-0.49799395
1587369423512,2.695871,-7.5968018,-0.5518635
1587369423524,2.6922798,-7.4567413,-0.094570965
1587369423536,2.80361,-7.603985,0.24899697
1587369423549,3.9312792,-8.450335,0.5770026
1587369423559,4.4280763,-9.187749,0.11851298
1587369423569,4.4280763,-9.187749,0.11851298
1587369423581,4.1503487,-10.04607,0.16400282
1587369423591,4.1503487,-10.04607,0.16400282
1587369423603,3.903746,-10.55843,1.1408371
1587369423613,4.286818,-10.569203,0.6727707
1587369423625,4.9536033,-10.407595,0.23104046
1587369423635,5.675455,-10.278308,0.18674773
1587369423647,6.566098,-10.545261,0.37588966
1587369423657,7.064092,-11.20247,1.3946224
1587369423669,7.064092,-11.20247,1.3946224
1587369423679,6.167464,-11.007342,2.2780828
1587369423691,5.8681884,-10.480618,2.4648306
1587369423701,6.051345,-10.237606,1.9859903
1587369423713,6.2129536,-10.607511,0.9672575
1587369423723,6.2129536,-10.607511,0.9672575
1587369423735,7.765593,-11.135432,-0.2621651
1587369423746,8.692149,-11.203667,-1.8770541
1587369423756,8.2516165,-12.144588,-2.9496565
1587369423768,6.5385647,-13.779828,-2.553416
1587369423778,-2.60968,-17.84997,-2.4313118
1587369423790,-3.881001,-16.95454,-2.8574798
1587369423801,-3.763685,-15.996859,-3.5075054
1587369423811,-2.789245,-16.537949,-2.791639
1587369423828,-1.4317327,-17.405846,-2.1787236
1587369423838,-0.033518825,-17.275362,-2.03148
1587369423850,2.055422,-14.753071,0.09816227
1587369423860,2.1942859,-13.273455,2.15957
1587369423873,2.2349873,-12.464214,4.292804
1587369423883,2.5067291,-12.545617,4.8985367
1587369423893,2.3942018,-13.5296335,2.730587
1587369423905,2.5474305,-13.10586,0.9995792
1587369423916,2.2397757,-12.5025215,0.10654198
1587369423927,1.6687586,-11.19409,-1.1731589
1587369423937,2.207454,-9.405622,0.48123455
1587369423949,1.7393875,-7.3753386,-1.7836803
1587369423957,1.7154455,-5.919664,-1.5023615
1587369423969,1.7154455,-5.919664,-1.5023615
1587369423981,1.210269,-4.0174704,-0.82360536
1587369423992,0.59017074,-2.9831753,0.11372458
1587369424002,0.050278235,-1.9321208,1.2641385
1587369424015,-0.25139117,-0.8750807,0.9744401
1587369424026,-0.089782566,-0.7015011,0.89782566
1587369424036,0.18794483,-0.94092125,0.9696517
1587369424048,0.45609543,-1.9716251,0.93373865
1587369424058,0.33638534,-2.4600422,0.8798691
1587369424070,0.33638534,-2.4600422,0.8798691
1587369424080,0.29568392,-3.145981,1.2234371
1587369424092,0.39504328,-3.502717,1.5191209
1587369424102,0.62488663,-3.7062242,2.2589293
1587369424114,0.8463503,-4.1383777,2.9520507
1587369424125,1.1061212,-4.2820296,3.618836
1587369424135,1.5765818,-4.5633483,4.271256
1587369424147,2.3930047,-5.0613422,4.71538
1587369424157,4.3622355,-7.3968863,4.96318
1587369424169,4.3622355,-7.3968863,4.96318
1587369424177,4.462792,-9.369708,5.3438582
1587369424189,4.301183,-13.904326,9.883265
1587369424201,4.5274353,-15.618575,12.413936
1587369424213,5.412093,-15.968128,13.3464775
1587369424225,7.5680714,-13.53921,10.371682
1587369424235,7.047333,-12.873623,9.275137
1587369424245,4.921282,-12.059594,8.75799
1587369424254,1.6771383,-10.538078,7.952341
1587369424265,-1.4891934,-8.698134,5.9843073
1587369424277,-3.702633,-6.18542,4.059369
1587369424284,-4.4795513,-4.1383777,3.8379054
1587369424295,-4.5753193,-3.7732618,5.141548
1587369424306,-4.4101195,-6.1064115,7.5201874
1587369424317,-1.9512744,-10.613496,8.653842
1587369424328,0.36990416,-25.499445,5.9759274
1587369424339,3.3303347,-32.893936,6.1566896
1587369424350,8.237251,-39.19308,-1.2198458
1587369424360,9.181764,-27.556065,-4.6782703
1587369424371,-3.2956185,3.064578,-15.0822735
1587369424384,-17.572243,14.8272915,-14.523228
1587369424388,-22.529438,12.038046,0.19871874
1587369424401,-11.6669445,12.252327,6.789956
1587369424412,4.9344497,0.6619968,-1.2988545
1587369424423,11.9374895,-8.99741,-3.9827545
1587369424434,11.923124,-13.9151,-4.655525
1587369424445,10.6877165,-16.461334,-2.4540567
1587369424456,10.204087,-20.891804,2.0805612
1587369424467,10.001778,-17.967287,2.3068132
1587369424478,6.5146227,-7.28795,0.8846575
1587369424488,4.498705,-5.849035,1.496376
1587369424500,4.498705,-5.849035,1.496376
1587369424510,2.4181437,-5.8717794,0.9923966
1587369424523,2.731784,-7.023391,-0.2765303
1587369424533,3.2513258,-8.323442,-1.0941502
1587369424543,3.5314474,-9.452309,-0.9911995
1587369424554,3.5685577,-10.169372,-1.2761095
1587369424567,3.110068,-9.944317,-0.94211835
1587369424577,2.540248,-9.835381,-0.17477672
1587369424587,2.2397757,-9.825804,-0.48362875
1587369424599,2.0039468,-9.640253,-1.2306197
1587369424607,2.0685902,-9.179369,-1.5562311
1587369424620,2.1751323,-8.831013,-1.685518
1587369424630,2.4636335,-8.104373,-0.2896984
1587369424642,2.6013002,-7.93199,-0.19752164
1587369424652,2.6013002,-7.93199,-0.19752164
1587369424665,2.6324248,-7.872135,-0.17717093
1587369424675,2.2457612,-7.9307933,-0.09935937
1587369424685,1.8495208,-7.964312,-0.053869538
1587369424697,2.1655555,-8.157045,0.1604115
1587369424707,2.5845408,-8.191761,0.055066638
1587369424720,3.0705638,-8.221688,0.33997664
1587369424730,4.10845,-8.360553,1.198298
1587369424740,4.796783,-8.380903,1.0151415
1587369424752,4.796783,-8.380903,1.0151415
1587369424762,5.9041014,-8.790312,0.6428431
1587369424774,5.6323595,-9.234436,0.90021986
1587369424784,5.1798553,-9.487024,1.5634137
1587369424797,4.781221,-9.540894,2.0326772
1587369424807,4.757279,-9.589975,2.0853498
1587369424817,4.9464207,-9.856929,1.5693992
1587369424829,5.2780175,-10.011354,0.7517793
1587369424839,5.9723363,-10.064027,0.36750996
1587369424852,5.9723363,-10.064027,0.36750996
1587369424862,6.4787097,-11.15698,0.11971009
1587369424873,5.722142,-12.021287,1.0366893
1587369424883,5.01705,-12.800599,1.8830396
1587369424895,4.724957,-12.871228,2.529474
1587369424906,4.96318,-11.976994,1.2761095
1587369424916,5.493496,-11.07438,-0.35194764
1587369424929,7.035362,-10.959458,-0.22266077
1587369424935,7.035362,-10.959458,-0.22266077
1587369424947,8.057686,-10.761936,-1.2557588
1587369424959,7.20535,-12.314576,-2.146402
1587369424971,5.3594203,-14.453795,-0.63206923
1587369424981,4.011485,-16.124949,-0.37588966
1587369424993,2.9161377,-16.224308,-1.6938977
1587369425003,1.9500773,-15.514427,-1.7956513
1587369425015,0.9816227,-15.127764,-1.9369092
1587369425026,-0.17836803,-14.753071,-1.9572599
1587369425037,-0.9696517,-13.476961,-2.2122424
1587369425047,-0.9828198,-12.236765,-2.8814218
1587369425059,-0.034715924,-12.220005,-1.1480197
1587369425069,0.094570965,-12.637794,-0.2789245
1587369425081,0.4309563,-13.026852,0.1340753
1587369425091,0.8403648,-12.867637,0.5734113
1587369425103,1.4077905,-12.344504,1.0031705
1587369425113,1.9859903,-12.186486,1.9452889
1587369425125,2.243367,-13.583504,0.32321724
1587369425136,2.1990743,-13.899538,-0.6536171
1587369425146,2.304419,-13.366828,-0.44651863
1587369425158,2.8658595,-10.585963,0.15801731
1587369425168,2.8658595,-10.585963,0.15801731
1587369425180,3.3207579,-7.9990277,1.4939818
1587369425190,2.9520507,-6.7025676,0.6715736
1587369425203,2.8538885,-5.9364233,1.2473791
1587369425213,2.6024973,-5.043386,2.2409728
1587369425223,1.9620483,-4.0174704,2.5605986
1587369425235,1.5729905,-3.83192,2.2421699
1587369425245,0.93732995,-3.9444473,1.472434
1587369425257,0.7134721,-3.1471782,2.1452048
1587369425265,0.5255273,-3.5553896,0.6871359
1587369425278,0.33159694,-3.667917,0.08379706
1587369425288,-0.31244332,-3.394978,-0.5303157
1587369425300,-0.31244332,-3.394978,-0.5303157
1587369425310,-0.8283938,-2.528277,-0.047884032
1587369425322,-0.6500258,-2.2780828,0.2705448
1587369425332,-0.34476504,-2.315193,0.6871359
1587369425344,0.24540567,-2.4959552,2.0817583
1587369425354,0.6392518,-3.2094274,2.7485435
1587369425367,1.1264719,-3.691859,3.5194764
1587369425373,1.5921441,-4.2197804,4.0773253
1587369425385,1.958457,-4.868609,4.2784386
1587369425398,2.2996306,-5.6706667,4.4556093
1587369425408,2.2888567,-9.130288,5.997475
1587369425420,1.8351556,-11.766304,7.964312
1587369425430,1.8351556,-11.766304,7.964312
1587369425443,4.697424,-16.633717,15.3528185
1587369425452,9.105149,-17.104177,13.788208
1587369425464,11.680113,-16.765398,9.240421
1587369425473,9.455899,-15.625757,9.033323
1587369425486,5.497087,-13.676877,9.248801
1587369425495,1.8674773,-10.449493,7.807492
1587369425506,-0.20829555,-6.7588315,6.030994
1587369425517,-1.5191209,-2.3642743,5.1846437
1587369425528,-1.5191209,-2.3642743,5.1846437
1587369425539,-1.9740193,-5.1918263,7.1502833
1587369425550,-1.9740193,-5.1918263,7.1502833
1587369425562,0.92775315,-15.000871,3.4524388
1587369425574,2.3690627,-24.95237,0.9744401
1587369425584,2.3690627,-24.95237,0.9744401
1587369425596,4.187459,-24.187422,0.8655039
1587369425606,-0.7326257,-6.266823,-3.9217024
1587369425618,-12.349293,1.292869,-4.0916905
1587369425628,-12.349293,1.292869,-4.0916905
1587369425640,-4.2796354,-0.047884032,1.8698715
1587369425650,-4.2796354,-0.047884032,1.8698715
1587369425662,8.866926,-9.617508,-2.7341783
1587369425672,12.029667,-13.869611,-2.6264393
1587369425684,12.516887,-17.229872,-0.89423436
1587369425694,11.1414175,-17.420212,0.79248077
1587369425706,8.701726,-13.633781,1.6627731
1587369425716,6.0489507,-8.774749,1.6986861
1587369425728,3.989937,-5.9005103,1.553837
1587369425738,2.5785553,-4.811148,2.3319526
1587369425750,2.5785553,-4.811148,2.3319526
1587369425760,4.662708,-6.1519012,0.8858546
1587369425772,5.997475,-7.291541,-0.2681506
1587369425782,5.997475,-7.291541,-0.2681506
1587369425794,4.617218,-8.516175,-0.58777654
1587369425804,3.1256304,-8.623915,-0.37948096
1587369425817,2.0949266,-8.676587,-0.4201824
1587369425827,1.4640543,-8.564059,-0.5363012
1587369425837,1.6986861,-8.858546,0.11611878
1587369425850,1.6986861,-8.858546,0.11611878
1587369425860,2.067393,-9.289502,-0.08020575
1587369425870,1.8662802,-8.956709,-0.32202014
1587369425882,1.8662802,-8.956709,-0.32202014
1587369425893,2.0925324,-7.9475527,-0.5303157
1587369425903,2.6048915,-7.632715,-0.62847793
1587369425915,2.9867666,-7.5800424,-0.7553706
1587369425923,3.3028011,-7.8829093,-0.6452374
1587369425935,3.6834793,-8.437167,0.06703765
1587369425947,3.7936125,-9.033323,0.5770026
1587369425958,3.8391025,-9.19972,0.8343793
1587369425968,4.665102,-8.620323,0.36750996
1587369425980,4.665102,-8.620323,0.36750996
1587369425990,5.4144874,-9.348161,-0.15562311
1587369426002,5.2026005,-9.985018,0.50757074
1587369426012,4.381389,-10.594342,1.8662802
1587369426024,4.289212,-10.352529,2.4552538
1587369426033,4.867412,-9.698911,2.268506
1587369426045,5.568913,-9.0476885,1.3311762
1587369426055,5.6886234,-8.64666,0.4225766
1587369426066,5.449203,-8.627506,0.47764325
1587369426077,5.485116,-8.9758625,0.6775591
1587369426089,5.7185507,-10.292673,1.0414777
1587369426098,5.7185507,-10.292673,1.0414777
1587369426109,4.3287168,-11.325771,2.372654
1587369426120,4.0162735,-11.143812,2.6623523
1587369426131,4.0162735,-11.143812,2.6623523
1587369426141,5.1607018,-10.730812,0.9540894
1587369426154,6.5684924,-10.45069,0.053869538
1587369426164,8.249222,-10.8948145,-1.4891934
1587369426174,8.853758,-11.978191,-2.48159
1587369426186,8.015787,-13.198037,-2.231396
1587369426197,6.505046,-14.8117285,-1.7537527
1587369426207,4.2664676,-17.064672,-2.1571758
1587369426219,-1.2605472,-18.72984,-3.5302503
1587369426229,-1.2605472,-18.72984,-3.5302503
1587369426241,-3.1794999,-16.488867,-2.0506337
1587369426249,-2.3391352,-15.713146,-1.3120226
1587369426261,-1.0845734,-14.470555,-0.50397944
1587369426273,0.14724341,-13.126211,0.62847793
1587369426283,0.7098808,-11.851298,1.2389994
1587369426295,1.0486604,-10.83496,2.0111294
1587369426305,1.4652514,-10.773908,2.944868
1587369426318,2.6013002,-13.005303,2.8502972
1587369426328,2.6013002,-13.005303,2.8502972
1587369426338,3.2620997,-14.049175,0.51116204
1587369426350,2.9400797,-13.391967,-0.7194576
1587369426358,3.13401,-11.68131,0.16519992
1587369426370,2.6048915,-10.192117,-1.0247183
1587369426382,2.0913353,-8.534132,-0.24540567
1587369426392,1.9500773,-7.053318,2.4013844
1587369426404,1.5729905,-6.8402343,1.42455
1587369426415,1.4820108,-6.2728086,0.93254155
1587369426425,1.6244658,-5.258864,1.2378023
1587369426438,1.2437878,-2.8287494,1.2868834
1587369426448,1.2437878,-2.8287494,1.2868834
1587369426458,0.06823475,-1.6795325,0.51834464
1587369426470,-0.062249243,-1.9285295,0.48003745
1587369426481,-0.062249243,-1.9285295,0.48003745
1587369426491,-0.14844051,-2.0386627,0.23343466
1587369426503,-0.18315643,-2.0913353,0.4285621
1587369426513,-0.31124622,-2.2649148,0.6955156
1587369426524,-0.19273324,-2.3942018,1.1994951
1587369426535,-0.029927522,-2.4887726,1.6567876
1587369426547,0.08619126,-2.6886885,2.2780828
1587369426556,0.33638534,-2.907758,3.0226796
1587369426567,1.2797008,-3.6367924,4.534618
1587369426576,1.2797008,-3.6367924,4.534618
1587369426587,2.2732944,-4.345476,5.5377884
1587369426598,3.9121256,-7.787141,6.8091097
1587369426609,3.9121256,-7.787141,6.8091097
1587369426620,3.7672763,-13.39915,12.126632
1587369426631,3.7672763,-13.39915,12.126632
1587369426643,7.7189064,-19.29966,13.888764
1587369426655,9.537302,-19.63006,8.310274
1587369426665,7.6865845,-18.169598,7.0904284
1587369426677,0.46567222,-14.590265,6.385336
1587369426685,-1.5682021,-6.019023,4.525041
1587369426698,-4.951209,-3.7612908,4.0653543
1587369426708,-4.951209,-3.7612908,4.0653543
1587369426720,-1.721431,-13.232753,5.7424927
1587369426730,-1.721431,-13.232753,5.7424927
1587369426742,-0.14963761,-25.207352,7.717709
1587369426752,4.201824,-28.107927,3.891775
1587369426764,8.47308,-30.41115,3.630807
1587369426774,6.4224463,-17.937359,0.08140286
1587369426786,-3.3913867,4.6603136,-8.659827
1587369426794,-11.911154,11.395203,-10.759542
1587369426806,-15.081077,5.744887,-2.7353754
1587369426818,1.5191209,-2.3654714,0.2789245
1587369426828,1.5191209,-2.3654714,0.2789245
1587369426840,10.670957,-16.189592,-4.5322237
1587369426850,9.627085,-18.39585,-0.093373865
1587369426863,9.627085,-18.39585,-0.093373865
1587369426873,7.5824366,-16.717514,3.5649664
1587369426883,6.129156,-11.63582,1.5945383
1587369426895,3.4452562,-7.788338,0.9840169
1587369426904,2.3403323,-5.1882353,1.6986861
1587369426916,1.970428,-5.2887917,2.2780828
1587369426927,2.566584,-5.9759274,2.0087352
1587369426937,3.4955344,-6.9743094,1.3802572
1587369426951,5.9771247,-8.711303,0.9923966
1587369426961,5.9771247,-8.711303,0.9923966
1587369426971,7.079654,-8.868123,0.4189853
1587369426981,6.3182983,-8.574833,0.36391866
1587369426993,4.8781857,-7.8793178,0.35075054
1587369427003,3.4344823,-7.253234,0.24779987
1587369427016,2.4540567,-7.028179,0.088585466
1587369427026,1.922544,-7.181408,-0.1412579
1587369427037,1.7010803,-7.4735007,0.18914193
1587369427047,1.9835961,-8.153454,0.45729253
1587369427059,1.9835961,-8.153454,0.45729253
1587369427070,2.171541,-8.334216,-0.10175357
1587369427080,2.2038627,-8.423999,0.045489833
1587369427093,2.304419,-8.418014,0.22625206
1587369427103,2.4181437,-8.392874,0.15442601
1587369427113,2.2242134,-8.209718,-0.059855044
1587369427125,2.2421699,-8.439561,-0.074220255
1587369427134,2.8778305,-8.956709,-0.47764325
1587369427146,3.5625722,-9.3182335,-0.7182605
1587369427159,4.068946,-9.172187,-0.82360536
1587369427168,4.4304705,-9.027337,-0.748188
1587369427180,4.2401314,-9.536105,-0.23223756
1587369427190,4.0857053,-10.183737,0.6488287
1587369427202,4.0198646,-10.637438,1.271321
1587369427213,4.175488,-10.71525,1.353921
1587369427223,4.4903255,-10.45907,0.80325466
1587369427235,4.653131,-10.101137,0.06943185
1587369427245,4.485537,-9.853337,-0.25498247
1587369427257,4.4077253,-9.68694,0.23343466
1587369427267,4.7177744,-9.6845455,0.6967127
1587369427279,5.451597,-10.244789,0.9684546
1587369427289,5.117606,-10.71525,1.1348516
1587369427301,4.559757,-11.058818,1.6484078
1587369427312,4.559757,-11.058818,1.6484078
1587369427322,4.554969,-11.100717,2.4301147
1587369427334,5.019444,-10.995371,2.099715
1587369427341,7.0808516,-10.941502,-0.4177882
1587369427353,7.9212165,-10.96305,-0.10295067
1587369427366,9.203311,-11.071986,-0.20231004
1587369427376,10.052056,-11.670536,-1.2761095
1587369427388,6.397307,-13.549985,-1.9165585
1587369427398,4.0294414,-15.142129,-2.4887726
1587369427411,4.0294414,-15.142129,-2.4887726
1587369427421,-0.8678981,-17.392677,-3.8750155
1587369427431,-2.2493525,-17.03235,-3.930082
1587369427444,-2.6360161,-16.23987,-3.9432502
1587369427450,-2.4708161,-15.824476,-3.4488475
1587369427462,-1.9213469,-16.114174,-2.622848
1587369427474,-1.5191209,-16.112978,-1.0857705
1587369427486,-1.3503298,-15.661671,0.17597382
1587369427496,-1.0630256,-14.350845,1.4401124
1587369427508,-0.40222588,-12.537237,2.6563668
1587369427518,1.9752164,-11.790246,3.8259344
1587369427530,2.5306711,-13.10586,1.8734628
1587369427541,2.5306711,-13.10586,1.8734628
1587369427551,3.3135753,-13.861231,0.51834464
1587369427565,3.9671922,-9.88925,0.110133275
1587369427572,4.0976763,-8.050503,-0.33039984
1587369427584,3.6343982,-7.2340803,-0.8870517
1587369427595,3.3889925,-5.947197,0.48602295
1587369427606,2.5809495,-5.6778493,0.094570965
1587369427617,1.9261353,-4.7261543,2.12246
1587369427628,2.0817583,-3.8067808,2.6144683
1587369427639,2.0817583,-3.8067808,2.6144683
1587369427650,1.7836803,-3.442862,1.7178397
1587369427661,0.8475474,-3.2920272,1.3371617
1587369427670,-0.10175357,-3.228581,0.94211835
1587369427681,-0.62847793,-3.3243492,0.59615624
1587369427693,-0.62847793,-3.3243492,0.59615624
1587369427705,-0.9768343,-3.4835634,-0.15442601
1587369427715,-0.830788,-3.3135753,-0.14963761
1587369427727,-0.6703765,-3.1196449,0.16759412
1587369427737,-0.4261679,-3.0334535,0.7697359
1587369427749,0.16998832,-3.2321723,2.4073699
1587369427759,0.16998832,-3.2321723,2.4073699
1587369427771,0.9684546,-3.620033,4.2161894
1587369427779,1.543063,-4.027047,5.1642933
1587369427791,1.543063,-4.027047,5.1642933
1587369427804,4.1862617,-6.5577183,6.9371996
1587369427814,5.281609,-7.645883,7.109582
1587369427824,5.437232,-9.554062,7.2472486
1587369427836,4.9045224,-11.020511,7.666234
1587369427847,3.027468,-12.720393,9.367314
1587369427857,2.6072857,-13.433866,12.91193
1587369427869,5.595249,-11.903971,10.178948
1587369427879,6.4523735,-11.6430025,7.454347
1587369427891,6.4523735,-11.6430025,7.454347
1587369427901,1.7381904,-11.030087,6.835446
1587369427914,-0.8475474,-9.42238,6.0728927
1587369427923,-1.5993267,-7.1383123,4.7417164
1587369427935,-1.863886,-5.1678843,4.608838
1587369427946,-2.6264393,-5.033809,5.8574142
1587369427956,-3.168726,-6.977901,6.933608
1587369427968,-1.1145009,-14.20839,5.8466406
1587369427979,-0.45609543,-18.219875,6.8330517
1587369427989,-0.45609543,-18.219875,6.8330517
1587369428001,6.578069,-30.33693,4.050989
1587369428012,0.89543146,-5.434838,-6.2823853
1587369428022,-6.906075,4.9667716,-9.044097
1587369428034,-12.769475,4.1635165,-5.4563856
1587369428044,-10.8864355,1.9321208,0.94570965
1587369428056,-4.0162735,-0.05865794,3.2225955
1587369428067,4.0677485,-5.770026,0.2873042
1587369428077,9.041702,-9.980229,-2.9580362
1587369428089,10.168175,-12.48217,-2.5570073
1587369428099,9.190144,-16.964117,2.3475149
1587369428113,8.244433,-15.553931,3.0358477
1587369428121,6.781576,-11.421539,1.9740193
1587369428133,5.1678843,-7.7787614,1.3323733
1587369428144,3.8534677,-6.1399302,1.4891934
1587369428154,3.0346506,-5.8322754,1.685518
1587369428166,2.5270798,-6.5936313,1.3694834
1587369428177,2.3918076,-7.801506,1.1192893
1587369428187,2.5725696,-8.895657,0.7769185
1587369428199,3.2573113,-9.847352,1.1587936
1587369428209,3.596091,-9.688137,1.508347
1587369428221,4.519056,-9.296685,0.36032736
1587369428231,4.6519337,-8.397662,-0.6356605
1587369428243,4.4005427,-7.9846625,-1.42455
1587369428253,3.8163576,-7.6626425,-1.2964603
1587369428265,3.1555579,-7.562086,-0.6751649
1587369428276,2.6072857,-7.73806,-0.58418524
1587369428286,2.4768016,-7.9391727,-0.076614454
1587369428298,2.208651,-8.476671,0.48482585
1587369428308,2.208651,-8.476671,0.48482585
1587369428320,2.231396,-8.457518,-0.076614454
1587369428328,2.4432828,-8.220491,-0.08140286
1587369428340,2.4432828,-8.220491,-0.08140286
1587369428353,2.5210943,-7.7584105,-0.5674258
1587369428363,2.6886885,-7.8326306,-0.33039984
1587369428373,2.6443958,-8.2037325,-0.4333505
1587369428385,2.3918076,-8.67539,-0.33638534
1587369428395,2.2361844,-9.016563,0.16519992
1587369428407,2.3463178,-8.993818,0.40940848
1587369428417,2.669535,-8.631097,0.30286652
1587369428429,4.238934,-8.239645,-0.51714754
1587369428437,4.238934,-8.239645,-0.51714754
1587369428449,3.6631286,-9.7084875,0.60693014
1587369428462,3.5314474,-10.2735195,1.0941502
1587369428472,3.5314474,-10.2735195,1.0941502
1587369428482,3.678691,-10.676943,0.748188
1587369428494,3.9552212,-10.336966,0.24301147
1587369428505,4.1264067,-10.042479,-0.20949265
1587369428515,4.441244,-9.975441,-0.3890578
1587369428527,4.933253,-10.192117,-0.2645593
1587369428537,5.4527946,-10.589554,0.0035913025
1587369428549,6.279991,-11.143812,0.92057055
1587369428559,6.257246,-11.221623,1.1875241
1587369428571,6.257246,-11.221623,1.1875241
1587369428581,6.2823853,-11.378444,1.8902222
1587369428594,6.7684083,-11.427525,1.721431
1587369428604,7.265205,-11.633426,0.7577648
1587369428614,7.3729444,-12.021287,0.6703765
1587369428627,7.8182654,-11.81778,1.2952632
1587369428636,8.767567,-11.127052,0.20111294
1587369428647,7.953538,-11.552023,-2.3056161
1587369428657,7.953538,-11.552023,-2.3056161
1587369428668,5.2002063,-13.826515,-1.6663644
1587369428679,-1.1145009,-15.318103,-2.2421699
1587369428690,-2.3343468,-14.842854,-2.147599
1587369428701,-2.4289176,-13.980941,-2.3750482
1587369428712,-1.899799,-13.160927,-3.3530796
1587369428724,-1.899799,-13.160927,-3.3530796
1587369428734,-0.17597382,-13.077129,-2.6982653
1587369428746,0.21068975,-14.160506,-1.1336545
1587369428756,0.35434186,-15.19959,0.017956512
1587369428768,1.2282255,-15.407885,0.78769237
1587369428778,2.3235726,-13.6014595,2.5318682
1587369428790,2.3020248,-13.110648,3.4991257
1587369428801,2.007538,-13.785813,2.4193408
1587369428811,2.0362685,-14.030022,0.18076223
1587369428823,2.0362685,-14.030022,0.18076223
1587369428833,2.0087352,-12.756307,-0.6703765
1587369428845,2.2541409,-10.740389,-0.30286652
1587369428855,2.9891608,-9.257181,0.25617957
1587369428868,3.1196449,-7.548918,-1.1121067
1587369428874,3.1902738,-6.63553,-0.5494693
1587369428886,2.9987376,-6.351817,0.15203181
1587369428898,2.03148,-4.2173862,2.7760768
1587369428911,1.4065934,-3.359065,2.148796
1587369428921,1.4065934,-3.359065,2.148796
1587369428931,0.39264908,-3.265691,1.5466543
1587369428944,0.095768064,-3.193865,1.2761095
1587369428954,0.008379706,-3.1591492,0.82001406
1587369428963,-0.079008654,-3.107674,0.34117374
1587369428976,-0.05865794,-2.9831753,0.010773907
1587369428982,-0.06823475,-2.8215668,-0.017956512
1587369428994,0.044292733,-2.6084828,0.25737667
1587369429006,0.029927522,-2.385822,0.7098808
1587369429019,-0.015562311,-2.4732103,1.376666
1587369429028,0.47046062,-3.003526,2.8000188
1587369429040,0.58418524,-3.4356794,3.490746
1587369429050,0.51714754,-3.727772,4.010288
1587369429063,0.7577648,-3.894169,4.590882
1587369429073,0.7577648,-3.894169,4.590882
1587369429083,1.5251064,-4.7309427,4.6495395
1587369429095,2.1296425,-5.309142,4.3382936
1587369429105,3.0813377,-6.68102,4.687847
1587369429117,3.526659,-8.75799,4.9548006
1587369429127,3.3518825,-14.346057,10.056845
1587369429139,7.394492,-17.593792,13.43626
1587369429149,8.173804,-17.19396,11.490971
1587369429161,6.8486137,-15.570691,10.627861
1587369429171,6.8486137,-15.570691,10.627861
1587369429184,1.6124948,-9.40203,9.358934
1587369429194,-0.034715924,-6.327875,8.024167
1587369429206,-0.6895301,-3.7074213,6.787562
1587369429216,-1.0271125,-2.825158,6.408081
1587369429229,1.2282255,-10.119094,6.131551
1587369429239,2.0219033,-17.225084,5.341464
1587369429249,1.1827357,-23.69781,6.265626
1587369429261,3.0262709,-29.178137,5.0840874
1587369429271,3.0262709,-29.178137,5.0840874
1587369429283,8.737639,-29.640217,1.6986861
1587369429293,1.4676456,-6.1064115,-5.6910176
1587369429305,-9.414001,10.534488,-12.576741
1587369429314,-17.840393,8.723274,-10.880449
1587369429326,-17.420212,7.3059063,-0.14844051
1587369429337,-7.4124484,7.703344,2.516306
1587369429347,12.533646,-11.329363,-3.4500446
1587369429359,14.768633,-22.448034,1.1611878
1587369429369,14.768633,-22.448034,1.1611878
1587369429381,8.760384,-16.48408,3.6499605
1587369429393,5.064934,-9.937134,1.934515
1587369429403,1.9919758,-5.8322754,0.14963761
1587369429413,-0.5542577,-4.5154643,0.58298814
1587369429425,-1.9141643,-3.9240966,1.8531121
1587369429436,-1.7274165,-4.3993454,2.384625
1587369429449,1.673547,-7.656657,0.91219085
1587369429459,3.6272156,-8.746018,0.51355624
1587369429469,3.6272156,-8.746018,0.51355624
1587369429479,6.5002575,-9.988609,0.4261679
1587369429491,7.029376,-9.811439,-0.15562311
1587369429501,6.4368114,-9.181764,-0.7230489
1587369429513,5.3713913,-8.380903,-0.59017074
1587369429524,4.177882,-7.8888946,0.053869538
1587369429534,3.1495724,-7.8170686,0.11133038
1587369429546,2.3774424,-7.8039002,0.12330139
1587369429557,2.0614076,-7.7201033,0.25857377
1587369429567,2.3523033,-8.385692,0.92416185
1587369429579,2.9388826,-9.076419,0.6380547
1587369429591,2.5629928,-9.26556,0.14963761
1587369429601,2.5629928,-9.26556,0.14963761
1587369429611,2.1535845,-8.488642,-1.1851299
1587369429623,2.1068976,-7.7332716,-1.8495208
1587369429633,2.1691468,-7.0581064,-2.0111294
1587369429645,2.4384944,-7.017405,-1.3096284
1587369429655,2.801216,-7.7368627,-0.18195933
1587369429666,2.96881,-8.323442,1.033098
1587369429679,4.1132383,-8.39048,1.3156139
1587369429689,4.7524905,-8.647857,0.7781156
1587369429699,4.7524905,-8.647857,0.7781156
1587369429710,4.537012,-9.309854,0.6931214
1587369429721,4.3047748,-9.7240505,1.2449849
1587369429733,4.590882,-10.048465,1.2006922
1587369429742,5.207389,-10.01734,0.7170634
1587369429755,5.451597,-9.8677025,0.3172317
1587369429764,5.052963,-9.816227,0.49799395
1587369429775,4.747702,-9.939528,0.8655039
1587369429786,5.410896,-10.229227,1.3180081
1587369429797,6.1519012,-11.125855,0.93852705
1587369429808,4.6818614,-11.530476,1.9309237
1587369429820,4.6818614,-11.530476,1.9309237
1587369429831,5.542577,-11.757924,1.5251064
1587369429844,5.9867015,-12.191275,1.1647792
1587369429854,6.6750345,-12.133814,1.5071499
1587369429866,8.337808,-11.83813,0.25498247
1587369429876,9.816227,-12.13142,-2.0087352
1587369429890,7.727286,-14.512454,-1.5334862
1587369429900,7.727286,-14.512454,-1.5334862
1587369429910,3.2273839,-15.792154,-1.3060371
1587369429921,0.06823475,-15.746665,-2.100912
1587369429931,-2.2062569,-15.028404,-2.8491
1587369429943,-3.1663318,-14.516045,-3.821146
1587369429953,-3.1663318,-14.516045,-3.821146
1587369429966,-2.9101522,-14.708778,-3.4512417
1587369429972,-1.6675615,-15.306131,-1.9740193
1587369429984,-0.011971008,-15.853207,-0.37948096
1587369429996,1.352724,-15.611392,1.2401965
1587369430008,2.4432828,-11.725603,4.402937
1587369430018,2.4432828,-11.725603,4.402937
1587369430030,2.6970682,-11.877635,-0.5626374
1587369430040,2.8814218,-12.460623,-0.91219085
1587369430052,2.8814218,-12.460623,-0.91219085
1587369430062,3.1555579,-10.295067,-1.6280571
1587369430075,2.9831753,-8.674192,-1.0402806
1587369430081,2.504335,-7.368156,-1.2378023
1587369430093,2.2840683,-6.443994,-0.8714894
1587369430105,1.9716251,-6.0130377,-0.5374983
1587369430117,1.9548657,-5.104438,1.7022774
1587369430127,1.5598224,-4.531027,2.4875755
1587369430140,0.36391866,-3.466804,2.2625206
1587369430150,0.36391866,-3.466804,2.2625206
1587369430160,-0.035913024,-3.2716765,0.79128367
1587369430172,-0.33877954,-3.3375173,0.5674258
1587369430183,-0.38067806,-3.2609026,0.41299978
1587369430193,-0.29927522,-3.252523,0.2753332
1587369430205,-0.21308395,-3.1615434,0.33638534
1587369430215,0.023942016,-3.0801406,0.5398925
1587369430227,0.18555063,-3.039439,0.8391677
1587369430238,0.44651863,-3.405752,2.3331497
1587369430248,0.44651863,-3.405752,2.3331497
1587369430260,0.91578215,-4.0043025,3.4739866
1587369430270,1.1204864,-4.212598,4.0462008
1587369430282,1.3802572,-4.7297454,4.3239284
1587369430292,1.9093759,-5.1104236,4.853047
1587369430304,2.3953989,-6.223727,4.7680526
1587369430314,3.1124623,-7.9092455,5.3678
1587369430327,3.144784,-9.7563715,5.681441
1587369430337,2.0087352,-14.174871,11.417948
1587369430348,2.0087352,-14.174871,11.417948
1587369430358,7.419631,-16.497248,14.304158
1587369430369,10.006566,-15.128961,10.1861315
1587369430381,9.155427,-13.475764,8.552089
1587369430392,6.6786256,-12.010512,8.772355
1587369430403,2.9496565,-9.841366,8.435969
1587369430413,-0.0035913025,-7.4507556,6.8162923
1587369430425,-1.436521,-4.8698063,4.8602295
1587369430435,-1.436521,-4.8698063,4.8602295
1587369430447,-3.2920272,-5.199009,5.106832
1587369430457,-0.04309563,-9.563639,4.975151
1587369430469,2.3906105,-29.653385,3.3482912
1587369430479,5.0362034,-34.765007,-1.4197617
1587369430491,7.7189064,-27.15743,0.89423436
1587369430501,0.5494693,-5.282806,-3.9516299
1587369430514,-9.854534,9.901221,-10.985794
1587369430520,-16.930597,8.432379,-6.7863646
1587369430531,-16.930597,8.432379,-6.7863646
1587369430543,-5.6886234,3.1112652,0.18674773
1587369430555,3.7840357,-5.401319,-2.421735
1587369430567,9.838972,-11.684901,-3.904943
1587369430577,12.166136,-15.977705,-2.3642743
1587369430589,12.934674,-20.233398,2.4480712
1587369430599,12.934674,-20.233398,2.4480712
1587369430611,7.6985555,-9.601946,0.8678981
1587369430621,4.533421,-6.0285997,0.44651863
1587369430633,4.533421,-6.0285997,0.44651863
1587369430643,0.7326257,-4.52145,2.2254105
1587369430656,0.7134721,-5.17387,2.3175871
1587369430666,1.8411411,-6.4380083,1.4891934
1587369430677,3.2704794,-7.6865845,-0.15203181
1587369430687,6.1938,-8.924387,-0.59495914
1587369430699,6.5720835,-8.652645,-0.4321534
1587369430709,4.758476,-8.129512,-0.8822633
1587369430721,3.4009635,-7.943961,-1.4221559
1587369430731,3.4009635,-7.943961,-1.4221559
1587369430745,1.7585411,-7.6865845,-0.7505822
1587369430754,1.6053122,-8.226477,-0.29568392
1587369430764,2.0147207,-8.75799,0.712275
1587369430776,2.4001873,-8.90643,0.93254155
1587369430786,2.5306711,-8.752005,0.8403648
1587369430797,2.4947581,-8.269572,0.79726917
1587369430809,2.3355439,-7.6470804,0.04309563
1587369430818,2.4504654,-7.668628,-0.5470751
1587369430829,2.4504654,-7.668628,-0.5470751
1587369430840,2.9496565,-8.483853,-0.4177882
1587369430849,2.9496565,-8.483853,-0.4177882
1587369430860,3.6343982,-9.537302,-0.427365
1587369430871,4.0222588,-9.338584,-0.075417355
1587369430883,4.0222588,-9.338584,-0.075417355
1587369430895,4.5753193,-8.995016,0.7206547
1587369430905,4.381389,-9.80665,1.5239093
1587369430917,4.2760444,-10.34774,2.0290859
1587369430927,4.368221,-10.584765,2.2218192
1587369430939,5.707777,-9.933543,0.7194576
1587369430949,5.707777,-9.933543,0.7194576
1587369430961,5.6227827,-9.19134,0.12928689
1587369430972,5.1762643,-9.119514,0.82001406
1587369430982,5.1762643,-9.119514,0.82001406
1587369430994,5.771223,-9.662998,1.2988545
1587369431004,5.795165,-10.080787,1.3994108
1587369431016,5.1140146,-10.765528,1.6867151
1587369431026,4.4520183,-11.009736,2.2098482
1587369431038,4.7656584,-10.608707,2.420538
1587369431048,4.7656584,-10.608707,2.420538
1587369431060,6.2009826,-11.048044,0.12808979
1587369431068,7.2472486,-11.286267,-0.51834464
1587369431081,7.2472486,-11.286267,-0.51834464
1587369431091,8.821436,-12.040441,-2.5258827
1587369431103,7.8062944,-13.11424,-2.8742392
1587369431113,6.089652,-14.346057,-2.267309
1587369431125,-0.9624691,-16.709133,-1.9656396
1587369431135,-2.5438392,-16.976088,-2.7006595
1587369431148,-2.4911668,-16.82645,-3.2273839
1587369431158,-1.7944542,-16.440983,-3.0478187
1587369431168,-0.1400608,-15.98369,-0.92895025
1587369431180,-0.1400608,-15.98369,-0.92895025
1587369431191,0.5231331,-13.933057,0.16280572
1587369431201,0.80325466,-12.640188,1.2737153
1587369431213,1.0187328,-11.941081,2.3127987
1587369431223,1.411382,-11.954249,3.6128504
1587369431234,2.147599,-12.735956,3.1890767
1587369431245,2.5905263,-14.062344,1.2018893
1587369431258,3.3087866,-14.792575,-0.020350715
1587369431268,3.1639376,-13.103466,0.19871874
1587369431278,3.1639376,-13.103466,0.19871874
1587369431290,2.6719291,-9.821015,0.7146692
1587369431300,2.4169466,-8.395268,-0.51834464
1587369431312,2.3080103,-7.547721,-0.5650316
1587369431322,2.3104045,-6.609194,-0.110133275
1587369431335,2.2278047,-5.5964465,0.8415619
1587369431347,1.3383588,-3.1507695,1.3587095
1587369431357,0.260968,-2.171541,0.9816227
1587369431367,0.260968,-2.171541,0.9816227
1587369431377,-0.49679685,-1.7908629,0.92296475
1587369431389,-0.8738836,-1.5466543,0.62009823
1587369431396,-0.8738836,-1.5466543,0.62009823
1587369431408,-0.6739678,-1.4676456,0.30885202
1587369431419,-0.37469256,-1.4999673,0.023942016
1587369431430,-0.37469256,-1.4999673,0.023942016
1587369431442,-0.1340753,-1.5382746,0.8439561
1587369431453,0.16759412,-1.899799,1.5346833
1587369431464,0.5566519,-2.4756045,2.0578163
1587369431475,0.80325466,-3.1292217,2.7341783
1587369431486,0.80325466,-3.1292217,2.7341783
1587369431497,0.80325466,-3.1292217,2.7341783
1587369431506,1.8351556,-5.1607018,5.007473
1587369431519,4.1060557,-8.7292595,6.0525417
1587369431528,4.1060557,-8.7292595,6.0525417
1587369431539,2.9484594,-14.087482,9.3733
1587369431550,3.7924154,-16.77258,15.003265
1587369431561,6.989872,-18.84955,16.657658
1587369431572,7.493851,-15.823279,9.035717
1587369431582,4.378995,-13.583504,8.905233
1587369431593,1.246182,-10.955867,8.1797905
1587369431604,-0.48602295,-8.214506,6.537368
1587369431613,-1.1216835,-5.3701944,5.185841
1587369431624,-1.8016368,-3.2609026,5.0757074
1587369431635,-2.4588451,-3.526659,5.647922
1587369431645,-1.4425066,-6.9168487,6.706159
1587369431656,0.40701428,-12.079945,6.3242836
1587369431667,1.0654198,-23.25129,6.7767878
1587369431678,1.0654198,-23.25129,6.7767878
1587369431689,7.9930425,-35.235466,1.7621324
1587369431700,6.1686606,-18.889055,-5.011064
1587369431710,6.1686606,-18.889055,-5.011064
1587369431721,-14.918271,10.888829,-9.818622
1587369431733,-17.167624,4.745308,-2.6156654
1587369431743,-11.283873,3.5733461,3.6044707
1587369431755,-0.94810385,-0.5351041,0.32321724
1587369431765,7.8625584,-8.215703,-3.1160536
1587369431778,11.494562,-13.846866,-4.083311
1587369431788,11.365275,-18.624495,3.6619315
1587369431799,8.665813,-12.343307,2.4277205
1587369431808,8.665813,-12.343307,2.4277205
1587369431821,3.5673606,-4.924873,1.851915
1587369431827,3.5673606,-4.924873,1.851915
1587369431839,2.135628,-4.441244,2.859874
1587369431851,2.9616275,-5.547365,2.0853498
1587369431863,2.9616275,-5.547365,2.0853498
1587369431872,5.130774,-8.106767,0.63087213
1587369431884,5.494693,-8.924387,0.6847417
1587369431895,5.770026,-9.367314,-0.029927522
1587369431905,5.4264584,-9.307459,-0.30765492
1587369431917,4.5286326,-9.131485,-0.062249243
1587369431927,3.3973722,-8.760384,-0.020350715
1587369431938,1.6555905,-8.4647,-0.23104046
1587369431949,1.2389994,-8.309077,0.34715924
1587369431962,1.2389994,-8.309077,0.34715924
1587369431972,1.5514427,-8.133103,0.51834464
1587369431982,1.9907787,-8.046912,0.7194576
1587369431994,2.2744915,-8.110358,0.7493851
1587369432004,2.4037786,-8.111555,0.58897364
1587369432016,2.7329812,-7.6770077,-0.2885013
1587369432027,2.8562827,-7.965509,-0.50278234
1587369432037,2.822764,-8.374918,-0.32920274
1587369432050,3.132813,-7.799112,0.5734113
1587369432060,3.132813,-7.799112,0.5734113
1587369432070,3.9312792,-8.372523,1.0354922
1587369432082,4.3766007,-8.668207,0.7146692
1587369432092,4.8506527,-8.833407,0.30885202
1587369432104,5.1463366,-9.029732,0.15801731
1587369432114,5.171476,-9.123106,0.48243165
1587369432126,5.115212,-9.178172,1.2509704
1587369432138,5.471948,-9.419987,1.6723499
1587369432149,6.077681,-9.920375,1.2737153
1587369432159,6.077681,-9.920375,1.2737153
1587369432171,5.2421045,-10.320207,1.2330139
1587369432181,5.481525,-10.362105,0.842759
1587369432193,5.849035,-10.590752,0.30645782
1587369432203,5.306748,-11.135432,0.439336
1587369432216,5.7496753,-11.425131,1.5179238
1587369432226,5.351041,-11.74715,2.3953989
1587369432236,4.0665517,-11.263522,3.1998506
1587369432250,5.21098,-11.535264,0.32680854
1587369432260,5.21098,-11.535264,0.32680854
1587369432272,7.8853035,-12.022484,1.6436194
1587369432282,9.32781,-12.500127,0.08499416
1587369432294,9.202114,-12.113463,-1.0726024
1587369432304,7.953538,-11.361684,-0.439336
1587369432316,6.1626754,-12.764687,-1.5179238
1587369432327,3.2309752,-14.4933,-3.9911342
1587369432337,-1.6998832,-16.879122,-6.543353
1587369432349,-2.5306711,-17.502811,-5.686229
1587369432359,-2.5306711,-17.502811,-5.686229
1587369432371,-1.8722657,-17.822437,-2.0207062
1587369432380,-0.90381116,-16.821661,0.108936176
1587369432392,-0.24061728,-15.478514,1.5586253
1587369432402,-0.0011971008,-13.747506,2.8862102
1587369432414,0.06703765,-12.970588,4.036624
1587369432424,1.1971009,-12.469003,4.9907136
1587369432436,2.1799207,-13.109451,1.7082629
1587369432447,3.0202854,-13.821727,-0.8535329
1587369432457,3.714604,-14.197616,0.32321724
1587369432469,3.5757403,-9.903615,0.2765303
1587369432479,2.9484594,-8.438364,0.22864626
1587369432491,3.072958,-6.9743094,0.688333
1587369432501,2.5151088,-6.479907,-0.36272156
1587369432515,1.8794483,-5.021838,0.23104046
1587369432525,1.0139444,-3.277662,0.7230489
1587369432535,0.58298814,-2.2876596,0.6452374
1587369432545,-0.05865794,-1.5837644,0.60693014
1587369432557,-0.6895301,-1.2246342,0.93852705
1587369432567,-0.78170687,-1.1611878,0.89423436
1587369432579,-0.37110126,-1.8411411,0.36511576
1587369432589,-0.37110126,-1.8411411,0.36511576
1587369432601,-0.47644615,-2.384625,-0.04189853
1587369432611,-0.6440403,-2.4648306,-0.1604115
1587369432623,-0.7386112,-2.6503813,-0.017956512
1587369432633,-0.78290397,-2.7449522,0.2669535
1587369432645,-0.7015011,-3.0621839,0.91219085
1587369432656,-0.48602295,-3.4488475,1.7681179
1587369432666,-0.09816227,-3.8642416,2.7114334
1587369432678,1.6484078,-5.5485625,5.445612
1587369432689,1.6484078,-5.5485625,5.445612
1587369432699,2.9759927,-8.304289,6.4392056
1587369432711,2.9759927,-8.304289,6.4392056
1587369432721,1.9177556,-13.751098,8.608353
1587369432733,1.2689269,-16.555904,13.397953
1587369432743,1.2689269,-16.555904,13.397953
1587369432755,8.631097,-16.07467,13.773843
1587369432766,9.124303,-14.67885,9.508572
1587369432777,7.6710224,-14.105439,9.00579
1587369432787,4.534618,-12.212823,8.738836
1587369432799,-0.18435353,-5.497087,6.649895
1587369432809,-0.18435353,-5.497087,6.649895
1587369432821,-2.0649989,-3.1112652,6.075287
1587369432831,-1.2641385,-5.7664347,6.149507
1587369432844,-1.2641385,-5.7664347,6.149507
1587369432854,-0.79846627,-17.080235,4.8985367
1587369432864,-0.11492168,-23.201012,6.493075
1587369432876,3.1399956,-28.45389,2.195483
1587369432886,7.309498,-33.918655,0.7254431
1587369432903,-12.929886,5.755661,-6.615179
1587369432913,-14.589068,1.5191209,-0.50158525
1587369432923,-8.807071,2.018312,0.5793968
1587369432934,0.37708676,-2.1871033,-1.4736311
1587369432946,7.3645644,-8.798691,-4.074931
1587369432955,9.931149,-14.160506,-3.6140475
1587369432967,10.8948145,-18.219875,-0.41180268
1587369432978,10.740389,-17.381905,1.9632454
1587369432989,10.740389,-17.381905,1.9632454
1587369433000,5.9807158,-7.1754227,0.4261679
1587369433011,3.6523547,-5.5940523,1.0426749
1587369433021,2.3211784,-5.079299,1.7872716
1587369433032,1.9405005,-5.4504004,1.7609353
1587369433042,1.9405005,-5.4504004,1.7609353
1587369433055,3.300407,-7.007828,1.22224
1587369433065,4.325125,-8.121132,0.320823
1587369433076,5.1104236,-8.297106,-0.23463176
1587369433086,5.3701944,-8.403648,-0.18076223
1587369433098,3.8965633,-8.487445,-0.49081135
1587369433108,3.8965633,-8.487445,-0.49081135
1587369433121,2.1787236,-8.048109,-1.1420342
1587369433131,2.1535845,-8.263587,-0.6667852
1587369433141,2.1535845,-8.263587,-0.6667852
