@ HyperIMU -ianovir - 2018
@ Date:Mon Apr 20 09:59:31 GMT+02:00 2020, Sampling Rate:10ms

timestamp,K6DS3TR_Accelerometer.x,K6DS3TR_Accelerometer.y,K6DS3TR_Accelerometer.z
1587369571801,0.0,0.0,0.0
1587369571813,0.0,0.0,0.0
1587369571823,-0.6703765,1.4281414,9.460688
1587369571834,-0.6428431,1.3802572,9.775525
1587369571845,-0.62728083,1.4089876,10.04607
1587369571856,-0.62129533,1.4867992,10.166978
1587369571867,-0.62129533,1.4867992,10.166978
1587369571878,-0.59017074,1.5658079,10.092757
1587369571890,-0.6572084,1.508347,9.7563715
1587369571899,-0.7134721,1.4867992,9.613917
1587369571909,-0.7134721,1.4987702,9.536105
1587369571920,-0.6919243,1.4939818,9.442732
1587369571931,-0.6835446,1.5406688,9.339781
1587369571942,-0.6332663,1.6244658,9.446322
1587369571953,-0.557849,1.6472107,9.531317
1587369571963,-0.50996494,1.5753847,9.595961
1587369571974,-0.4429273,1.4867992,9.582792
1587369571985,-0.35314476,1.4305356,9.637859
1587369571996,-0.2801216,1.401805,9.794679
1587369572006,-0.25258827,1.353921,9.908403
1587369572017,-0.2717419,1.3120226,9.922769
1587369572026,-0.2717419,1.3120226,9.922769
1587369572037,-0.37349546,1.3623008,9.733627
1587369572048,-0.40581718,1.3814543,9.680955
1587369572059,-0.40462008,1.3802572,9.673772
1587369572070,-0.40222588,1.364695,9.653421
1587369572081,-0.4213795,1.376666,9.610326
1587369572092,-0.40701428,1.2497733,9.595961
1587369572103,-0.39145198,1.1647792,9.498995
1587369572114,-0.35553896,1.1264719,9.460688
1587369572125,-0.2801216,1.1264719,9.507375
1587369572133,-0.30047232,1.3503298,9.651027
1587369572144,-0.260968,1.3347675,9.751583
1587369572155,-0.19632454,1.2976574,9.7863
1587369572166,-0.10295067,1.234211,9.838972
1587369572177,-0.092176765,1.2246342,9.872491
1587369572188,-0.12330139,1.2545617,9.868899
1587369572199,-0.08020575,1.2785037,9.847352
1587369572210,-0.03232172,1.2904748,9.8042555
1587369572221,-0.03232172,1.2904748,9.8042555
1587369572232,-0.034715924,1.270124,9.829395
1587369572240,-0.050278235,1.2054806,9.828198
1587369572251,-0.088585466,1.1145009,9.77792
1587369572262,-0.10534488,1.067814,9.674969
1587369572273,-0.12808979,1.0570401,9.54209
1587369572284,-0.14844051,1.1324574,9.498995
1587369572295,-0.17238252,1.2138603,9.507375
1587369572306,-0.1436521,1.2725182,9.520543
1587369572317,-0.051475335,1.3108255,9.603143
1587369572328,-0.076614454,1.2737153,9.615114
1587369572339,-0.11731588,1.234211,9.659407
1587369572347,-0.1436521,1.1851299,9.709685
1587369572358,-0.15562311,1.1049241,9.69532
1587369572369,-0.15322891,1.0307038,9.67018
1587369572380,-0.18555063,1.0247183,9.623494
1587369572391,-0.22026655,1.0785879,9.625888
1587369572403,-0.20350714,1.1420342,9.639056
1587369572414,-0.19512744,1.1504139,9.6845455
1587369572425,-0.1592144,1.1336545,9.682152
1587369572436,-0.1328782,1.1240777,9.618706
1587369572447,-0.18076223,1.151611,9.539697
1587369572456,-0.18076223,1.151611,9.539697
1587369572467,-0.20949265,1.1779473,9.509769
1587369572477,-0.16759412,1.3132197,9.706094
1587369572488,-0.16759412,1.3132197,9.706094
1587369572499,-0.18195933,1.2306197,9.715671
1587369572510,-0.19991584,1.2066777,9.725247
1587369572521,-0.19512744,1.186327,9.7563715
1587369572532,-0.17238252,1.1587936,9.762358
1587369572543,-0.16998832,1.0965444,9.719262
1587369572554,-0.16639702,1.1168951,9.631873
1587369572563,-0.16519992,1.1659763,9.518148
1587369572574,-0.18195933,1.2330139,9.481039
1587369572585,-0.19632454,1.2856863,9.448717
1587369572595,-0.18435353,1.3120226,9.448717
1587369572606,-0.16400282,1.3575124,9.581595
1587369572617,-0.11971009,1.2617443,9.816227
1587369572628,-0.06823475,1.1707647,9.866506
1587369572639,-0.04070143,1.1324574,9.865308
1587369572649,-0.075417355,1.1432313,9.859323
1587369572660,-0.14963761,1.1719618,9.862914
1587369572669,-0.16400282,1.1815386,9.821015
1587369572680,-0.12689269,1.1671734,9.80665
1587369572690,-0.12090719,1.1791444,9.7240505
1587369572701,-0.14963761,1.1791444,9.680955
1587369572712,-0.14844051,1.1264719,9.600749
1587369572723,-0.12330139,1.0965444,9.528923
1587369572734,-0.107739076,1.1300632,9.485827
1587369572745,-0.1388637,1.2042835,9.481039
1587369572755,-0.16519992,1.271321,9.489418
1587369572766,-0.19153613,1.2904748,9.564836
1587369572775,-0.20590134,1.2545617,9.598354
1587369572788,-0.18794483,1.2258313,9.627085
1587369572797,-0.21906945,1.1659763,9.504981
1587369572808,-0.25378537,1.1755531,9.43076
1587369572818,-0.2741361,1.1899183,9.4295635
1587369572829,-0.2896984,1.2162545,9.497798
1587369572840,-0.32441434,1.1827357,9.557653
1587369572851,-0.34596214,1.1049241,9.594764
1587369572862,-0.33518824,1.0354922,9.634268
1587369572873,-0.31124622,1.055843,9.683349
1587369572881,-0.3184288,1.0737995,9.7563715
1587369572892,-0.34117374,1.1264719,9.829395
1587369572903,-0.33638534,1.1731589,9.842564
1587369572914,-0.23822308,1.151611,9.879673
1587369572924,-0.22026655,1.1695676,9.791088
1587369572935,-0.21906945,1.1947067,9.725247
1587369572946,-0.2621651,1.2545617,9.654618
1587369572957,-0.2705448,1.3072342,9.587581
1587369572967,-0.23104046,1.2725182,9.600749
1587369572978,-0.19273324,1.2354081,9.643845
1587369572988,-0.15442601,1.2210429,9.707291
1587369572999,-0.12808979,1.234211,9.725247
1587369573009,-0.16400282,1.2509704,9.671378
1587369573020,-0.22864626,1.2665327,9.600749
1587369573031,-0.29807812,1.2425907,9.587581
1587369573042,-0.31603462,1.2066777,9.624691
1587369573053,-0.25857377,1.163582,9.7240505
1587369573064,-0.18555063,1.1121067,9.776723
1587369573075,-0.12569559,1.0941502,9.864111
1587369573085,-0.073023155,1.127669,9.8916445
1587369573098,-0.11731588,1.1420342,9.697714
1587369573107,-0.16400282,1.1240777,9.615114
1587369573119,-0.17836803,1.1492168,9.598354
1587369573127,-0.19632454,1.1384429,9.551667
1587369573138,-0.15203181,1.1204864,9.616311
1587369573149,-0.11731588,1.1348516,9.691729
1587369573160,-0.10055647,1.1456255,9.731233
1587369573170,-0.10654198,1.1492168,9.738416
1587369573181,-0.12569559,1.1432313,9.691729
1587369573192,-0.16519992,1.1133038,9.624691
1587369573201,-0.20231004,1.1073183,9.544485
1587369573212,-0.20709845,1.0965444,9.466674
1587369573222,-0.21068975,1.115698,9.421184
1587369573233,-0.22505496,1.1348516,9.437943
1587369573244,-0.24061728,1.1420342,9.512163
1587369573255,-0.260968,1.1192893,9.615114
1587369573266,-0.25258827,1.0726024,9.67018
1587369573276,-0.25378537,1.0426749,9.683349
1587369573287,-0.2753332,1.0474633,9.634268
1587369573298,-0.29688102,1.0737995,9.560047
1587369573307,-0.3172317,1.0845734,9.488221
1587369573318,-0.33279404,1.1001357,9.44752
1587369573329,-0.35194764,1.1001357,9.465476
1587369573339,-0.34596214,1.0989386,9.589975
1587369573350,-0.32800564,1.0726024,9.710882
1587369573361,-0.22266077,1.1061212,9.950302
1587369573372,-0.20470424,1.0989386,9.91798
1587369573383,-0.24061728,1.0869676,9.7719345
1587369573394,-0.2861071,1.091756,9.586384
1587369573405,-0.30765492,1.091756,9.408015
1587369573413,-0.35314476,1.1408371,9.372103
1587369573424,-0.31483752,1.1073183,9.331401
1587369573435,-0.24660277,1.0642227,9.391256
1587369573446,-0.17717093,1.0606314,9.494206
1587369573457,-0.18914193,1.0462662,9.556456
1587369573467,-0.2861071,1.0199299,9.539697
1587369573478,-0.30166942,0.9947908,9.520543
1587369573489,-0.29448682,0.9804256,9.491813
1587369573500,-0.32321724,1.0067618,9.464279
1587369573511,-0.33399114,1.0414777,9.460688
1587369573520,-0.31124622,1.0714053,9.44752
1587369573531,-0.33279404,1.091756,9.467871
1587369573542,-0.30885202,1.1133038,9.425972
1587369573553,-0.2801216,1.1432313,9.398438
1587369573563,-0.34596214,1.1324574,9.398438
1587369573574,-0.37469256,1.1145009,9.419987
1587369573585,-0.320823,1.1264719,9.601946
1587369573596,-0.33518824,1.1731589,9.69532
1587369573607,-0.35434186,1.246182,9.673772
1587369573617,-0.4237737,1.3826514,9.743204
1587369573628,-0.3890578,1.3718776,9.691729
1587369573639,-0.3878607,1.3299791,9.600749
1587369573650,-0.4333505,1.3060371,9.531317
1587369573661,-0.49919105,1.2844892,9.514558
1587369573671,-0.5351041,1.2605472,9.588778
1587369573682,-0.545878,1.2210429,9.700109
1587369573693,-0.5805939,1.1707647,9.8198185
1587369573704,-0.5781997,1.1695676,9.969456
1587369573715,-0.5494693,1.1492168,10.104729
1587369573726,-0.47884035,1.1216835,10.223241
1587369573735,-0.47644615,1.0714053,10.275913
1587369573745,-0.47764325,1.0570401,10.281899
1587369573756,-0.4357447,1.1085154,10.335769
1587369573767,-0.33518824,1.2330139,10.291476
1587369573778,-0.29448682,1.3036429,10.242394
1587369573789,-0.31124622,1.2749124,10.111911
1587369573800,-0.30286652,1.1611878,9.883265
1587369573810,-0.2825158,1.1432313,9.800665
1587369573821,-0.21667525,1.1839328,9.785102
1587369573832,-0.22744916,1.2006922,9.733627
1587369573841,-0.260968,1.2042835,9.676167
1587369573852,-0.20829555,1.1180922,9.564836
1587369573862,-0.18195933,1.0714053,9.518148
1587369573873,-0.21547815,1.0809821,9.451111
1587369573884,-0.21787235,1.0953473,9.449914
1587369573895,-0.16998832,1.0857705,9.445126
1587369573906,-0.108936176,1.1073183,9.441534
1587369573916,-0.039504327,1.1480197,9.466674
1587369573927,0.089782566,1.2808979,9.585187
1587369573938,0.1364695,1.2880806,9.605537
1587369573947,0.14963761,1.292869,9.634268
1587369573958,0.19273324,1.2162545,9.662998
1587369573968,0.19632454,1.2880806,9.625888
1587369573979,0.12090719,1.3563153,9.61272
1587369573990,0.130484,1.400608,9.636662
1587369574000,0.18195933,1.3814543,9.759963
1587369574011,0.22505496,1.460463,9.7803135
1587369574022,0.21787235,1.4460979,9.762358
1587369574033,0.24540567,1.4173675,9.734824
1587369574044,0.21906945,1.3670892,9.689334
1587369574052,0.12928689,1.2940661,9.69532
1587369574063,0.1328782,1.1994951,9.679757
1587369574074,0.18794483,1.151611,9.700109
1587369574085,0.2873042,1.1791444,9.680955
1587369574095,0.415394,1.2916719,9.661801
1587369574106,0.49081135,1.4317327,9.607931
1587369574117,0.61411273,1.5466543,9.205706
1587369574128,0.6955156,1.555034,9.119514
1587369574139,0.80804306,1.4975731,9.084799
1587369574149,0.94690675,1.5059528,9.165004
1587369574160,1.0007763,1.5873557,9.296685
1587369574171,1.0606314,1.7142484,9.440337
1587369574182,1.0821792,1.8579005,9.574412
1587369574192,1.1180922,1.9812019,9.618706
1587369574203,1.1755531,2.0709844,9.624691
1587369574214,1.1959038,2.098518,9.503783
1587369574225,1.1192893,2.0602105,9.235633
1587369574235,0.9636662,1.9859903,8.905233
1587369574246,0.6847417,1.9524715,8.593987
1587369574257,0.6907272,2.0458453,8.90643
1587369574266,0.6907272,2.0458453,8.90643
1587369574277,0.50757074,2.0937295,9.121908
1587369574288,0.34117374,2.0530279,9.112331
1587369574299,0.16998832,2.0231004,9.089587
1587369574309,-0.02873042,1.9393034,9.054871
1587369574320,-0.15442601,1.8064252,8.937555
1587369574331,-0.22146365,1.6364368,8.823831
1587369574342,-0.272939,1.5107412,8.652645
1587369574353,-0.25737667,1.4640543,8.537724
1587369574364,-0.19871874,1.5298948,8.446744
1587369574373,-0.10295067,1.6184803,8.520964
1587369574383,0.015562311,1.79206,8.615535
1587369574394,0.1592144,1.9608512,8.77834
1587369574405,0.30166942,2.1176715,9.115923
1587369574416,0.39504328,2.2996306,9.267955
1587369574427,0.50517654,2.2254105,9.5013895
1587369574438,0.50637364,2.1260512,9.406818
1587369574448,0.5470751,2.0458453,9.329007
1587369574459,0.5518635,1.9895816,8.880095
1587369574470,0.31124622,1.9596541,8.072051
1587369574479,0.23463176,2.0242975,7.9583263
1587369574490,0.260968,2.0913353,8.003817
1587369574501,0.37708676,2.136825,8.158242
1587369574511,0.5793968,2.1667526,8.413225
1587369574522,0.7505822,2.2637177,8.674192
1587369574533,0.7697359,2.4372973,8.827422
1587369574544,0.7625532,2.5905263,8.863335
1587369574555,0.79248077,2.6791117,8.822633
1587369574566,0.80684596,2.7246015,8.810662
1587369574577,0.8415619,2.705448,9.002198
1587369574586,0.8415619,2.705448,9.002198
1587369574597,0.7278373,2.7868507,9.001001
1587369574608,0.260968,2.622848,9.25359
1587369574619,0.10055647,2.292448,9.743204
1587369574630,0.06464344,1.8710686,10.171766
1587369574641,0.06823475,1.6232687,10.496181
1587369574653,0.01436521,1.555034,10.667366
1587369574664,-0.017956512,1.6687586,10.793061
1587369574675,-0.020350715,1.899799,10.86369
1587369574686,-0.051475335,2.1499932,10.935516
1587369574695,-0.4345476,2.3139958,11.299435
1587369574706,-0.581791,2.123657,11.787852
1587369574716,-0.533907,1.8124107,12.425907
1587369574727,-0.24779987,1.2306197,13.28782
1587369574738,-0.05267244,1.1168951,13.365631
1587369574749,0.1448492,0.8319851,13.512875
1587369574760,0.40821138,0.34835634,13.721169
1587369574794,0.03232172,-0.25258827,12.254722
1587369574799,-0.075417355,-0.15083471,11.613075
1587369574806,-0.075417355,-0.15083471,11.613075
1587369574823,0.31004912,0.61890113,11.8261595
1587369574830,0.48722005,0.8415619,12.157756
1587369574841,0.5315128,0.8571242,12.187684
1587369574851,0.439336,0.7457938,11.954249
1587369574862,0.19632454,0.6500258,11.603498
1587369574873,-0.061052144,0.5279215,11.080365
1587369574884,-0.22984336,0.30286652,10.415975
1587369574895,-0.29807812,0.05746084,9.7719345
1587369574906,-0.15682021,-0.035913024,9.374496
1587369574918,0.073023155,0.2885013,9.657013
1587369574925,0.073023155,0.2885013,9.657013
1587369574936,0.020350715,0.23822308,9.8916445
1587369574947,0.033518825,0.073023155,10.212467
1587369574957,0.16280572,-0.4333505,11.086351
1587369574968,0.23582886,-0.7733272,11.475409
1587369574979,0.34117374,-1.0103531,11.71842
1587369574990,0.35793316,-1.0654198,11.810597
1587369575001,0.34835634,-0.9648633,11.7627125
1587369575011,0.37948096,-0.8331822,11.5616
1587369575022,0.36870706,-0.6919243,11.204864
1587369575031,0.2645593,-0.5279215,10.696096
1587369575042,0.1340753,-0.36152446,10.125079
1587369575053,-0.022744916,-0.25258827,9.57561
1587369575064,-0.10654198,-0.3172317,9.103952
1587369575074,-0.16759412,-0.39504328,8.586804
1587369575085,-0.25498247,-0.439336,8.055291
1587369575096,-0.31364042,-0.4417302,7.61835
1587369575107,-0.39743748,-0.28491,6.92044
1587369575118,-0.4309563,-0.16998832,6.6642604
1587369575128,-0.29927522,-0.046686932,6.5936313
1587369575139,-0.21547815,-0.008379706,6.621165
1587369575150,-0.23343466,0.05267244,6.551733
1587369575161,-0.32561144,0.1592144,6.4990606
1587369575172,-0.37588966,0.30047232,6.494272
1587369575183,-0.41180268,0.46327803,6.4906807
1587369575194,-0.45848963,0.62847793,6.495469
1587369575204,-0.45130703,0.7793127,6.6654577
1587369575215,-0.40342298,0.9720459,6.963536
1587369575226,-0.37828386,1.234211,7.3897038
1587369575238,-0.5482722,1.8351556,7.654263
1587369575245,-0.5482722,1.8351556,7.654263
1587369575256,-0.7038953,2.1511903,7.6770077
1587369575267,-1.1145009,2.5953147,7.466318
1587369575278,-1.1540052,2.5725696,7.633912
1587369575289,-1.0977415,2.432509,7.9667063
1587369575299,-1.0965444,2.208651,8.318654
1587369575310,-1.0378864,2.0374656,8.588001
1587369575321,-0.89543146,2.0087352,8.856153
1587369575332,-0.770933,2.1080947,9.131485
1587369575343,-0.51475334,2.3834279,9.448717
1587369575351,-0.49919105,3.1675289,9.847352
1587369575362,-0.5590461,3.3566709,10.097546
1587369575373,-0.6955156,3.2597055,10.454282
1587369575384,-0.8822633,2.9616275,10.796653
1587369575395,-1.0139444,2.4971523,11.311406
1587369575406,-0.9816227,1.9045875,11.865664
1587369575417,-1.0067618,1.5861586,12.248735
1587369575428,-0.39743748,1.0295067,12.974179
1587369575438,0.31244332,0.6392518,13.43626
1587369575449,1.1348516,0.19153613,13.930662
1587369575458,1.9919758,-0.41180268,14.864401
1587369575469,2.6431987,-0.94451255,15.497667
1587369575480,2.8407204,-0.9983821,15.674838
1587369575490,2.327164,-0.5279215,15.320497
1587369575501,1.2485762,0.22744916,14.488512
1587369575512,0.30526072,0.7290344,13.639767
1587369575523,-0.51116204,0.93014735,12.642582
1587369575533,-1.0283096,0.7637503,11.675324
1587369575544,-1.186327,0.33399114,10.82658
1587369575555,-1.0187328,-0.29568392,10.143036
1587369575564,-0.62728083,-0.94930094,9.749189
1587369575575,-0.10295067,-1.3730747,9.564836
1587369575585,0.7637503,-1.2030864,9.386468
1587369575596,0.89902276,-0.5650316,9.479841
1587369575607,0.89303726,0.94451255,9.97185
1587369575618,0.94211835,1.4915876,10.181343
1587369575629,1.0067618,1.8088194,10.261548
1587369575640,1.0067618,1.8962077,10.150218
1587369575650,0.93732995,1.7681179,9.842564
1587369575661,0.80924016,1.5310919,9.437943
1587369575670,0.6847417,1.2473791,8.9363575
1587369575681,0.557849,1.0414777,8.39886
1587369575691,0.37588966,0.92895025,7.848193
1587369575703,0.142455,0.8858546,7.3083005
1587369575713,-0.009576807,0.8882488,6.777985
1587369575724,-0.14724341,0.90979666,6.349423
1587369575735,-0.22146365,0.9600749,6.1279593
1587369575745,-0.29328972,1.079785,5.9567738
1587369575756,-0.33159694,1.1839328,5.7664347
1587369575767,-0.18674773,1.365892,5.7185507
1587369575776,-0.18674773,1.365892,5.7185507
1587369575787,-0.22266077,1.578976,6.1159883
1587369575798,-0.34835634,1.8004397,6.4643445
1587369575809,-0.47524905,1.9165585,6.5708866
1587369575820,-0.7086837,2.1188686,6.599617
1587369575831,-0.8810662,2.2756886,6.588843
1587369575842,-0.92176765,2.348712,6.669049
1587369575853,-0.9528923,2.267309,6.8486137
1587369575863,-0.92057055,2.0961237,7.2424603
1587369575874,-0.80445176,1.8375498,7.7931266
1587369575883,-0.7086837,1.6196774,8.287529
1587369575894,-0.6560113,1.4820108,8.747216
1587369575905,-0.6548142,1.4389153,8.972271
1587369575916,-0.7781156,1.6184803,9.106346
1587369575926,-0.866701,1.8650831,9.172187
1587369575937,-0.9780314,2.4839842,9.551667
1587369575948,-1.0115502,2.6731262,9.734824
1587369575959,-1.043872,2.7964275,9.788693
1587369575970,-0.91937345,2.718616,9.745598
1587369575980,-0.78649527,2.4875755,9.749189
1587369575991,-0.6584055,2.208651,10.001778
1587369576002,-0.45489833,1.9213469,10.45069
1587369576013,-0.30166942,1.7441759,10.939108
1587369576024,-0.2873042,2.055422,11.938686
1587369576035,-0.47165772,2.5115175,12.382812
1587369576046,-0.6607997,2.8431146,12.943054
1587369576057,-1.0043676,3.1148565,13.254301
1587369576067,-1.2174516,2.6659436,13.06037
1587369576078,-1.1887212,2.0159178,12.357672
1587369576089,-1.1228806,1.4556746,11.659762
1587369576098,-1.1336545,1.1683705,10.7751045
1587369576109,-1.3000516,1.2916719,10.070012
1587369576119,-1.5394717,1.7513585,9.610326
1587369576130,-1.8267759,2.3558946,9.350554
1587369576141,-2.0362685,2.908955,9.610326
1587369576152,-2.2828712,3.241749,10.225636
1587369576163,-2.4779987,2.9747956,11.077971
1587369576173,-2.5725696,2.3989902,11.881226
1587369576184,-2.7042508,1.6316484,12.36246
1587369576195,-2.5689783,0.664391,12.441469
1587369576204,-2.267309,-0.33997664,12.384008
1587369576214,-1.8710686,-1.2174516,12.254722
1587369576225,-1.4568717,-1.8722657,12.063186
1587369576236,-1.1133038,-2.2134395,11.741165
1587369576247,-0.50158525,-1.4891934,10.445902
1587369576258,-0.2825158,-0.80564886,10.402806
1587369576269,-0.35314476,-0.20111294,10.201694
1587369576280,-0.46686932,0.094570965,9.88925
1587369576291,-0.5327099,0.19033903,9.627085
1587369576302,-0.557849,0.12928689,9.379285
1587369576311,-0.5482722,-0.020350715,9.123106
1587369576322,-0.44651863,-0.18076223,8.846576
1587369576332,-0.35673606,-0.31483752,8.42759
1587369576343,-0.32561144,-0.31483752,7.890092
1587369576354,-0.35075054,-0.21068975,7.2304893
1587369576365,-0.37948096,-0.009576807,6.564901
1587369576375,-0.35553896,0.32441434,6.172252
1587369576386,-0.3890578,0.7589619,6.1243677
1587369576397,-0.581791,1.5251064,6.9240313
1587369576408,-0.6428431,1.6112977,7.5094137
1587369576417,-0.6428431,1.6112977,7.5094137
1587369576427,-0.39624038,1.377863,8.7292595
1587369576438,-0.25737667,1.1432313,9.293094
1587369576449,-0.092176765,0.8367735,9.617508
1587369576460,-0.03232172,0.6500258,9.483433
1587369576471,-0.10654198,0.8726865,9.168595
1587369576481,-0.20590134,1.115698,8.817844
1587369576492,-0.25857377,1.2509704,8.701726
1587369576503,-0.415394,1.4808137,8.532935
1587369576514,-0.7206547,1.7274165,8.384495
1587369576523,-0.9792285,1.8890251,8.1881695
1587369576534,-1.1659763,1.8794483,7.917625
1587369576544,-1.2042835,1.7441759,7.741651
1587369576555,-1.0941502,1.6220716,7.740454
1587369576566,-0.8511387,1.5143325,7.848193
1587369576577,-0.33518824,1.6819267,8.37372
1587369576588,-0.09696517,1.8543092,8.84059
1587369576599,0.12330139,2.1655555,9.235633
1587369576610,0.12808979,2.5330653,9.654618
1587369576621,0.089782566,2.802413,10.097546
1587369576629,0.016759412,2.967613,10.4171715
1587369576640,-0.12808979,3.0430303,10.572795
1587369576651,-0.2908955,3.0262709,10.635044
1587369576662,-0.50637364,2.930503,10.583569
1587369576673,-0.7326257,2.695871,10.477027
1587369576683,-0.6667852,1.8471266,10.722432
1587369576694,-0.37948096,1.3934253,10.928333
1587369576705,-0.0035913025,1.0163386,11.015722
1587369576716,0.6584055,0.78410107,11.251551
1587369576727,2.2266076,1.2856863,11.7543335
1587369576736,2.2266076,1.2856863,11.7543335
1587369576747,2.822764,1.9321208,12.313379
1587369576757,2.5785553,3.0921116,13.067553
1587369576768,1.6879122,3.513491,13.150153
1587369576779,0.9792285,3.4500446,12.966996
1587369576790,0.5710171,2.814384,12.703634
1587369576801,0.33758244,1.6903064,12.053609
1587369576811,0.32321724,0.44771573,11.444284
1587369576822,0.36750996,-0.63206923,10.709264
1587369576833,0.5650316,-1.6041151,10.092757
1587369576842,0.8643068,-2.3391352,9.911995
1587369576852,1.1073183,-2.7665,10.128671
1587369576863,1.3790601,-2.8203697,10.483012
1587369576874,1.5765818,-2.5234885,10.842142
1587369576885,1.9512744,-1.9847932,11.341333
1587369576896,2.1452048,-1.2354081,11.63582
1587369576906,2.0685902,0.08379706,10.890026
1587369576917,1.6484078,1.1312603,9.524135
1587369576928,1.2389994,1.6160861,8.961497
1587369576939,0.8475474,2.007538,8.60117
1587369576948,0.8475474,2.007538,8.60117
1587369576976,0.034715924,2.4001873,7.9906483
1587369576988,-0.10175357,2.315193,7.835025
1587369577000,0.06344634,1.8064252,7.6650367
1587369577003,0.06344634,1.8064252,7.6650367
1587369577010,0.10175357,1.5143325,7.4806833
1587369577019,0.08738836,1.282095,7.189788
1587369577051,-0.18914193,1.0989386,6.364985
1587369577056,-0.18914193,1.0989386,6.364985
1587369577063,-0.33758244,1.1348516,6.2728086
1587369577079,-0.5267244,1.3802572,6.421249
1587369577088,-0.5470751,1.6543933,6.7923503
1587369577099,-0.545878,1.9045875,7.1514807
1587369577110,-0.59495914,2.0470424,7.3466077
1587369577121,-0.81881696,2.0805612,7.586028
1587369577132,-0.94451255,1.8363527,7.651869
1587369577145,-1.0737995,1.5705963,7.7308774
1587369577153,-1.1492168,1.2665327,7.7332716
1587369577164,-1.1671734,1.0019734,7.8146744
1587369577175,-1.1851299,0.9696517,7.7368627
1587369577184,-1.1528081,1.1360487,7.6590514
1587369577194,-1.033098,1.567005,7.8637557
1587369577205,-0.89782566,2.1643584,8.327033
1587369577216,-0.8523358,2.7401638,8.911219
1587369577227,-0.91817635,3.2429461,9.840169
1587369577238,-1.0163386,3.1902738,10.164583
1587369577249,-0.973243,2.895787,10.412383
1587369577260,-0.8762778,2.5713725,10.739192
1587369577270,-0.7577648,2.3403323,11.162966
1587369577281,-0.6428431,2.2517467,11.506534
1587369577290,-0.5243302,2.3702598,11.914744
1587369577301,-0.24181437,2.4827871,12.768278
1587369577312,0.095768064,2.468422,13.612234
1587369577323,0.2741361,2.4600422,14.121001
1587369577334,0.31364042,2.4157495,14.269443
1587369577345,0.2813187,2.3511062,13.996503
1587369577355,0.20111294,2.3870192,12.731168
1587369577366,-0.0023942017,2.7509377,12.156559
1587369577377,-0.9528923,3.681085,12.105083
1587369577388,-1.2485762,3.4404678,12.715605
1587369577397,-1.1563994,2.5187001,13.472173
1587369577408,-1.079785,1.484405,13.925874
1587369577418,-0.82599956,0.38067806,13.874399
1587369577429,-0.40701428,-0.7158663,13.499706
1587369577440,0.01436521,-1.5610195,12.956223
1587369577451,0.36750996,-1.9955671,12.37084
1587369577461,0.5327099,-1.9165585,11.74715
1587369577472,0.5530606,-1.3754689,11.081563
1587369577483,0.36272156,-0.5674258,10.426748
1587369577494,0.17836803,0.23463176,10.056845
1587369577503,-0.045489833,1.0522517,9.859323
1587369577514,-0.29209262,1.6567876,9.672575
1587369577525,-0.40342298,1.946486,9.551667
1587369577535,-0.4357447,1.899799,9.55047
1587369577547,-0.45848963,1.4760253,9.578004
1587369577557,-0.2873042,0.24660277,9.416395
1587369577568,-0.19871874,-0.4333505,8.412027
1587369577579,-0.12689269,-0.60094464,7.6614456
1587369577590,-0.09816227,-0.50876784,6.8569937
1587369577600,-0.08379706,-0.18555063,6.1866174
1587369577611,-0.06943185,0.29328972,5.8562174
1587369577622,-0.075417355,0.7781156,5.732916
1587369577634,-0.08020575,1.1707647,5.6910176
1587369577643,-0.12090719,1.4748282,5.7640405
1587369577654,-0.12090719,1.6663644,5.839458
1587369577664,-0.092176765,1.7357962,5.81791
1587369577675,-0.08379706,1.697489,5.6790466
1587369577686,-0.108936176,1.6280571,5.4863133
1587369577697,-0.1400608,1.6017209,5.3498435
1587369577708,-0.10654198,1.4389153,5.130774
1587369577716,-0.10654198,1.4389153,5.130774
1587369577727,-0.022744916,1.389834,5.5246205
1587369577738,-0.12808979,1.4784195,5.8921304
1587369577749,-0.24181437,1.543063,6.3242836
1587369577759,-0.34835634,1.5131354,6.6893997
1587369577770,-0.33039984,1.400608,6.941988
1587369577781,-0.34117374,1.3443443,7.0341644
1587369577792,-0.48362875,1.4101849,7.315483
1587369577803,-0.46926352,1.5227122,7.514202
1587369577815,-0.4309563,1.6496049,7.597999
1587369577822,-0.36870706,1.839944,7.563283
1587369577833,-0.49200845,2.1679497,7.7093296
1587369577843,-0.7386112,2.5953147,8.51019
1587369577855,-1.021127,2.9508536,9.683349
1587369577868,-1.2162545,2.5677812,11.880029
1587369577881,-1.2569559,2.0087352,12.601881
1587369577891,-1.186327,1.3132197,13.336901
1587369577901,-0.9552865,0.44891283,14.228741
1587369577914,-0.6943185,-0.33279404,14.990097
1587369577925,-0.2813187,-0.9780314,15.458163
1587369577935,0.39025488,-1.3347675,15.877149
1587369577948,0.9900024,-1.0342951,16.369158
1587369577958,1.1839328,0.973243,16.739061
1587369577968,0.866701,2.1918917,16.672024
1587369577980,0.2801216,3.21661,16.16924
1587369577990,-0.37469256,3.7002387,15.33965
1587369578003,-0.8798691,3.515885,13.415909
1587369578013,-1.0546459,1.5011644,12.569559
1587369578023,-0.89303726,0.33039984,12.089521
1587369578035,-0.6871359,-0.5602432,11.656171
1587369578043,-0.48362875,-1.1599907,11.274296
1587369578055,-0.3878607,-1.4736311,10.919954
1587369578068,-0.30526072,-1.3587095,10.424355
1587369578078,-0.2765303,-1.0594343,10.198102
1587369578088,-0.22146365,-0.6488287,10.023325
1587369578100,-0.16280572,-0.19273324,9.80665
1587369578110,-0.11611878,0.23582886,9.662998
1587369578122,-0.08499416,0.61650693,9.526528
1587369578133,-0.05865794,0.94690675,9.362526
1587369578143,-0.035913024,1.1013328,8.991425
1587369578155,-0.07182605,1.0809821,8.559271
1587369578165,-0.23582886,0.9684546,8.153454
1587369578177,-0.44532153,0.82001406,7.6973586
1587369578187,-0.5422867,0.6392518,7.382521
1587369578200,-0.5805939,0.51834464,7.321469
1587369578210,-0.5614403,0.5554548,7.3298483
1587369578221,-0.45010993,0.5363012,7.299921
1587369578231,-0.08140286,0.81881696,7.249643
1587369578243,-0.019153614,1.1240777,7.062895
1587369578253,0.0047884034,1.4341269,6.775591
1587369578265,0.009576807,1.6400281,6.4966664
1587369578276,0.020350715,1.7286136,6.194997
1587369578287,0.009576807,1.7357962,5.995081
1587369578297,-0.073023155,1.7238252,5.957971
1587369578309,-0.4345476,1.816002,6.4308257
1587369578319,-0.5315128,1.8183962,6.853402
1587369578331,-0.5530606,1.7836803,7.2328835
1587369578340,-0.545878,1.7609353,7.5549035
1587369578353,-0.62249243,1.6328455,7.7464395
1587369578363,-0.7445967,1.4089876,7.7847466
1587369578374,-0.8535329,1.2114661,7.9307933
1587369578391,-1.1168951,1.283292,8.403648
1587369578399,-1.2186487,1.388637,8.850166
1587369578409,-1.34195,1.5035586,9.315839
1587369578420,-1.4449008,1.5646108,9.812635
1587369578431,-1.5227122,1.6328455,10.177752
1587369578441,-1.6316484,1.685518,10.511743
1587369578452,-1.721431,1.5478514,10.837354
1587369578462,-1.5897499,1.483208,11.11987
1587369578474,-1.353921,1.435324,11.631032
1587369578482,-1.1324574,1.3718776,12.290634
1587369578494,-0.94570965,1.3563153,13.239936
1587369578506,-0.7218518,1.412579,14.279019
1587369578517,-0.5805939,1.401805,14.790181
1587369578528,-0.48602295,1.3910311,14.767436
1587369578537,-0.7457938,1.5610195,13.954604
1587369578549,-1.4161704,1.6915035,11.845313
1587369578562,-1.7441759,1.7537527,10.930728
1587369578572,-2.055422,1.7729063,10.356119
1587369578582,-2.2373815,1.7118542,10.45907
1587369578594,-2.19668,1.4460979,11.124659
1587369578604,-2.112883,1.0402806,11.789049
1587369578616,-2.1045034,0.6548142,12.13142
1587369578627,-2.123657,0.2645593,12.145785
1587369578637,-2.112883,-0.055066638,11.951855
1587369578649,-1.8842367,-0.47764325,10.9822035
1587369578659,-1.6400281,-0.51475334,10.399215
1587369578671,-1.4532804,-0.34596214,9.801862
1587369578680,-1.1935096,0.36511576,9.035717
1587369578692,-1.0618285,0.8499416,9.0476885
1587369578699,-0.9540894,1.2270284,9.344569
1587369578715,-0.8523358,1.4544775,9.688137
1587369578726,-0.79607207,1.532289,10.016143
1587369578735,-0.7661445,1.4257472,10.224439
1587369578744,-0.7589619,1.1947067,10.205285
1587369578755,-0.7589619,0.93373865,9.958682
1587369578768,-0.8882488,0.62009823,9.506178
1587369578778,-1.115698,0.130484,8.261193
1587369578790,-1.2174516,0.0023942017,7.6171527
1587369578802,-1.246182,-0.05746084,7.1167645
1587369578810,-1.3084313,-0.02633622,6.6510925
1587369578822,-1.3599066,0.08499416,6.3745623
1587369578835,-1.3874398,0.272939,6.2823853
1587369578845,-1.3910311,0.41180268,6.271611
1587369578855,-1.2940661,0.47884035,6.3709707
1587369578869,-1.0402806,0.5363012,6.4284315
1587369578879,-0.9588778,0.60693014,6.4392056
1587369578889,-1.0594343,0.7529764,6.3470287
1587369578899,-1.1935096,1.2737153,6.2967505
1587369578911,-1.3359646,1.4652514,6.194997
1587369578919,-1.4903905,1.5478514,6.0824695
1587369578931,-1.6005238,1.6484078,6.172252
1587369578944,-1.6783354,1.7764976,6.367379
1587369578954,-1.7429788,1.8543092,6.621165
1587369578963,-1.7669208,1.9644425,7.0820484
1587369578976,-1.6915035,2.112883,7.6853876
1587369578990,-1.5167267,2.3092074,8.9124155
1587369579000,-1.483208,2.3068132,9.503783
1587369579009,-1.435324,2.2984335,10.0664215
1587369579019,-1.5095441,2.2960393,10.638636
1587369579031,-1.5394717,2.1643584,11.013328
1587369579042,-1.5023615,2.0039468,11.382035
1587369579053,-1.3850456,1.8854338,11.839328
1587369579063,-1.328782,1.7190368,12.203246
1587369579075,-1.3623008,1.5011644,12.223597
1587369579085,-1.5035586,1.2437878,11.968615
1587369579098,-1.6304513,0.9947908,11.736377
1587369579108,-1.2773066,0.17238252,11.162966
1587369579118,-0.61171854,-0.7781156,11.286267
1587369579130,-0.10295067,-0.8702923,11.874043
1587369579138,0.22385786,-0.39504328,12.441469
1587369579150,0.40462008,0.56982,13.097481
1587369579163,0.33997664,1.8938135,13.763068
1587369579173,0.021547815,2.885013,14.2622595
1587369579183,-0.34955344,3.1352072,14.522031
1587369579195,-0.5662287,2.4779987,14.385561
1587369579205,-0.7146692,1.2988545,13.807362
1587369579222,-0.34117374,-1.2641385,12.440272
1587369579232,0.19871874,-2.2505496,11.790246
1587369579242,0.82240826,-2.8742392,11.389217
1587369579254,1.2174516,-3.0190883,10.87207
1587369579264,1.8830396,-2.791639,10.737994
1587369579276,2.3068132,-1.899799,10.764331
1587369579287,2.5773582,-0.8415619,10.590752
1587369579297,2.5498247,0.23822308,10.295067
1587369579309,2.0578163,1.8938135,9.186552
1587369579319,1.5861586,2.3989902,8.772355
1587369579336,1.0726024,2.669535,8.392874
1587369579347,0.039504327,2.4552538,7.8853035
1587369579357,-0.23702596,1.9728222,7.8469963
1587369579369,-0.2896984,0.89543146,7.763199
1587369579379,-0.29448682,0.46088383,7.514202
1587369579391,-0.2837129,0.17238252,7.2209125
1587369579401,-0.2837129,0.034715924,7.03177
1587369579413,-0.29688102,0.10414778,6.9383965
1587369579424,-0.35913026,0.28491,6.8091097
1587369579434,-0.41180268,0.51834464,6.6786256
1587369579446,-0.45489833,0.81642276,6.6044054
1587369579456,-0.5327099,1.1360487,6.612785
1587369579469,-0.5746084,1.4341269,6.4044895
1587369579475,-0.5746084,1.4341269,6.4044895
1587369579487,-0.59855044,1.4317327,6.3099184
1587369579500,-0.62847793,1.34195,6.1530986
1587369579510,-0.6907272,1.3611037,6.1638722
1587369579522,-0.7170634,1.4736311,6.3302693
1587369579532,-0.7206547,1.6867151,6.6989765
1587369579544,-0.7170634,1.8830396,7.120356
1587369579554,-0.760159,1.9512744,7.563283
1587369579566,-1.0690111,1.7944542,8.173804
1587369579576,-1.3060371,1.5658079,8.418014
1587369579589,-1.6843209,1.1324574,8.983045
1587369579599,-1.6843209,1.1324574,8.983045
1587369579609,-1.7262194,0.9720459,9.696517
1587369579621,-1.6519991,0.9983821,10.26514
1587369579631,-1.4293385,1.0079589,11.066
1587369579643,-1.1623849,1.1109096,11.92911
1587369579653,-1.0079589,1.2737153,12.607866
1587369579666,-1.0366893,1.471237,13.153744
1587369579676,-1.2557588,1.6687586,13.522451
1587369579687,-1.5873557,1.7776948,13.778631
1587369579698,-1.733402,1.7118542,13.976152
1587369579708,-1.8100165,1.2976574,13.802573
1587369579720,-1.8016368,1.1755531,13.283031
1587369579732,-1.757344,1.198298,12.558785
1587369579742,-1.7513585,1.4556746,11.86686
1587369579752,-1.7824832,1.887828,11.413159
1587369579763,-1.8219875,2.2852654,11.394006
1587369579775,-1.827973,2.4732103,11.960235
1587369579785,-1.5107412,1.6699557,12.913127
1587369579796,-1.2892777,1.0247183,13.081918
1587369579808,-0.7374141,-0.1592144,12.688072
1587369579817,-0.7374141,-0.1592144,12.688072
1587369579828,-0.4237737,-0.7314286,11.394006
1587369579839,-0.4285621,-0.7015011,10.423157
1587369579852,-0.6943185,-0.439336,9.522937
1587369579863,-1.0462662,-0.022744916,8.880095
1587369579873,-1.4149733,0.439336,8.487445
1587369579882,-1.6998832,0.8631097,8.440758
1587369579894,-1.9165585,1.0989386,8.683769
1587369579908,-2.0326772,0.9696517,9.132683
1587369579911,-1.7872716,0.47644615,9.726444
1587369579926,-1.4820108,-0.077811554,10.0748005
1587369579938,-1.0761937,-0.9983821,10.0508585
1587369579948,-1.0761937,-0.9983821,10.0508585
1587369579960,-0.62129533,-1.5598224,9.26556
1587369579970,-0.5434838,-1.5693992,8.571242
1587369579982,-0.6787562,-1.2952632,7.893683
1587369579992,-0.7721301,-0.9888053,7.2340803
1587369580004,-0.94451255,-0.29209262,5.9627595
1587369580014,-0.9672575,0.01436521,5.246893
1587369580026,-0.9708488,0.4441244,4.631583
1587369580036,-1.0761937,0.8750807,4.367024
1587369580054,-1.411382,1.5526398,4.7177744
1587369580062,-1.5071499,1.7298107,5.2085857
1587369580072,-1.4173675,1.7836803,5.877765
1587369580087,-1.2210429,1.7226281,6.6534867
1587369580097,-0.9720459,1.6579847,7.2723875
1587369580107,-0.8690952,1.7082629,7.6853876
1587369580117,-0.8643068,1.8650831,7.953538
1587369580128,-0.9828198,2.183512,8.080431
1587369580138,-1.340753,2.8622682,8.300697
1587369580150,-1.6053122,3.0011318,8.422802
1587369580160,-1.8375498,2.9137435,8.591593
1587369580172,-1.9129672,2.5953147,8.892065
1587369580182,-1.8363527,2.219425,9.255983
1587369580199,-1.436521,1.8830396,10.334572
1587369580209,-1.1779473,1.9680338,10.95467
1587369580218,-1.079785,2.3918076,11.704055
1587369580230,-1.3862427,2.5498247,11.85489
1587369580240,-1.733402,2.6024973,11.959038
1587369580252,-2.1260512,2.4756045,12.089521
1587369580263,-2.4995465,2.0829554,12.322956
1587369580273,-2.5713725,1.5107412,12.696451
1587369580285,-2.2397757,0.7350199,12.913127
1587369580294,-1.5035586,-0.03232172,13.354857
1587369580309,-0.37828386,-0.4309563,13.526043
1587369580318,-0.045489833,-0.049081136,13.321339
1587369580327,0.020350715,0.7410054,13.172897
1587369580338,-0.2705448,1.7669208,13.037625
1587369580349,-0.82240826,2.6048915,13.008895
1587369580358,-1.3934253,2.8574798,13.024457
1587369580369,-1.6089035,2.219425,12.771869
1587369580380,-1.460463,1.2054806,12.313379
1587369580390,-1.1599907,0.19512744,11.756727
1587369580401,-0.7649474,-0.6739678,11.142614
1587369580414,-0.3196259,-1.2653356,10.547656
1587369580426,0.14604631,-1.6232687,9.939528
1587369580437,0.94690675,-1.283292,9.773131
1587369580447,0.94690675,-1.283292,9.773131
1587369580459,0.997185,0.7517793,9.933543
1587369580468,0.997185,0.7517793,9.933543
1587369580480,0.79607207,1.8722657,9.872491
1587369580490,0.5530606,2.1559787,9.783905
1587369580501,0.17836803,2.1823149,9.621099
1587369580514,-0.107739076,1.9440918,9.355343
1587369580523,-0.17477672,1.5370775,9.074024
1587369580535,-0.16400282,1.1719618,8.77834
1587369580545,-0.12090719,0.8822633,8.541314
1587369580558,-0.09696517,0.6344634,8.062474
1587369580568,-0.094570965,0.6691794,7.7488337
1587369580580,-0.076614454,0.6907272,7.493851
1587369580590,-0.12808979,0.7230489,7.2209125
1587369580602,-0.12808979,0.85473,7.1131735
1587369580612,-0.1448492,1.1683705,7.2125325
1587369580625,-0.16639702,1.4221559,7.2927384
1587369580636,-0.079008654,1.4772224,7.2927384
1587369580646,0.05267244,1.3634979,7.1263413
1587369580656,0.09935937,1.292869,6.7444663
1587369580668,-0.24540567,1.6124948,5.947197
1587369580678,-0.41060558,1.8028339,5.839458
1587369580691,-0.6811504,2.043451,5.8083334
1587369580702,-1.0103531,2.2361844,5.9041014
1587369580711,-1.2366052,2.2230163,6.135142
1587369580726,-1.3479356,2.1811178,6.494272
1587369580736,-1.340753,2.2242134,7.1023993
1587369580745,-1.2761095,2.3056161,7.833828
1587369580754,-1.2270284,2.2637177,8.292317
1587369580765,-1.2593501,2.1978772,8.5700445
1587369580776,-1.3395559,2.1164744,8.74123
1587369580787,-1.5658079,2.0171149,8.768764
1587369580796,-1.5658079,2.0171149,8.768764
1587369580807,-1.7417817,2.2278047,9.52174
1587369580818,-1.8734628,2.4349031,10.21965
1587369580829,-2.0410569,2.6599581,10.785878
1587369580839,-2.1930888,2.8203697,11.35929
1587369580850,-2.2134395,2.9029696,11.984177
1587369580861,-2.1571758,2.9999347,12.648567
1587369580872,-2.123657,3.0753522,13.18846
1587369580883,-1.9644425,2.980781,13.379996
1587369580895,-1.4748282,2.31639,13.431472
1587369580903,-1.484405,2.0147207,12.798205
1587369580914,-1.5837644,1.9285295,12.056003
1587369580927,-1.7262194,2.099715,11.451467
1587369580937,-2.1535845,2.6563668,11.056423
1587369580949,-2.9221232,3.4452562,11.914744
1587369580960,-2.9843724,2.9903579,12.682086
1587369580969,-2.8167782,2.099715,13.368025
1587369580982,-2.48159,1.0726024,13.75828
1587369580992,-2.3127987,0.1364695,13.65892
1587369581005,-2.123657,-0.62847793,13.170504
1587369581011,-2.0003555,-1.0893618,12.404359
1587369581023,-2.0338743,-1.2844892,11.501745
1587369581036,-2.098518,-1.2318168,10.666168
1587369581046,-2.1667526,-0.9911995,9.817424
1587369581059,-2.1092918,0.044292733,8.965088
1587369581069,-1.99437,0.5626374,8.939949
1587369581079,-1.7549498,0.9876082,9.204509
1587369581091,-1.5562311,1.2605472,9.551667
1587369581101,-1.2904748,1.0606314,9.982624
1587369581113,-1.151611,0.7026982,9.853337
1587369581126,-1.0055647,0.37110126,9.574412
1587369581135,-0.78290397,0.1400608,9.065644
1587369581145,-0.6655881,0.034715924,8.406042
1587369581155,-0.6512229,0.11133038,7.586028
1587369581167,-0.7302315,0.36631286,6.8785415
1587369581178,-0.81522566,0.6871359,6.2847795
1587369581188,-1.0881647,1.4903905,5.8598084
1587369581199,-1.2126632,1.7250223,5.7496753
1587369581212,-1.3060371,1.8195933,5.759252
1587369581222,-1.3563153,1.7705121,5.829881
1587369581234,-1.3299791,1.6807296,5.8622026
1587369581244,-1.2306197,1.5466543,5.98311
1587369581256,-1.0606314,1.3838485,6.054936
1587369581266,-0.93613285,1.3096284,6.089652
1587369581279,-0.89184016,1.553837,6.191406
1587369581289,-0.9804256,1.804031,6.078878
1587369581298,-1.2090719,2.099715,6.1004257
1587369581311,-1.5346833,2.5318682,6.2249246
1587369581321,-1.8926164,3.0945058,6.517017
1587369581333,-2.0159178,3.1471782,6.6271505
1587369581343,-2.0362685,3.0250738,6.823475
1587369581353,-1.8579005,2.7617116,7.204153
1587369581365,-1.8579005,2.7617116,7.204153
1587369581375,-1.8579005,2.7617116,7.204153
1587369581387,-1.2497733,2.7377696,9.41879
1587369581396,-1.0223241,2.885013,10.260351
1587369581408,-0.9864111,3.2752678,11.6669445
1587369581419,-1.0702082,3.347094,12.154165
1587369581430,-1.1563994,3.1747115,12.41633
1587369581442,-1.4041992,2.9221232,12.46182
1587369581450,-1.602918,2.3822308,12.270284
1587369581461,-1.8076223,1.6759412,12.107478
1587369581473,-1.7537527,0.9660604,11.9614315
1587369581486,-1.460463,0.2669535,11.894394
1587369581496,-1.0594343,-0.29209262,12.173319
1587369581506,-0.7098808,-0.59855044,12.672509
1587369581519,-0.2861071,0.22266077,14.008474
1587369581529,-0.48362875,1.365892,14.808138
1587369581539,-1.484405,3.0059202,16.232687
1587369581552,-1.9321208,2.895787,16.1453
1587369581558,-2.2182279,2.078167,15.224729
1587369581570,-2.2493525,0.7493851,13.9833355
1587369581582,-2.0410569,-0.6835446,12.683284
1587369581594,-1.745373,-1.9153614,11.416751
1587369581604,-1.3000516,-2.801216,10.295067
1587369581616,-0.866701,-3.1842883,9.496601
1587369581626,-0.61650693,-2.9999347,9.060856
1587369581638,-0.48961425,-2.3080103,8.874108
1587369581649,-0.33159694,-0.36032736,8.973468
1587369581659,-0.1364695,0.5758055,8.820239
1587369581674,0.1604115,1.2904748,8.459911
1587369581682,0.33279404,1.8626889,8.115147
1587369581693,0.32680854,2.337938,7.8302364
1587369581703,0.17118542,2.7138276,7.6853876
1587369581715,-0.14963761,3.0131028,7.705738
1587369581725,-0.5662287,3.0597897,7.825448
1587369581742,-0.90500826,2.336741,8.397662
1587369581752,-0.9923966,1.9237411,8.6574335
1587369581767,-1.0630256,1.602918,8.707711
1587369581777,-0.9504981,0.82360536,8.246828
1587369581789,-0.79966336,0.22864626,7.193379
1587369581799,-0.79966336,0.089782566,6.621165
1587369581811,-0.9516952,0.18315643,6.1399302
1587369581821,-1.1731589,0.45489833,5.7628436
1587369581838,-1.4149733,1.1587936,5.6766524
1587369581850,-1.3563153,1.4556746,5.973533
1587369581859,-1.2030864,1.6065093,6.2883706
1587369581869,-1.0726024,1.673547,6.5241995
1587369581878,-0.9504981,1.6807296,6.7923503
1587369581887,-0.90740246,1.6663644,6.9527617
1587369581901,-0.8475474,1.6639702,6.9731126
1587369581909,-0.830788,1.7477672,7.177817
1587369581920,-0.80924016,1.9033904,7.5429325
1587369581931,-0.81402856,2.1092918,8.091205
1587369581942,-0.8379706,2.243367,8.716091
1587369581954,-0.82360536,2.2756886,9.285912
1587369581967,-0.89303726,2.303222,9.844957
1587369581977,-0.9756372,2.3391352,10.418368
1587369581987,-1.0941502,2.3104045,10.70687
1587369581999,-1.8555063,2.112883,10.714052
1587369582007,-1.8555063,2.112883,10.714052
1587369582019,-2.31639,1.757344,10.922348
1587369582031,-2.348712,1.6352397,11.518504
1587369582040,-2.2900538,1.7549498,12.599486
1587369582051,-2.1583729,1.9644425,13.813347
1587369582063,-1.9895816,2.0518308,14.7399025
1587369582074,-1.8064252,1.9740193,15.239094
1587369582085,-1.6663644,1.8650831,15.172056
1587369582096,-1.6555905,1.7968484,14.541184
1587369582108,-1.6340426,1.7298107,12.823344
1587369582115,-1.6340426,1.7298107,12.823344
1587369582126,-1.7322049,1.5981296,12.579136
1587369582138,-1.7776948,1.0414777,13.35366
1587369582149,-1.7645266,0.6596026,13.67568
1587369582161,-1.7645266,0.34356794,13.657723
1587369582173,-1.7537527,0.2645593,13.269863
1587369582183,-1.7262194,0.25378537,12.58153
1587369582195,-1.5382746,0.22146365,11.790246
1587369582205,-1.3910311,0.25019407,10.803835
1587369582219,-1.2653356,0.90381116,8.433576
1587369582223,-1.2653356,0.90381116,8.433576
1587369582241,-1.5191209,1.400608,7.4004774
1587369582248,-1.6196774,1.3395559,7.1466923
1587369582259,-1.6831238,1.0702082,7.3789296
1587369582271,-1.5622166,0.6476316,8.019379
1587369582280,-1.3706805,0.35075054,8.698134
1587369582291,-1.2485762,0.16280572,9.232041
1587369582302,-1.0307038,0.005985504,9.667787
1587369582321,-0.8559271,-0.08738836,9.763555
1587369582333,-0.8559271,-0.08738836,9.763555
1587369582340,-0.8559271,-0.08738836,9.763555
1587369582351,-0.8559271,-0.08738836,9.763555
1587369582362,-0.49919105,0.5805939,7.9092455
1587369582394,-0.90740246,0.7577648,6.181829
1587369582397,-1.0390835,0.6715736,5.8143187
1587369582406,-1.0390835,0.6715736,5.8143187
1587369582413,-1.0486604,0.48003745,5.5042696
1587369582423,-0.94451255,0.30765492,5.451597
1587369582432,-0.59974754,0.15682021,5.7424927
1587369582440,-0.37349546,0.272939,6.0609217
1587369582455,-0.25977087,0.6500258,6.566098
1587369582483,-0.5626374,1.5741876,8.084022
1587369582510,-1.2773066,2.6312277,7.9212165
1587369582521,-1.389834,2.7222073,7.693767
1587369582531,-1.435324,2.6719291,7.60997
1587369582542,-1.448492,2.5785553,7.7308774
1587369582553,-1.448492,2.4875755,8.300697
1587369582564,-1.3634979,2.2601264,9.351752
1587369582567,-1.3634979,2.2601264,9.351752
1587369582571,-1.3000516,1.9524715,10.477027
1587369582583,-1.3611037,1.8602947,11.464635
1587369582599,-1.661576,2.0566192,12.6461735
1587369582611,-1.8435353,2.088941,12.831724
1587369582621,-1.9405005,1.9405005,12.842498
1587369582634,-1.9632454,1.5023615,12.641385
1587369582644,-1.8555063,0.88944596,12.121843
1587369582654,-1.258153,-0.20949265,11.280281
1587369582668,-0.40342298,-0.51714754,11.170148
1587369582678,-0.08379706,0.011971008,11.603498
1587369582688,-0.08379706,0.011971008,11.603498
1587369582701,-0.11851298,2.0853498,13.10586
1587369582711,-0.23822308,2.837129,13.989321
1587369582721,-0.2896984,3.0011318,14.531608
1587369582734,-0.23104046,2.348712,14.693215
1587369582743,-0.034715924,1.1492168,14.55914
1587369582755,0.29448682,0.027533319,14.201207
1587369582765,0.5351041,-0.92176765,13.7367325
1587369582777,0.7026982,-1.5622166,13.077129
1587369582788,0.8583213,-1.863886,12.164939
1587369582798,0.92416185,-1.270124,10.478224
1587369582810,1.0307038,-0.5506664,9.847352
1587369582820,1.0977415,0.23702596,9.295488
1587369582833,1.1145009,0.91578215,8.737639
1587369582843,1.0666169,1.4341269,8.307879
1587369582853,0.9828198,1.8662802,7.926005
1587369582865,0.78410107,2.1571758,7.644686
1587369582875,0.25258827,2.2960393,7.3657618
1587369582887,0.06943185,2.1380222,7.338228
1587369582897,0.08379706,1.8028339,7.4256167
1587369582909,0.2717419,1.3275849,7.1251445
1587369582918,0.31483752,1.1695676,6.8581905
1587369582929,0.34356794,1.1133038,6.495469
1587369582941,0.40222588,1.1935096,6.0728927
1587369582951,0.5422867,1.3814543,5.8095303
1587369582963,0.6715736,1.6591818,5.6898203
1587369582972,0.7529764,1.9668367,5.5820813
1587369582985,0.7134721,2.268506,5.577293
1587369582994,0.58657944,2.5390508,5.7496753
1587369583005,0.4345476,2.7665,5.9687448
1587369583016,0.2645593,2.8048072,6.0202203
1587369583025,0.061052144,2.742558,6.2704144
1587369583036,-0.059855044,2.5617957,6.5230026
1587369583048,-0.4441244,2.1906946,6.6666546
1587369583063,-0.62368953,2.0231004,6.7887588
1587369583073,-0.78170687,1.8746599,6.9288197
1587369583084,-0.9876082,1.7681179,7.049727
1587369583096,-1.4951789,1.8183962,7.6746135
1587369583106,-1.6962919,1.7202339,8.08881
1587369583116,-1.8411411,1.5251064,8.555679
1587369583126,-1.9452889,1.3275849,9.060856
1587369583138,-2.0602105,1.0749966,9.817424
1587369583148,-2.087744,1.0642227,10.1861315
1587369583159,-2.1859062,1.1767502,10.520123
1587369583171,-2.3211784,1.3838485,10.881647
1587369583182,-2.337938,1.532289,11.3964
1587369583191,-2.2613235,1.6041151,12.017695
1587369583204,-2.2254105,1.6304513,12.607866
1587369583214,-2.2337902,1.6496049,13.093889
1587369583226,-2.2517467,1.7022774,13.642161
1587369583237,-2.2062569,1.6651673,14.119804
1587369583248,-1.8614918,1.1480197,14.61301
1587369583258,-1.6424223,0.8619126,14.343662
1587369583270,-1.484405,0.60932434,13.752295
1587369583280,-1.4676456,0.533907,12.914324
1587369583293,-1.3323733,0.7493851,11.962628
1587369583302,-1.3946224,1.3575124,10.965444
1587369583314,-2.0338743,2.3870192,11.341333
1587369583324,-2.0530279,2.1212628,12.132617
1587369583336,-1.7741034,1.1971009,12.8053875
1587369583348,-1.5191209,0.2789245,13.146562
1587369583356,-1.3335704,-0.33758244,12.8927765
1587369583367,-1.0606314,-0.85473,12.520478
1587369583380,-0.6943185,-1.0833763,11.177331
1587369583389,-0.7038953,-0.80445176,10.31901
1587369583401,-0.7697359,-0.33279404,9.466674
1587369583414,-0.8487445,0.16280572,8.78672
1587369583424,-0.90620536,0.676362,8.505402
1587369583434,-1.0055647,1.1252748,8.549694
1587369583446,-1.0881647,1.3215994,8.856153
1587369583456,-0.9528923,1.091756,9.233239
1587369583469,-0.712275,0.33518824,9.54209
1587369583479,-0.6380547,0.0023942017,9.382876
1587369583489,-0.49919105,-0.36631286,9.272743
1587369583501,-0.36511576,-0.60932434,9.084799
1587369583511,-0.30047232,-0.736217,8.92319
1587369583523,-0.2873042,-0.6631939,8.746018
1587369583534,-0.37708676,-0.15203181,7.9511437
1587369583544,-0.47285482,0.21547815,7.4208283
1587369583556,-0.49200845,0.51235914,6.9120603
1587369583567,-0.5255273,0.7254431,6.4032927
1587369583577,-0.5446809,0.8583213,6.075287
1587369583589,-0.50876784,0.8619126,6.0166287
1587369583599,-0.5710171,0.82360536,6.0285997
1587369583611,-0.6739678,0.8403648,6.05733
1587369583621,-0.80086046,0.92775315,6.1004257
1587369583633,-0.93732995,1.0941502,6.078878
1587369583643,-1.1228806,1.3802572,6.1088057
1587369583655,-1.2641385,1.6448165,6.113594
1587369583665,-1.3874398,1.9393034,6.337452
1587369583677,-1.3575124,2.123657,6.766014
1587369583686,-1.3036429,2.2122424,7.2149267
1587369583699,-0.997185,1.9620483,8.043321
1587369583709,-0.80564886,1.8818425,8.396465
1587369583718,-0.62488663,1.9500773,8.870518
1587369583730,-0.47165772,1.958457,9.470264
1587369583742,-0.44532153,2.0135236,10.019734
1587369583752,-0.9648633,2.0638018,10.945093
1587369583764,-1.2629414,1.8806454,11.173739
1587369583774,-1.4389153,1.4652514,11.6908865
1587369583786,-1.555034,0.8331822,12.2319765
1587369583794,-1.6053122,0.08140286,12.706028
1587369583806,-1.5286977,-0.5650316,13.077129
1587369583818,-1.2114661,-1.1145009,13.063962
1587369583828,0.12689269,-1.8686744,12.510901
1587369583840,0.70509243,-1.7166426,12.199655
1587369583850,1.0977415,-0.93613285,12.038046
1587369583862,0.9995792,0.2896984,12.2224
1587369583872,0.38187516,1.6591818,12.555194
1587369583884,-0.44532153,2.6372132,12.727576
1587369583894,-0.9935937,2.8275523,12.543222
1587369583906,-1.1504139,2.1332338,11.818976
1587369583916,-1.0115502,1.0163386,10.965444
1587369583929,0.18195933,-1.4460979,9.985018
1587369583939,0.9792285,-2.336741,9.758766
1587369583949,1.638831,-2.6599581,9.776723
1587369583961,2.0398598,-2.3451207,10.044873
1587369583971,2.0733786,-0.033518825,11.015722
1587369583984,1.7393875,1.2114661,11.610682
1587369583994,1.3838485,2.1990743,12.215217
1587369584004,1.0163386,2.6922798,12.617443
1587369584015,0.7637503,2.5809495,12.720393
1587369584026,0.61411273,2.0925324,12.6461735
1587369584037,0.4285621,0.7422025,11.723208
1587369584048,0.38307226,0.17956513,11.036073
1587369584059,0.4189853,-0.25498247,10.502166
1587369584070,0.47884035,-0.48362875,10.109517
1587369584081,0.5255273,-0.44532153,10.019734
1587369584092,0.5770026,-0.24061728,10.032902
1587369584103,0.5793968,0.05626374,10.022128
1587369584114,0.59376204,0.40462008,10.043676
1587369584125,0.49679685,0.7589619,10.041282
1587369584135,0.415394,1.0199299,9.940725
1587369584148,0.49440265,1.1168951,9.627085
1587369584158,0.5626374,1.1097125,8.359355
1587369584168,0.47405192,1.2162545,7.716512
1587369584180,0.39025488,1.3383588,6.634333
1587369584190,0.37948096,1.5059528,6.172252
1587369584202,0.3854665,1.6017209,5.7640405
1587369584212,0.40940848,1.7465701,5.523423
1587369584223,0.36750996,1.9309237,5.457583
1587369584233,0.2873042,2.1739352,5.389348
1587369584245,0.24181437,2.4049757,5.4168816
1587369584256,0.19273324,2.5821466,5.6898203
1587369584266,0.14844051,2.598906,6.1303535
1587369584279,0.05626374,2.554613,7.243657
1587369584288,-0.025139118,2.6527755,7.837419
1587369584300,-0.062249243,2.586935,8.47308
1587369584311,-0.0011971008,2.4025815,8.937555
1587369584321,0.019153614,2.2732944,9.136273
1587369584333,-0.038307227,2.2062569,9.233239
1587369584341,-0.11492168,2.1559787,9.442732
1587369584353,-0.1400608,2.2002714,9.733627
1587369584365,-0.17836803,2.2637177,10.103531
1587369584375,-0.32920274,2.4145525,10.585963
1587369584387,-0.5434838,2.731784,11.268311
1587369584398,-0.7074866,2.980781,12.644977
1587369584408,-0.6931214,2.8634653,13.75828
1587369584420,-0.842759,2.5881321,13.713987
1587369584430,-0.9804256,2.4959552,13.273455
1587369584443,-1.1324574,2.5342624,12.476185
1587369584449,-1.3311762,2.610877,11.829751
1587369584461,-1.412579,2.634819,11.480197
1587369584473,-1.5095441,2.4612393,11.672931
1587369584484,-1.4939818,2.0745757,12.302606
1587369584496,-1.448492,1.5215151,12.972981
1587369584507,-1.3946224,0.8631097,13.420697
1587369584517,-1.2988545,0.30166942,13.579912
1587369584529,-0.8870517,-0.5770026,13.140576
1587369584539,-0.62608373,-0.7170634,12.360066
1587369584551,-0.5374983,-0.49679685,11.407174
1587369584559,-0.60812724,-0.020350715,10.499771
1587369584571,-0.6979098,0.51954174,9.77792
1587369584583,-0.7649474,0.9947908,9.263166
1587369584593,-0.81163436,1.3299791,8.835801
1587369584605,-0.8511387,1.4927847,8.631097
1587369584615,-0.8559271,1.471237,8.7053175
1587369584627,-0.81402856,1.1767502,8.986636
1587369584637,-0.82121116,0.44651863,9.284714
1587369584649,-0.6943185,-0.23702596,9.062054
1587369584659,-0.581791,-0.4225766,8.84059
1587369584671,-0.50038815,-0.50637364,8.452729
1587369584681,-0.50038815,-0.38187516,7.8637557
1587369584693,-0.581791,-0.06584055,7.2268977
1587369584703,-0.6392518,0.30047232,6.6726403
1587369584715,-0.59974754,0.62488663,6.302736
1587369584725,-0.5327099,0.89902276,5.9663506
1587369584736,-0.41180268,1.0845734,5.720945
1587369584748,-0.30286652,1.2018893,5.571307
1587369584757,-0.2669535,1.4329298,5.3582234
1587369584768,-0.2669535,1.5598224,5.400122
1587369584777,-0.24181437,1.6807296,5.5581393
1587369584788,-0.19393034,1.7776948,5.7987566
1587369584821,-0.062249243,2.1068976,6.727707
1587369584831,-0.046686932,2.2385786,7.1071877
1587369584834,-0.046686932,2.2385786,7.1071877
1587369584841,-0.1376666,2.4779987,7.2819643
1587369584848,-0.46208093,2.7880478,7.3873096
1587369584856,-0.46208093,2.7880478,7.3873096
1587369584865,-0.9923966,3.0322564,7.7320743
1587369584878,-1.5406688,2.6060886,8.255207
1587369584884,-1.5406688,2.6060886,8.255207
1587369584897,-1.6424223,2.1679497,8.664616
1587369584909,-1.6292542,1.2366052,9.742006
1587369584919,-1.4903905,0.8810662,10.283096
1587369584931,-1.3694834,0.82599956,10.7356
1587369584940,-1.4460979,1.2150574,11.116279
1587369584951,-1.6759412,1.8243817,11.63582
1587369584963,-1.8950106,2.2541409,12.314576
1587369584974,-2.171541,2.4001873,13.043611
1587369584985,-2.420538,2.3774424,13.415909
1587369584994,-2.5222914,2.0111294,13.387178
1587369585005,-2.2577322,1.270124,13.43626
1587369585016,-1.721431,0.47644615,13.479356
1587369585027,-0.90381116,-0.033518825,13.426683
1587369585040,0.09935937,0.7410054,13.211205
1587369585050,-0.095768064,1.7465701,12.798205
1587369585062,-0.62847793,2.5354595,12.346898
1587369585071,-1.2198458,2.718616,11.965023
1587369585082,-1.6304513,1.365892,11.4119625
1587369585094,-1.2868834,0.2717419,11.591528
1587369585101,-0.81522566,-0.49440265,11.868058
1587369585113,-0.30406362,-0.9828198,11.990162
1587369585124,0.18555063,-1.1575965,11.967417
1587369585135,0.533907,-1.0642227,11.897985
1587369585146,0.78888947,-0.7398083,11.693281
1587369585157,1.0342951,-0.29328972,11.390414
1587369585168,1.2785037,0.80086046,10.250774
1587369585181,1.1923125,1.3431472,9.643845
1587369585191,0.92057055,1.7549498,9.020155
1587369585203,0.59495914,2.007538,8.591593
1587369585211,0.22505496,2.1140802,8.172607
1587369585223,-0.09935937,1.9656396,7.823054
1587369585235,-0.24660277,1.6639702,7.6410947
1587369585245,-0.32441434,1.3251907,7.6267295
1587369585257,-0.30885202,1.0342951,7.595605
1587369585267,-0.2645593,0.78050977,7.514202
1587369585279,-0.17477672,0.50637364,7.0808516
1587369585289,-0.20350714,0.62129533,6.8067155
1587369585301,-0.30885202,1.0127473,6.385336
1587369585312,-0.2837129,1.1707647,6.1806316
1587369585322,-0.21068975,1.3227965,6.0226145
1587369585334,-0.19153613,1.5945383,6.191406
1587369585344,-0.3196259,1.9069817,6.3446345
1587369585356,-0.46926352,2.078167,6.467936
1587369585367,-0.46327803,2.0350714,6.5948286
1587369585378,-0.47046062,1.9129672,6.658275
1587369585388,-0.92775315,1.8471266,7.035362
1587369585400,-1.1791444,1.685518,7.225701
1587369585410,-1.3383588,1.4221559,7.4375877
1587369585423,-1.423353,1.2473791,7.487866
1587369585429,-1.4065934,1.1384429,7.8589673
1587369585441,-1.4616601,1.079785,8.259995
1587369585453,-1.400608,0.9708488,8.586804
1587369585464,-1.3347675,0.94810385,8.863335
1587369585476,-1.2964603,1.0869676,9.126697
1587369585487,-1.3227965,1.3443443,9.470264
1587369585497,-1.4401124,1.6292542,9.824607
1587369585509,-1.6867151,2.291251,10.363302
1587369585519,-1.685518,2.9053638,11.294646
1587369585531,-1.7597382,3.1603463,11.563994
1587369585539,-1.8315643,3.323152,11.719617
1587369585551,-1.9213469,3.3566709,11.932701
1587369585564,-2.0111294,3.2070332,12.229582
1587369585574,-1.9764135,2.8431146,12.457031
1587369585583,-1.8459295,2.445677,12.819753
1587369585595,-1.6555905,2.0925324,13.077129
1587369585607,-1.4544775,1.875857,13.108254
1587369585617,-1.3826514,1.9405005,12.971785
1587369585629,-1.602918,2.4827871,12.861651
1587369585639,-1.673547,2.6767175,13.366828
1587369585651,-1.9512744,2.8072014,14.185645
1587369585661,-2.0135236,2.4732103,15.164873
1587369585673,-2.098518,1.8447324,15.813703
1587369585683,-2.0350714,0.8822633,16.091429
1587369585695,-1.9644425,-0.18195933,15.749059
1587369585706,-1.7322049,-1.0702082,15.126566
1587369585718,-1.4389153,-1.7405846,13.92348
1587369585728,-1.2761095,-2.042254,12.343307
1587369585738,-1.2689269,-0.90381116,8.611943
1587369585749,-1.1971009,-0.2705448,7.9714947
1587369585759,-1.1085154,0.39264908,7.6985555
1587369585771,-1.0618285,1.033098,7.7320743
1587369585782,-1.0462662,1.5358804,8.036138
1587369585792,-1.0486604,1.780089,8.402451
1587369585804,-1.0354922,1.6879122,8.74961
1587369585814,-0.9684546,1.3215994,8.942344
1587369585826,-0.92176765,0.93613285,8.811859
1587369585837,-0.8559271,0.60453594,8.5700445
1587369585847,-0.82121116,0.36272156,8.196549
1587369585859,-0.62608373,-0.015562311,7.6231384
1587369585868,-0.5506664,-0.02633622,7.33344
1587369585880,-0.4381389,0.076614454,7.026982
1587369585890,-0.36272156,0.30645782,6.909666
1587369585902,-0.30406362,0.62847793,6.944382
1587369585911,-0.30526072,0.93254155,7.025785
1587369585923,-0.30645782,1.0905589,7.097611
1587369585935,-0.25378537,1.1133038,7.204153
1587369585946,-0.1436521,1.0905589,7.311892
1587369585956,-0.11133038,1.0845734,7.2747817
1587369585968,-0.009576807,1.1061212,7.1766195
1587369585976,-0.009576807,1.1061212,7.1766195
1587369585988,-0.039504327,1.3060371,6.7947445
1587369586000,-0.16280572,1.5394717,6.566098
1587369586010,-0.34955344,1.8207904,6.489484
1587369586022,-0.5638345,2.1164744,6.613982
1587369586032,-0.7493851,2.2254105,6.987478
1587369586044,-0.7697359,2.0219033,7.398083
1587369586054,-0.6919243,1.6723499,7.6746135
1587369586066,-0.6404489,1.4209588,7.926005
1587369586076,-0.6596026,1.3515269,8.213309
1587369586089,-0.59136784,1.270124,8.832211
1587369586099,-0.47165772,1.2246342,9.127894
1587369586109,-0.427365,1.4149733,9.312247
1587369586121,-0.5327099,1.7908629,9.673772
1587369586130,-0.8415619,2.1140802,10.016143
1587369586142,-1.0881647,2.2002714,10.509348
1587369586154,-1.2126632,2.0745757,11.168951
1587369586163,-1.2246342,1.8375498,11.881226
1587369586175,-1.246182,1.5717934,12.37084
1587369586186,-1.1109096,1.2138603,12.716803
1587369586195,-0.076614454,-0.06823475,13.435062
1587369586206,0.33877954,-0.51355624,13.6409645
1587369586217,0.94331545,-0.4213795,14.5088625
1587369586228,0.6655881,0.5674258,14.669273
1587369586239,0.049081136,1.5646108,14.524425
1587369586251,-0.61890113,2.0649989,14.123396
1587369586263,-0.89782566,1.7848774,13.354857
1587369586273,-0.8583213,0.7170634,12.312182
1587369586285,-0.61530983,-0.5542577,11.439496
1587369586295,-0.110133275,-1.6400281,10.581175
1587369586308,0.89423436,-2.5701754,9.938332
1587369586318,1.103727,-2.079364,10.600328
1587369586328,1.1180922,-0.9624691,11.434708
1587369586340,1.1420342,0.4177882,12.330139
1587369586350,1.3120226,1.6663644,13.069947
1587369586362,1.6376339,2.5198972,13.183672
1587369586372,1.9009962,2.9173348,12.812571
1587369586384,1.9800048,2.9388826,12.022484
1587369586394,1.8890251,2.694674,10.969035
1587369586406,1.5717934,2.3654714,9.702502
1587369586415,0.80086046,1.7046716,7.1227503
1587369586427,0.51116204,1.4915876,6.208165
1587369586437,0.31364042,1.3838485,5.674258
1587369586449,0.023942016,1.6316484,5.317522
1587369586459,-0.025139118,1.9405005,5.651513
1587369586470,0.007182605,2.2146366,6.06571
1587369586482,0.12210429,2.3642743,6.3745623
1587369586492,0.18794483,2.4313118,6.4763155
1587369586504,0.14724341,2.4349031,6.343437
1587369586514,0.050278235,2.3894134,6.117185
1587369586526,-0.044292733,2.3187842,5.9507885
1587369586536,-0.090979666,2.2230163,5.907693
1587369586548,-0.044292733,2.3139958,6.233304
1587369586558,0.008379706,2.4756045,6.432023
1587369586570,-0.008379706,2.6479871,6.576872
1587369586580,-0.23463176,2.8299465,6.692991
1587369586592,-0.4141969,3.0071173,6.955156
1587369586602,-0.47644615,3.0777464,7.1993647
1587369586614,-0.5434838,3.0190883,7.359776
1587369586624,-0.6356605,2.8526914,7.5082164
1587369586636,-0.79487497,2.3882163,7.620744
1587369586646,-0.94570965,2.2828712,7.787141
1587369586658,-1.1133038,2.3211784,8.090008
1587369586668,-1.2330139,2.634819,9.167398
1587369586680,-1.1456255,2.7269957,9.738416
1587369586690,-1.1671734,2.9472623,10.263943
1587369586703,-1.30484,3.2070332,10.59554
1587369586712,-1.42455,3.3363202,10.945093
1587369586724,-1.5251064,3.3602622,11.234792
1587369586734,-1.5765818,3.1842883,11.456255
1587369586746,-1.5622166,2.942474,11.7064495
1587369586756,-1.555034,2.6755204,12.046426
1587369586769,-1.4927847,2.315193,13.085509
1587369586779,-1.3706805,2.1990743,13.448231
1587369586789,-1.1372458,2.042254,13.475764
1587369586801,-0.9708488,1.9452889,13.165715
1587369586811,-0.997185,1.9393034,12.281057
1587369586824,-0.90381116,1.8830396,11.414356
1587369586834,-0.8822633,2.146402,10.653001
1587369586843,-0.9744401,2.5594015,10.5919485
1587369586857,-1.1216835,2.6264393,12.192472
1587369586867,-0.81881696,1.1971009,14.180857
1587369586877,-0.81881696,1.1971009,14.180857
1587369586889,-0.5446809,-0.3878607,13.911509
1587369586899,-0.2657564,-1.0785879,13.066356
1587369586911,-0.089782566,-1.483208,11.841722
1587369586921,-0.23343466,-1.4520833,10.317812
1587369586934,-0.47524905,-1.0809821,8.992621
1587369586944,-0.6811504,-0.49559975,8.051701
1587369586954,-0.8870517,0.15083471,7.5704656
1587369586966,-1.1324574,0.8774749,7.5908165
1587369586977,-1.3192052,1.4688427,7.904457
1587369586987,-1.3072342,1.7298107,8.508993
1587369587000,-0.9624691,1.0510546,9.5971575
1587369587010,-0.94690675,0.6380547,9.688137
1587369587019,-0.9995792,0.31603462,9.43076
1587369587031,-1.0199299,-0.019153614,9.052477
1587369587043,-1.033098,-0.29568392,8.692149
1587369587053,-1.1204864,-0.36391866,8.331821
1587369587065,-1.2150574,-0.2645593,7.9906483
1587369587073,-1.389834,0.25857377,7.4028716
1587369587085,-1.4281414,0.5518635,7.2352777
1587369587097,-1.4628572,0.7685388,7.1191587
1587369587107,-1.4999673,0.90740246,7.064092
1587369587119,-1.3611037,0.9576807,7.240066
1587369587129,-1.2641385,0.92057055,7.381324
1587369587142,-1.1492168,0.8882488,7.5213847
1587369587152,-1.0737995,0.85473,7.6494746
1587369587162,-1.0139444,0.8738836,7.7560163
1587369587175,-0.9888053,1.067814,7.955932
1587369587182,-0.9816227,1.3156139,8.111555
1587369587194,-0.91937345,1.6699557,8.206126
1587369587206,-0.93014735,2.0398598,8.350976
1587369587215,-1.0498575,2.4660277,8.298303
1587369587227,-1.2844892,2.8909986,8.237251
1587369587238,-1.9764135,2.9269116,7.789535
1587369587249,-2.2182279,2.5354595,7.6482773
1587369587260,-2.2661119,1.922544,7.8912888
1587369587271,-2.1140802,1.2258313,8.47308
1587369587282,-1.9321208,0.6596026,9.260772
1587369587291,-1.3838485,-0.19033903,10.644621
1587369587303,-1.1480197,-0.25378537,10.979809
1587369587315,-1.1252748,0.18076223,11.049241
1587369587325,-1.258153,0.90979666,11.004948
1587369587336,-1.3575124,1.5526398,10.907983
1587369587349,-1.5957354,2.110489,11.036073
1587369587359,-1.6687586,1.8926164,11.264719
1587369587369,-1.2545617,1.0929531,11.810597
1587369587381,-0.6739678,0.15322891,12.348095
1587369587390,-0.050278235,-0.58418524,12.800599
1587369587405,0.60333884,-1.0019734,13.336901
1587369587413,1.0726024,-0.94211835,13.905523
1587369587425,1.352724,-0.5386954,14.329297
1587369587434,1.3563153,0.21428105,14.615404
1587369587446,0.9935937,1.0953473,14.526819
1587369587458,-0.08499416,1.6376339,13.200431
1587369587467,-0.23463176,0.90261406,12.194866
1587369587478,-0.11133038,0.017956512,11.379641
1587369587490,0.21308395,-0.8631097,10.638636
1587369587501,0.59376204,-1.5873557,9.782708
1587369587510,1.0307038,-2.099715,8.596381
1587369587521,1.1552023,-1.7968484,8.425196
1587369587534,1.1611878,-1.1312603,8.495825
1587369587543,1.0366893,-0.2777274,8.784326
1587369587555,0.8331822,0.5710171,9.19134
1587369587568,0.2681506,1.5310919,9.788693
1587369587578,0.2681506,1.5310919,9.788693
1587369587588,-0.1340753,1.2198458,9.388862
1587369587600,-0.24061728,0.89184016,8.890868
1587369587610,-0.25378537,0.6739678,8.543709
1587369587623,-0.2753332,0.62488663,8.213309
1587369587633,-0.2753332,0.58298814,7.8853035
1587369587642,-0.30047232,0.50637364,7.454347
1587369587656,-0.32441434,0.45250413,6.977901
1587369587666,-0.4165911,0.38187516,6.47033
1587369587676,-0.51714754,0.35913026,6.019023
1587369587687,-0.62249243,0.4357447,5.813122
1587369587698,-0.6979098,0.7374141,5.7029886
1587369587710,-0.7469909,0.92057055,5.6658783
1587369587719,-0.78170687,1.0690111,5.6347537
1587369587733,-0.8607155,1.2892777,5.913678
1587369587743,-0.8810662,1.364695,6.1004257
1587369587753,-0.91458505,1.4544775,6.4188547
1587369587764,-1.0067618,1.5490485,6.8557963
1587369587775,-1.0749966,1.6400281,7.3753386
1587369587786,-1.0833763,1.6352397,8.078036
1587369587797,-0.79248077,1.3515269,9.763555
1587369587808,-0.7338228,1.1923125,10.463859
1587369587819,-0.7781156,1.1228806,11.021708
1587369587830,-0.9888053,1.30484,11.402386
1587369587839,-1.3634979,1.5873557,11.550826
1587369587849,-1.6783354,1.8770541,11.610682
1587369587860,-1.7525556,2.0171149,11.553221
1587369587871,-1.7848774,2.0266917,11.428721
1587369587882,-1.8219875,2.0757728,11.092337
1587369587894,-1.7202339,2.0685902,10.897209
1587369587906,-1.5406688,2.0614076,11.002554
1587369587918,-1.3634979,2.006341,11.814188
1587369587929,-1.4879963,2.0111294,12.503718
1587369587938,-1.7010803,1.9416976,13.111846
1587369587951,-1.7501614,1.6424223,14.306552
1587369587961,-1.6927006,0.878672,14.405911
1587369587972,-1.553837,0.59376204,14.026431
1587369587984,-1.3730747,0.34715924,13.241133
1587369587994,-1.328782,0.32561144,12.346898
1587369588006,-1.3670892,0.44651863,11.437101
1587369588016,-1.5837644,0.7218518,11.061212
1587369588028,-1.9512744,0.88944596,11.971008
1587369588038,-1.9512744,0.88944596,11.971008
1587369588050,-1.4269443,-0.47285482,13.177686
1587369588058,-1.1456255,-0.985214,13.285425
1587369588070,-0.94930094,-1.2844892,13.017275
1587369588082,-0.7445967,-1.4449008,12.419921
1587369588092,-0.6751649,-1.3503298,11.659762
1587369588104,-0.62488663,-1.091756,10.833763
1587369588114,-0.6500258,-0.7529764,9.974244
1587369588126,-0.5566519,-0.47165772,9.038112
1587369588136,-0.415394,-0.23942018,8.196549
1587369588148,-0.24181437,0.3196259,7.2340803
1587369588158,-0.21547815,0.44532153,7.241263
1587369588171,-0.4285621,0.2765303,8.030152
1587369588181,-0.49440265,0.039504327,8.474277
1587369588191,-0.4369418,-0.23463176,8.945934
1587369588203,-0.29688102,-0.58298814,9.2547865
1587369588213,-0.17477672,-0.90021986,9.428367
1587369588225,-0.089782566,-1.1384429,9.26197
1587369588241,-0.22146365,-0.8738836,8.279149
1587369588251,-0.34117374,-0.41060558,7.735666
1587369588262,-0.32202014,0.0023942017,7.323863
1587369588271,-0.34237084,0.45848963,7.2568254
1587369588285,-0.36631286,0.8798691,7.6351094
1587369588311,-0.2753332,0.8511387,8.532935
1587369588324,-0.21667525,0.6787562,8.400057
1587369588334,-0.17597382,0.62368953,7.989451
1587369588337,-0.19273324,0.6943185,7.5201874
1587369588344,-0.19273324,0.6943185,7.5201874
1587369588353,-0.2777274,0.9624691,7.038953
1587369588361,-0.41299978,1.2844892,6.7612257
1587369588370,-0.545878,1.5191209,6.613982
1587369588381,-0.7098808,1.7357962,6.5720835
1587369588390,-0.94690675,2.1703439,6.787562
1587369588402,-1.0702082,2.2541409,7.165846
1587369588414,-1.0726024,2.255338,7.6506715
1587369588424,-0.9804256,2.1990743,8.317456
1587369588436,-0.80924016,2.088941,9.038112
1587369588447,-0.5758055,2.0027497,9.76954
1587369588457,-0.5398925,2.0087352,10.34774
1587369588470,-0.7170634,2.3594859,11.219229
1587369588481,-1.0366893,2.5713725,11.719617
1587369588491,-1.3682863,2.7138276,12.0967045
1587369588503,-1.6220716,2.6036944,12.4869585
1587369588513,-1.6579847,2.3307555,12.799402
1587369588525,-1.5310919,1.8950106,13.044808
1587369588535,-1.0247183,1.2593501,13.31655
1587369588548,0.061052144,0.37708676,13.332112
1587369588558,0.30166942,0.5662287,12.933477
1587369588568,0.21068975,1.1815386,12.386402
1587369588580,-0.10534488,1.982399,12.042834
1587369588589,-0.62728083,2.6970682,12.275072
1587369588601,-1.1755531,3.1794999,12.677298
1587369588610,-1.7537527,2.1763294,12.492945
1587369588622,-1.5610195,0.7733272,12.058397
1587369588632,-1.2162545,-0.5351041,11.427525
1587369588644,-0.81881696,-1.5310919,10.599131
1587369588654,-0.2896984,-2.3080103,9.701305
1587369588666,0.11731588,-2.5881321,8.870518
1587369588677,0.23822308,-2.2828712,8.2276745
1587369588687,0.32920274,-1.3443443,7.797915
1587369588699,0.5398925,1.0031705,7.7967176
1587369588709,0.5518635,1.9093759,8.024167
1587369588721,0.5374983,2.5941176,8.239645
1587369588731,0.51355624,2.9508536,8.368932
1587369588743,0.48482585,3.0262709,8.342596
1587369588754,0.32321724,2.9975405,8.294712
1587369588764,0.07182605,2.7569232,8.304289
1587369588775,-0.10654198,2.3930047,8.407239
1587369588788,-0.2681506,1.5813702,8.392874
1587369588798,-0.29688102,1.1791444,8.184579
1587369588808,-0.29688102,1.1791444,8.184579
1587369588820,-0.37708676,0.80684596,7.6387005
1587369588829,-0.4333505,0.8571242,7.0186024
1587369588840,-0.5626374,1.1695676,6.7372837
1587369588852,-0.60094464,1.3335704,6.603208
1587369588862,-0.62129533,1.4736311,6.6307416
1587369588874,-0.59256494,1.5275006,6.801927
1587369588884,-0.5327099,1.5310919,7.0365586
1587369588898,-0.4165911,1.7381904,7.5932107
1587369588908,-0.41180268,1.9596541,7.8039002
1587369588918,-0.41180268,1.9596541,7.8039002
1587369588928,-0.4201824,2.6611552,7.9463553
1587369588940,-0.3854665,2.8754363,8.042124
1587369588950,-0.39025488,2.956839,8.085219
1587369588962,-0.45130703,2.9053638,8.189367
1587369588972,-0.51116204,2.7808652,8.264784
1587369588984,-0.6440403,2.6599581,8.406042
1587369588994,-0.80205756,2.528277,8.492233
1587369589006,-1.0163386,2.456451,8.847773
1587369589016,-1.2473791,2.4887726,9.28232
1587369589029,-1.6053122,2.4552538,10.21127
1587369589039,-1.6998832,2.4229321,10.790668
1587369589051,-1.7381904,2.3008277,11.285069
1587369589062,-1.6807296,2.0494366,12.077551
1587369589071,-1.5286977,1.8710686,12.440272
1587369589084,-1.364695,1.5777789,12.659342
1587369589093,-1.1587936,1.2054806,12.713211
1587369589105,-0.93732995,0.79607207,12.779052
1587369589118,-0.9600749,0.7577648,12.061988
1587369589128,-1.1061212,1.1085154,11.258734
1587369589138,-1.1061212,1.1085154,11.258734
1587369589150,-1.1348516,2.5127146,9.896433
1587369589159,-1.5861586,3.514688,10.048465
1587369589171,-2.1045034,4.223372,11.077971
1587369589181,-2.2230163,3.8402996,12.483368
1587369589193,-2.1332338,2.7126305,13.717579
1587369589203,-1.8866309,1.2378023,14.535198
1587369589215,-1.3359646,-0.29209262,14.894329
1587369589225,-0.78050977,-1.6555905,14.793773
1587369589237,-0.38187516,-2.4983494,14.273033
1587369589247,-0.142455,-2.8754363,13.43626
1587369589259,-0.36272156,-1.9141643,10.977415
1587369589267,-0.36272156,-1.9141643,10.977415
1587369589279,-0.7038953,0.60453594,7.896077
1587369589291,-0.6943185,1.5394717,7.5189905
1587369589301,-0.6799533,2.2613235,7.538144
1587369589313,-0.6775591,2.6898856,7.5908165
1587369589323,-0.7422025,2.7246015,7.5680714
1587369589334,-0.8583213,2.4229321,7.6363063
1587369589345,-0.8822633,1.8339585,7.839813
1587369589356,-0.78529817,1.163582,8.043321
1587369589368,-0.61411273,0.3184288,7.9475527
1587369589375,-0.61411273,0.3184288,7.9475527
1587369589385,-0.59855044,0.29688102,7.6470804
1587369589396,-0.61650693,0.44651863,7.3442135
1587369589408,-0.5506664,0.89303726,6.9371996
1587369589419,-0.5470751,1.0522517,6.841431
1587369589431,-0.5530606,1.1049241,6.8246717
1587369589443,-0.5758055,1.2425907,6.71813
1587369589455,-0.62608373,1.3192052,6.5241995
1587369589465,-0.5793968,1.3970166,6.3913217
1587369589478,-0.50517654,1.5095441,6.2620344
1587369589483,-0.4441244,1.7058687,6.233304
1587369589497,-0.5470751,2.7940333,6.64391
1587369589510,-0.6607997,3.1316159,7.03177
1587369589520,-0.830788,3.2321723,7.37055
1587369589530,-0.9900024,3.0214825,7.6147585
1587369589542,-1.0893618,2.6396074,7.680599
1587369589552,-1.1240777,2.2493525,7.831434
1587369589564,-1.0785879,1.934515,8.271967
1587369589574,-1.091756,1.7549498,8.9519205
1587369589586,-1.1372458,1.6376339,9.628283
1587369589596,-1.1216835,1.602918,10.236409
1587369589606,-1.1300632,1.6759412,10.876859
1587369589618,-1.1372458,1.6962919,12.083536
1587369589628,-1.1372458,1.4987702,12.533646
1587369589641,-1.1085154,1.1563994,12.806585
1587369589650,-0.89662856,0.58298814,12.984953
1587369589662,-0.4429273,-0.051475335,13.102269
1587369589673,0.076614454,-0.50757074,13.285425
1587369589683,0.48362875,-0.58418524,13.589489
1587369589695,0.7469909,-0.31364042,14.153323
1587369589704,0.6560113,0.37110126,14.304158
1587369589716,0.17118542,1.1695676,14.178462
1587369589726,-1.0247183,1.8555063,14.039598
1587369589738,-1.400608,0.4261679,13.581109
1587369589748,-1.400608,0.4261679,13.581109
1587369589760,-0.9983821,-1.8614918,12.257115
1587369589770,-0.80086046,-2.861071,11.224017
1587369589783,-0.7757214,-3.4680011,10.226832
1587369589793,-0.8319851,-3.4931402,9.460688
1587369589802,-0.94211835,-2.9472623,8.845378
1587369589816,-1.1025299,-1.9919758,8.414422
1587369589826,-1.0570401,-0.90261406,8.329428
1587369589836,-0.8475474,0.18555063,8.62152
1587369589849,-0.39025488,1.7741034,9.069236
1587369589860,-0.30166942,2.1284454,9.259575
1587369589870,-0.23343466,2.1284454,9.349358
1587369589880,-0.19991584,1.9668367,9.502586
1587369589892,-0.272939,1.7932571,9.628283
1587369589902,-0.37110126,1.7154455,9.707291
1587369589914,-0.4249708,1.6675615,9.755175
1587369589923,-0.439336,1.6591818,9.557653
1587369589935,-0.41180268,1.5993267,9.192537
1587369589946,-0.40462008,1.5885528,8.087613
1587369589956,-0.35553896,1.5382746,7.3609734
1587369589969,-0.094570965,1.6400281,6.1423244
1587369589980,-0.017956512,1.7944542,5.7496753
1587369589990,0.033518825,1.99437,5.5868697
1587369590000,-0.06584055,2.2457612,5.554548
1587369590012,-0.24660277,2.5067291,5.7963624
1587369590022,-0.39624038,2.6850972,6.290765
1587369590034,-0.47285482,2.707842,6.859388
1587369590044,-0.50517654,2.6635494,7.3789296
1587369590055,-0.641646,2.7162218,7.6841903
1587369590067,-0.5542577,2.5115175,8.115147
1587369590077,-0.38187516,2.3068132,8.3390045
1587369590089,-0.130484,2.0458453,8.616732
1587369590099,-0.1364695,2.1679497,8.76996
1587369590111,-0.2645593,2.4073699,8.944737
1587369590122,-0.5734113,2.8658595,9.446322
1587369590132,-0.5734113,2.8658595,9.446322
1587369590144,-0.6751649,2.992752,9.776723
1587369590155,-0.78649527,3.132813,10.104729
1587369590165,-0.8858546,3.2573113,10.382456
1587369590178,-1.0474633,3.405752,10.341754
1587369590188,-1.0474633,3.405752,10.341754
1587369590198,-0.8523358,3.3638535,11.161768
1587369590210,-0.78290397,3.38181,12.083536
1587369590221,-0.7457938,3.3135753,12.921507
1587369590231,-0.7134721,3.2082303,13.494918
1587369590242,-0.7026982,3.0897174,13.522451
1587369590251,-0.81043726,3.0621839,13.115437
1587369590262,-0.9564836,3.0873232,12.394782
1587369590274,-1.0163386,3.2154129,11.449073
1587369590285,-0.9995792,3.4320881,10.875661
1587369590296,-1.0151415,3.5853171,10.922348
1587369590307,-0.80804306,3.2944214,11.549629
1587369590318,-0.45250413,1.6244658,12.480973
1587369590328,-0.32441434,0.8678981,12.599486
1587369590339,-0.20590134,0.25498247,12.489353
1587369590350,0.044292733,-0.093373865,12.240356
1587369590359,0.30166942,-0.06703765,11.869255
1587369590369,0.22026655,0.45250413,11.235989
1587369590380,-0.021547815,1.30484,10.336966
1587369590391,-0.24420857,2.6551697,10.152613
1587369590402,-0.23463176,3.040636,9.974244
1587369590413,-0.21068975,3.1292217,9.855731
1587369590423,-0.12569559,2.6982653,9.752781
1587369590434,-0.12569559,2.1080947,9.552865
1587369590445,-0.24660277,1.4927847,9.257181
1587369590456,-0.44532153,0.9983821,8.862138
1587369590466,-0.61171854,0.61530983,8.447941
1587369590478,-0.79966336,0.4177882,7.8793178
1587369590488,-0.89662856,0.21667525,7.04015
1587369590500,-0.93373865,0.39863458,6.5864487
1587369590510,-0.93134445,0.6655881,6.1890116
1587369590522,-0.93613285,0.89423436,5.777209
1587369590532,-0.93373865,1.1049241,5.4264584
1587369590544,-1.0271125,1.4077905,5.118803
1587369590554,-1.1121067,1.6711528,5.129577
1587369590566,-1.0773908,1.8567034,5.425261
1587369590576,-0.93613285,1.8291701,5.7784057
1587369590586,-0.8535329,1.7345991,6.0968347
1587369590599,-0.81163436,1.7788919,6.7839704
1587369590609,-0.93134445,1.9740193,6.919243
1587369590619,-1.0031705,2.2134395,6.991069
1587369590631,-1.186327,2.542642,7.3106947
1587369590641,-1.4041992,2.7210102,7.693767
1587369590653,-1.3623008,2.6396074,8.141483
1587369590663,-1.2497733,2.5246856,8.519767
1587369590675,-1.1444284,2.3834279,8.661025
1587369590683,-1.0977415,2.3068132,8.796297
1587369590695,-1.1348516,2.1811178,9.121908
1587369590707,-1.1013328,2.0027497,9.526528
1587369590717,-0.9828198,1.9680338,9.950302
1587369590729,-0.8631097,2.1751323,10.45069
1587369590739,-0.8822633,2.7605145,11.401189
1587369590751,-1.0067618,3.21661,11.585542
1587369590761,-1.1444284,3.715801,11.785458
1587369590773,-1.3611037,4.1060557,11.894394
1587369590783,-1.5729905,4.1814733,11.993753
1587369590795,-1.4305356,3.6164417,12.200851
1587369590806,-0.7266402,2.469619,12.561179
1587369590816,-0.110133275,1.4664485,13.010092
1587369590829,0.700304,0.5770026,13.38239
1587369590839,0.37948096,1.4520833,13.117831
1587369590849,-0.21428105,2.657564,12.811374
1587369590861,-0.8295909,3.558981,12.648567
1587369590871,-1.2318168,3.6523547,12.310986
1587369590884,-1.2749124,2.8502972,12.00333
1587369590895,-1.0235212,1.4652514,11.828553
1587369590905,-0.736217,0.17597382,11.675324
1587369590917,-0.44532153,-0.65242,11.282676
1587369590930,0.24420857,-1.4173675,10.58716
1587369590940,0.39863458,-0.94211835,10.275913
1587369590949,0.40102878,0.01436521,9.944317
1587369590961,0.32800564,1.1575965,9.714474
1587369590970,0.20111294,2.146402,9.524135
1587369590981,0.01436521,3.0418332,9.362526
1587369590993,-0.29328972,3.691859,9.121908
1587369591004,-0.59855044,3.9947255,8.848969
1587369591013,-0.7721301,3.9695864,8.656237
1587369591024,-0.7745243,3.6260185,8.461109
1587369591035,-0.58897364,3.074155,8.412027
1587369591046,-0.33159694,2.504335,8.41921
1587369591057,0.020350715,1.7082629,7.541735
1587369591069,-0.011971008,1.7010803,7.1023993
1587369591079,-0.04309563,1.6927006,6.8079123
1587369591090,-0.0047884034,1.6867151,6.692991
1587369591101,0.09816227,1.6555905,6.621165
1587369591112,0.23343466,1.661576,6.5684924
1587369591122,0.34356794,1.7836803,6.634333
1587369591133,0.41060558,1.9560628,6.721721
1587369591145,0.4441244,2.172738,6.649895
1587369591154,0.47046062,2.3714569,6.82946
1587369591165,0.51954174,2.5234885,6.92044
1587369591176,0.4237737,2.7150247,6.8905125
1587369591187,0.093373865,2.9604304,6.549339
1587369591198,-0.059855044,2.8874073,6.209362
1587369591209,-0.23822308,2.718616,5.9029045
1587369591220,-0.41180268,2.5222914,5.744887
1587369591229,-0.5566519,2.3786395,5.837064
1587369591240,-0.62608373,2.2852654,6.1926026
1587369591252,-0.59136784,2.2170308,6.7013707
1587369591263,-0.5279215,2.2038627,7.1993647
1587369591273,-0.5530606,2.3523033,7.5668745
1587369591284,-0.93373865,2.8790276,8.111555
1587369591295,-1.2401965,3.144784,8.51019
1587369591306,-1.5239093,3.2716765,8.978256
1587369591317,-1.6986861,3.145981,9.625888
1587369591328,-2.087744,2.846706,10.157401
1587369591336,-2.087744,2.846706,10.157401
1587369591347,-1.863886,2.6420016,10.960655
1587369591358,-1.567005,2.717419,11.73518
1587369591369,-1.0342951,2.645593,12.734758
1587369591380,-0.5554548,2.5031378,13.6170225
1587369591395,-0.08499416,2.4672248,14.02284
1587369591404,0.29688102,2.6312277,14.082694
1587369591415,0.33997664,3.0573955,13.600263
1587369591426,0.053869538,3.5996823,12.951434
1587369591437,-0.25977087,4.098873,12.612655
1587369591446,-0.5626374,4.4005427,12.739547
1587369591456,-0.80325466,4.2544966,13.266272
1587369591468,-0.5770026,2.574964,14.312538
1587369591479,-0.51116204,1.6795325,14.316129
1587369591490,-0.4357447,0.8367735,14.056358
1587369591522,-0.06584055,-0.4345476,11.925519
1587369591546,-0.5793968,0.60573304,10.370484
1587369591628,-0.50158525,0.62488663,8.368932
1587369591630,-0.50158525,0.62488663,8.368932
1587369591635,-0.50158525,0.62488663,8.368932
1587369591646,-0.5542577,0.6548142,8.1079645
1587369591684,-0.50517654,1.0390835,7.2209125
1587369591695,-0.50278234,1.2557588,7.038953
1587369591722,-0.5303157,1.6567876,6.5098343
1587369591733,-0.60693014,1.6077064,6.399701
1587369591744,-0.7398083,1.5394717,6.291962
1587369591755,-0.8583213,1.4987702,6.2871737
1587369591766,-0.8690952,1.4903905,6.361394
1587369591778,-0.8283938,1.6938977,6.7612257
1587369591782,-0.8283938,1.6938977,6.7612257
1587369591794,-0.80684596,1.8471266,6.867768
1587369591810,-0.94810385,2.2038627,7.1754227
1587369591822,-1.055843,2.3307555,7.267599
1587369591832,-1.1001357,2.3463178,7.443573
1587369591844,-1.1899183,2.3690627,7.6746135
1587369591854,-1.3814543,2.4229321,7.7189064
1587369591865,-1.4161704,2.373851,7.8386164
1587369591877,-1.447295,2.3546975,7.9595237
1587369591887,-1.3994108,2.2505496,8.259995
1587369591899,-1.1575965,2.1643584,9.7084875
1587369591907,-1.1575965,2.1643584,9.7084875
1587369591919,-1.459266,2.1763294,11.660959
1587369591931,-1.7034745,2.1200657,12.360066
1587369591941,-1.8064252,1.555034,13.8325
1587369591953,-1.3694834,0.90500826,14.124593
1587369591963,-0.6619968,0.11851298,13.79539
1587369591975,-0.053869538,-0.4333505,13.133393
1587369591985,0.6907272,-0.36391866,12.034455
1587369591997,1.4197617,0.4201824,10.949882
1587369592007,1.9369092,1.8052281,10.648212
1587369592019,1.2725182,4.201824,12.10269
1587369592029,0.4417302,4.212598,13.296199
1587369592041,-0.16160862,3.25372,14.046782
1587369592051,-0.6847417,1.6783354,14.469358
1587369592063,-0.91697925,-0.0023942017,14.355634
1587369592073,-0.7457938,-1.614889,13.498509
1587369592085,-0.44532153,-3.0430303,12.455834
1587369592095,-0.10534488,-3.928885,11.287464
1587369592107,0.272939,-4.3993454,10.075998
1587369592117,0.48362875,-4.189853,8.992621
1587369592129,0.39504328,-1.614889,8.076839
1587369592139,0.48722005,0.009576807,8.553286
1587369592151,0.58418524,1.447295,9.340978
1587369592161,0.5470751,3.2154129,10.427945
1587369592173,0.50517654,3.4021606,10.854114
1587369592183,0.46447513,3.132813,11.171345
1587369592195,0.40342298,2.4995465,11.060015
1587369592205,0.22864626,1.8195933,10.7751045
1587369592217,0.046686932,1.3024458,10.45069
1587369592227,-0.16998832,0.92535895,10.208876
1587369592240,-0.35194764,0.25498247,9.694122
1587369592250,-0.40581718,0.17357962,9.4535055
1587369592260,-0.45489833,0.2705448,9.193734
1587369592272,-0.45130703,0.32920274,8.608353
1587369592282,-0.51116204,0.3878607,7.7847466
1587369592294,-0.62009823,0.4309563,7.0461354
1587369592304,-0.62728083,0.50757074,6.471527
1587369592316,-0.557849,0.6476316,6.0704985
1587369592326,-0.45729253,0.91937345,5.8478374
1587369592338,-0.30166942,1.6160861,5.913678
1587369592346,-0.30166942,1.6160861,5.913678
1587369592358,-0.6907272,2.2397757,6.3781533
1587369592370,-0.79008657,2.2601264,6.799533
1587369592380,-0.8439561,1.9021933,7.603985
1587369592392,-0.81163436,1.804031,7.8505874
1587369592402,-0.8619126,1.8435353,8.275558
1587369592414,-0.93014735,1.7441759,8.780735
1587369592424,-0.8870517,1.4975731,9.132683
1587369592436,-0.81043726,1.283292,9.326612
1587369592447,-0.7529764,1.2677298,9.375694
1587369592456,-0.78410107,1.435324,9.334992
1587369592468,-0.9923966,1.9261353,9.348161
1587369592480,-0.9768343,2.2110453,9.380483
1587369592490,-0.724246,2.5378537,9.606734
1587369592502,-0.5494693,2.9508536,9.967062
1587369592513,-0.48362875,3.3303347,10.408792
1587369592523,-0.47285482,3.5673606,10.943896
1587369592536,-0.581791,3.7098155,11.597513
1587369592547,-0.6488287,3.2680852,13.102269
1587369592556,-0.6488287,3.2680852,13.102269
1587369592570,-0.4297592,2.3523033,13.530831
1587369592580,-0.33518824,2.147599,13.1238165
1587369592589,-0.37708676,1.958457,12.395979
1587369592601,-0.2753332,1.9357121,9.9790325
1587369592612,-0.40102878,2.767697,9.046491
1587369592623,-0.79248077,3.6739025,9.056067
1587369592634,-1.4293385,4.423288,9.890448
1587369592645,-1.7537527,4.333505,11.215638
1587369592657,-1.6555905,3.3566709,12.58991
1587369592667,-1.5705963,2.1296425,13.430274
1587369592678,-0.81642276,-0.2837129,13.412318
1587369592690,-0.32202014,-1.1504139,12.8688345
1587369592700,0.033518825,-1.62686,12.120646
1587369592712,0.089782566,-1.5646108,11.101913
1587369592722,-0.14963761,-0.91219085,9.957485
1587369592734,-0.37828386,0.015562311,9.101558
1587369592744,-0.37708676,0.9564836,8.635885
1587369592756,-0.39743748,1.7812861,8.643068
1587369592767,-0.49320555,2.3307555,8.754398
1587369592777,-0.5686229,2.565387,9.006987
1587369592789,-0.4165911,2.0841527,9.613917
1587369592799,-0.24899697,1.5346833,9.7479925
1587369592811,-0.19153613,1.1133038,9.520543
1587369592821,-0.4177882,0.89543146,8.420407
1587369592833,-0.60932434,0.89662856,7.892486
1587369592843,-0.7302315,0.92057055,7.3669586
1587369592855,-0.79966336,0.89543146,6.933608
1587369592866,-0.85473,0.88944596,6.3769565
1587369592876,-0.91219085,1.0187328,5.935226
1587369592889,-0.9983821,1.3299791,5.827487
1587369592895,-0.9983821,1.3299791,5.827487
1587369592907,-1.0031705,1.5035586,6.0369797
1587369592919,-0.9840169,1.7322049,6.6642604
1587369592931,-0.9660604,1.8950106,7.1945763
1587369592941,-0.94690675,1.9644425,7.5812397
1587369592953,-0.9600749,1.9776106,7.6650367
1587369592964,-0.9923966,1.9871874,7.4687123
1587369592973,-1.079785,2.087744,7.3897038
1587369592986,-1.1827357,2.2720973,7.369353
1587369592995,-1.389834,2.4791958,7.357382
1587369593008,-1.5143325,2.7126305,7.645883
1587369593017,-1.5646108,2.8191724,7.799112
1587369593028,-1.5382746,2.7880478,8.018182
1587369593040,-1.3551182,2.6360161,8.304289
1587369593051,-0.8678981,2.4025815,9.118318
1587369593063,-0.6787562,2.3642743,9.516952
1587369593073,-0.62608373,2.396596,9.810242
1587369593085,-0.6344634,2.4839842,10.0664215
1587369593095,-0.6919243,2.4863784,10.589554
1587369593107,-0.9995792,2.5965118,10.783484
1587369593115,-1.3012487,2.6384103,11.105505
1587369593127,-1.423353,2.6192567,11.713632
1587369593139,-0.89064306,1.8183962,12.434286
1587369593149,-0.4417302,1.1324574,12.510901
1587369593161,0.035913024,0.6476316,12.539632
1587369593171,0.48243165,0.45848963,12.606669
1587369593183,0.8451532,0.6931214,12.915521
1587369593193,0.8738836,1.4173675,13.15135
1587369593205,0.48961425,2.4301147,13.334506
1587369593215,-0.02873042,3.323152,13.6493435
1587369593227,-0.5650316,3.6966474,13.643358
1587369593238,-0.7757214,3.180697,13.196839
1587369593248,-0.4249708,0.8559271,11.903971
1587369593260,-0.11851298,-0.05746084,10.995371
1587369593269,0.557849,-1.1372458,9.296685
1587369593281,0.8343793,-1.1611878,8.589199
1587369593293,0.90740246,-0.60573304,8.340201
1587369593303,0.8607155,0.4225766,8.330625
1587369593315,0.82360536,1.6017209,8.506598
1587369593326,0.6943185,2.5893292,8.669404
1587369593337,-0.19632454,3.7074213,8.823831
1587369593346,-0.19632454,3.7074213,8.823831
1587369593358,-0.62488663,2.682703,9.279925
1587369593369,-0.545878,1.946486,9.555259
1587369593380,-0.5734113,1.4568717,9.629479
1587369593391,-0.6943185,1.1731589,9.469068
1587369593403,-0.7015011,0.92057055,9.209297
1587369593412,-0.5770026,0.7254431,8.76637
1587369593423,-0.4417302,0.8523358,8.34499
1587369593433,-0.47524905,1.2198458,7.896077
1587369593445,-0.6368576,1.6519991,7.347805
1587369593453,-0.7062895,1.9656396,6.9024835
1587369593464,-0.7015011,2.1619642,6.5840545
1587369593475,-0.676362,2.2254105,6.423643
1587369593486,-0.6560113,2.2457612,6.4044895
1587369593497,-0.6452374,2.255338,6.4248405
1587369593508,-0.39025488,2.3630772,7.1885905
1587369593518,-0.35314476,2.4732103,7.487866
1587369593529,-0.3890578,2.5594015,7.642292
1587369593541,-0.5255273,2.6527755,7.7308774
1587369593548,-0.7326257,2.645593,7.72968
1587369593559,-0.94211835,2.4528596,7.73806
1587369593570,-1.0726024,2.1535845,7.7823524
1587369593581,-1.1324574,1.8914193,7.9750857
1587369593592,-1.1707647,1.7549498,8.389283
1587369593620,-1.3982137,1.9859903,9.487024
1587369593625,-1.3982137,1.9859903,9.487024
1587369593632,-1.5466543,2.2649148,9.911995
1587369593641,-1.5969325,2.4600422,10.488997
1587369593649,-1.5490485,2.5893292,11.176133
1587369593664,-1.5059528,2.72939,11.742362
1587369593673,-1.4532804,2.72939,12.08593
1587369593685,-1.3910311,2.707842,12.306197
1587369593694,-1.3299791,2.7234044,12.717999
1587369593705,-1.1875241,2.7569232,13.152547
1587369593715,-0.9840169,2.8287494,13.378799
1587369593726,-0.9804256,3.0250738,12.7335615
1587369593737,-0.93373865,2.9257145,12.320562
1587369593748,-1.3132197,3.3147724,10.510546
1587369593758,-1.5406688,3.5625722,10.262746
1587369593770,-1.816002,3.550601,10.949882
1587369593780,-1.6424223,2.9724014,12.29662
1587369593792,-1.4341269,2.2050598,13.67568
1587369593802,-1.3215994,1.3814543,14.545973
1587369593814,-1.1492168,0.61530983,15.149311
1587369593824,-0.89902276,-0.06823475,15.09185
1587369593836,-0.6380547,-0.6907272,14.53041
1587369593847,-0.3854665,-0.9660604,13.459004
1587369593857,-0.38187516,-0.7613561,11.884817
1587369593869,-0.5434838,0.4429273,8.763975
1587369593877,-0.5434838,0.4429273,8.763975
1587369593889,-0.59974754,1.8375498,6.8306575
1587369593901,-0.676362,2.4528596,6.576872
1587369593911,-0.7338228,2.815581,6.692991
1587369593923,-0.7326257,2.859874,7.141904
1587369593934,-0.6380547,2.5031378,8.408437
1587369593944,-0.4333505,1.5466543,8.756793
1587369593956,-0.48123455,1.2725182,8.862138
1587369593966,-0.51355624,1.1216835,8.813056
1587369593979,-0.60693014,0.8810662,8.136695
1587369593984,-0.60693014,0.8810662,8.136695
1587369593998,-0.6679823,0.94092125,7.001843
1587369594011,-0.6404489,1.1372458,6.5804634
1587369594020,-0.58777654,1.3515269,6.257246
1587369594033,-0.533907,1.590947,6.063316
1587369594043,-0.44532153,1.7477672,5.920861
1587369594053,-0.4261679,1.8722657,5.7987566
1587369594065,-0.50278234,1.8950106,5.7269306
1587369594075,-0.676362,1.8662802,5.5820813
1587369594087,-0.7781156,1.7561469,5.568913
1587369594095,-0.81163436,1.6376339,5.7903767
1587369594107,-0.78050977,1.567005,6.242881
1587369594119,-0.7302315,1.6124948,7.1227503
1587369594129,-0.6356605,1.614889,7.392098
1587369594141,-0.62967503,1.780089,7.632715
1587369594151,-0.62847793,2.0350714,8.11395
1587369594163,-0.78529817,2.3355439,8.288726
1587369594173,-0.8559271,2.3714569,8.4587145
1587369594185,-0.9744401,2.303222,8.628703
1587369594195,-1.0773908,2.1021092,8.901642
1587369594206,-1.1587936,1.9524715,9.215282
1587369594219,-1.2210429,1.7154455,10.214862
1587369594229,-1.2761095,1.8291701,10.758346
1587369594239,-1.4030021,2.0602105,11.401189
1587369594251,-1.6472107,2.3175871,12.13142
1587369594261,-1.9021933,2.4037786,12.965799
1587369594272,-1.816002,1.9955671,13.699622
1587369594283,-1.340753,1.1683705,14.182054
1587369594295,-0.6739678,0.30166942,14.425065
1587369594304,-0.010773907,-0.33039984,14.501679
1587369594317,0.58538234,-0.5303157,14.4454155
1587369594326,0.90381116,-0.30765492,14.062344
1587369594336,0.5710171,0.5793968,13.413515
1587369594348,-1.0833763,2.3451207,12.577939
1587369594358,-1.508347,2.2637177,12.093113
1587369594369,-1.543063,1.6496049,11.652579
1587369594381,-1.0450691,0.21308395,11.164163
1587369594393,-0.7350199,-0.3184288,10.742783
1587369594405,-0.4429273,-0.7026982,10.113108
1587369594416,-0.20949265,-0.8451532,9.476251
1587369594427,-0.12090719,-0.6895301,9.004593
1587369594437,-0.025139118,-0.2861071,8.9124155
1587369594449,0.10654198,1.1168951,9.266758
1587369594459,0.1364695,1.8375498,9.351752
1587369594471,0.08379706,2.4073699,9.32781
1587369594481,0.074220255,2.7808652,9.224859
1587369594493,0.077811554,3.0142999,9.131485
1587369594503,0.019153614,3.0789435,8.9124155
1587369594515,0.05865794,2.8514943,8.846576
1587369594525,0.08259996,2.4480712,8.614338
1587369594537,0.051475335,2.0242975,8.300697
1587369594548,-0.1376666,1.7034745,8.209718
1587369594558,-0.20470424,1.6723499,8.276755
1587369594570,-0.23702596,1.685518,8.24204
1587369594580,-0.24420857,1.769315,8.043321
1587369594591,-0.2621651,1.9656396,7.856573
1587369594604,-0.31603462,2.1894975,7.7847466
1587369594614,-0.17477672,1.982399,7.615956
1587369594624,-0.06464344,1.7992426,7.3765354
1587369594636,-0.08499416,1.8710686,7.285556
1587369594644,-0.22984336,2.0494366,7.338228
1587369594655,-0.33877954,2.1679497,7.3909006
1587369594667,-0.4165911,2.2110453,7.386112
1587369594678,-0.58777654,2.2996306,7.4375877
1587369594689,-0.79487497,2.433706,7.5944076
1587369594701,-0.9923966,2.3870192,7.8589673
1587369594710,-1.1085154,2.2613235,8.206126
1587369594721,-1.1971009,2.1547816,8.523358
1587369594732,-1.3431472,2.134431,8.816648
1587369594743,-1.4293385,2.2505496,9.204509
1587369594754,-1.4772224,2.3439236,9.598354
1587369594765,-1.4784195,2.3930047,9.878476
1587369594774,-1.4425066,2.4492683,10.149021
1587369594786,-1.4999673,2.5342624,10.392033
1587369594799,-1.4820108,2.7222073,10.893618
1587369594808,-1.5119383,2.7473464,11.068395
1587369594820,-1.496376,2.754529,11.409568
1587369594830,-1.352724,2.5605986,12.170924
1587369594842,-1.2318168,2.3403323,12.135012
1587369594852,-1.3479356,2.3834279,11.903971
1587369594864,-1.5502456,2.5570073,11.474212
1587369594874,-1.6651673,2.6659436,10.907983
1587369594886,-1.6496049,2.6024973,10.400413
1587369594897,-1.6316484,2.6013002,10.042479
1587369594907,-1.5394717,2.5342624,10.376471
1587369594919,-0.8571242,1.9632454,12.125435
1587369594929,-0.7433996,1.7812861,12.989741
1587369594941,-0.46686932,1.4101849,13.614628
1587369594951,-0.08259996,0.9552865,14.158112
1587369594963,0.2669535,0.38187516,14.458584
1587369594971,0.61650693,-0.08259996,14.29099
1587369594983,0.5746084,-0.062249243,13.5296335
1587369594995,0.16280572,0.4261679,12.302606
1587369595006,-0.044292733,0.85473,10.96664
1587369595016,-0.20709845,1.163582,9.637859
1587369595028,-0.533907,1.7130513,8.095993
1587369595038,-0.62728083,1.7525556,7.7548194
1587369595050,-0.6787562,1.3204023,7.837419
1587369595060,-0.6775591,0.92416185,8.130709
1587369595073,-0.61890113,0.5255273,8.494628
1587369595078,-0.60214174,0.29209262,8.780735
1587369595093,-0.59615624,0.19512744,8.876503
1587369595103,-0.6380547,0.24061728,8.929175
1587369595115,-0.62249243,0.29688102,8.718486
1587369595125,-0.59615624,0.44891283,8.421604
1587369595137,-0.50996494,0.60932434,8.11395
1587369595147,-0.32680854,0.7206547,7.7691846
1587369595159,-0.21547815,0.91458505,6.9288197
1587369595169,-0.23223756,1.0522517,6.6774287
1587369595181,-0.25857377,1.1815386,6.5218053
1587369595189,-0.33518824,1.2641385,6.51582
1587369595201,-0.33877954,1.3443443,6.8079123
1587369595214,-0.33518824,1.5023615,6.968324
1587369595224,-0.46327803,1.6316484,7.135918
1587369595234,-0.5770026,1.6484078,7.217321
1587369595246,-0.5674258,1.5095441,7.4830775
1587369595255,-0.688333,1.6340426,7.3729444
1587369595267,-1.186327,1.8974048,7.2544312
1587369595280,-1.6496049,2.7736826,7.1167645
1587369595290,-1.9177556,2.8862102,7.0940194
1587369595302,-2.19668,2.9041667,7.241263
1587369595312,-2.349909,2.7688942,7.5692687
1587369595324,-2.2936451,2.566584,8.153454
1587369595334,-2.2290018,2.4612393,8.981848
1587369595347,-2.2158337,2.4827871,9.773131
1587369595357,-2.3391352,2.6001031,10.465055
1587369595367,-2.540248,2.7868507,11.218032
1587369595379,-2.825158,2.4827871,13.251906
1587369595390,-2.6599581,1.8531121,14.161703
1587369595401,-2.2457612,1.021127,14.414291
1587369595410,-1.5921441,0.16280572,14.246697
1587369595422,-1.0773908,-0.36631286,13.734338
1587369595434,-0.59495914,-0.4189853,13.037625
1587369595443,-0.31244332,0.062249243,12.209231
1587369595454,-0.36750996,0.91937345,11.605893
1587369595465,-0.7410054,1.9201498,11.383232
1587369595476,-1.4544775,2.9137435,11.439496
1587369595487,-2.2278047,3.5350387,11.593922
1587369595498,-2.60968,1.174356,11.610682
1587369595510,-2.1021092,-0.19871874,11.331757
1587369595518,-1.4879963,-1.2509704,10.922348
1587369595530,-0.8810662,-1.9405005,10.6158905
1587369595543,-0.2813187,-2.1679497,10.389638
1587369595553,0.19393034,-1.8626889,10.060435
1587369595563,0.41060558,-0.9911995,9.838972
1587369595575,0.47764325,0.21308395,9.731233
1587369595585,0.5243302,1.460463,9.704897
1587369595597,0.5590461,2.4588451,9.722853
1587369595607,0.5482722,3.016694,9.654618
1587369595619,0.23702596,3.0083144,9.106346
1587369595627,0.23702596,3.0083144,9.106346
1587369595639,-0.22744916,1.9309237,8.292317
1587369595651,-0.2885013,1.412579,8.08881
1587369595661,-0.34596214,1.127669,7.7691846
1587369595675,-0.2633622,0.8511387,7.6710224
1587369595685,-0.260968,0.7529764,7.5441294
1587369595695,-0.2621651,0.6871359,7.3992805
1587369595705,-0.18315643,0.6787562,7.3166804
1587369595716,-0.005985504,0.9624691,7.193379
1587369595728,0.3854665,1.3251907,7.037756
1587369595735,0.3854665,1.3251907,7.037756
1587369595746,0.4141969,1.5658079,6.885724
1587369595757,0.40581718,1.8219875,6.7564373
1587369595768,0.11731588,2.2050598,6.5816603
1587369595778,-0.06464344,2.2780828,6.637924
1587369595789,-0.21188685,2.291251,6.801927
1587369595801,-0.34356794,2.243367,6.9647326
1587369595813,-0.56982,2.2098482,7.129933
1587369595825,-0.7398083,2.0709844,7.349002
1587369595838,-0.9935937,1.6424223,8.026561
1587369595844,-0.9935937,1.6424223,8.026561
1587369595856,-1.2629414,1.3599066,8.184579
1587369595868,-1.6627731,0.8379706,8.680179
1587369595880,-1.8016368,0.7026982,9.010578
1587369595892,-1.8842367,0.6679823,9.295488
1587369595902,-1.9357121,0.80445176,9.637859
1587369595912,-1.946486,1.0989386,9.989806
1587369595924,-1.9057846,1.4556746,10.28549
1587369595934,-1.6699557,2.1284454,11.265916
1587369595946,-1.5298948,2.3475149,11.585542
1587369595954,-1.4676456,2.5474305,12.112267
1587369595966,-1.340753,2.730587,12.678495
1587369595978,-1.1563994,2.8299465,13.29141
1587369595988,-1.115698,2.8407204,14.065935
1587369596000,-1.1228806,2.730587,13.971364
1587369596010,-1.2042835,2.6719291,13.609839
1587369596023,-1.2808979,2.6312277,13.010092
1587369596033,-1.2366052,2.4600422,12.315774
1587369596042,-1.1145009,2.2230163,11.785458
1587369596054,-1.0319009,2.0219033,11.651382
1587369596061,-0.973243,1.7824832,11.725603
1587369596072,-0.9744401,1.5406688,11.963826
1587369596083,-0.9911995,1.3395559,12.248735
1587369596095,-0.9564836,1.2066777,12.457031
1587369596107,-0.9744401,1.1839328,12.480973
1587369596119,-1.1899183,1.0893618,11.669339
1587369596128,-1.1899183,1.0893618,11.669339
1587369596141,-1.2916719,1.0223241,10.512939
1587369596152,-1.0761937,0.70509243,9.436746
1587369596161,-0.8702923,0.5267244,8.992621
1587369596176,-0.6500258,0.45729253,8.730456
1587369596184,-0.5710171,0.58657944,8.590396
1587369596196,-0.6380547,0.79607207,8.623915
1587369596206,-0.6464345,0.9516952,8.893262
1587369596218,-0.7206547,1.2126632,9.506178
1587369596227,-0.7206547,1.2126632,9.506178
1587369596239,-0.7493851,1.0043676,9.488221
1587369596251,-0.7565677,0.79487497,9.114726
1587369596261,-0.7457938,0.63087213,8.462306
1587369596273,-0.6607997,0.56982,7.835025
1587369596280,-0.5674258,0.5781997,7.1634517
1587369596292,-0.5327099,0.5554548,6.4308257
1587369596305,-0.49559975,0.63087213,6.0022635
1587369596315,-0.4417302,0.7661445,5.6539073
1587369596327,-0.5398925,1.0953473,5.7484784
1587369596337,-0.5638345,1.3694834,5.9986725
1587369596349,-0.38067806,1.6101006,6.7983356
1587369596359,-0.33997664,1.6807296,7.1670427
1587369596371,-0.641646,1.7776948,7.3537903
1587369596382,-0.79128367,1.8327614,7.062895
1587369596392,-1.0235212,1.9440918,6.787562
1587369596404,-1.2785037,2.054225,6.56131
1587369596414,-1.4161704,2.1751323,6.5122285
1587369596426,-1.5622166,2.2385786,6.5098343
1587369596436,-1.6077064,2.3259668,6.645107
1587369596448,-1.7154455,2.3451207,7.371747
1587369596458,-1.62686,2.171541,7.964312
1587369596472,-1.4149733,1.8938135,8.797494
1587369596481,-1.2138603,1.5813702,9.750386
1587369596491,-1.0881647,1.3036429,10.55005
1587369596504,-1.0869676,1.0606314,11.227609
1587369596514,-1.1180922,0.91338795,11.640609
1587369596524,-1.3670892,1.1025299,11.742362
1587369596537,-1.673547,1.3491327,11.687296
1587369596547,-1.9524715,1.5047557,11.835736
1587369596557,-2.1176715,1.5275006,12.079945
1587369596570,-1.2641385,0.65242,12.349293
1587369596580,-0.59855044,0.05746084,12.491747
1587369596590,0.34596214,-0.15203181,12.518084
1587369596602,0.51355624,0.7445967,12.609063
1587369596610,0.4237737,1.8136078,12.929886
1587369596623,0.11971009,2.8395233,13.329718
1587369596633,-0.24420857,3.3638535,13.478158
1587369596645,-0.45370123,3.0250738,13.304579
1587369596655,-0.39264908,1.887828,12.700043
1587369596668,-0.17357962,0.6344634,11.988965
1587369596677,0.050278235,-0.35793316,11.025299
1587369596689,0.4381389,-1.6472107,9.665392
1587369596700,0.5351041,-1.7645266,9.3182335
1587369596710,0.5279215,-1.4030021,9.126697
1587369596729,0.37110126,0.6500258,9.279925
1587369596733,0.37110126,0.6500258,9.279925
1587369596742,0.31244332,1.6915035,9.277532
1587369596754,0.20949265,2.360683,9.096769
1587369596765,0.04070143,2.6324248,8.900445
1587369596777,-0.20590134,2.5318682,8.682572
1587369596786,-0.36152446,2.171541,8.7292595
1587369596798,-0.45848963,1.2509704,9.062054
1587369596809,-0.59256494,1.0498575,9.109938
1587369596819,-0.81043726,0.9959879,8.872911
1587369596830,-0.7529764,0.92655605,8.582016
1587369596841,-0.5542577,0.8738836,8.22528
1587369596853,-0.35553896,1.0175357,7.7691846
1587369596863,-0.33758244,1.3204023,7.285556
1587369596876,-0.37349546,1.6543933,6.7708025
1587369596886,-0.36511576,1.9536686,6.3470287
1587369596897,-0.32202014,2.1200657,6.0345855
1587369596908,-0.2681506,2.4911668,5.911284
1587369596918,-0.2669535,2.730587,6.147113
1587369596929,-0.15442601,2.846706,6.539762
1587369596940,-0.03232172,2.8502972,6.953959
1587369596950,-0.03232172,2.8694508,7.4148426
1587369596962,-0.18674773,2.861071,7.9331875
1587369596973,-0.32561144,2.7509377,8.543709
1587369596983,-0.4381389,2.5318682,9.036914
1587369596995,-0.5710171,2.3223755,9.358934
1587369597005,-0.7505822,2.207454,9.563639
1587369597018,-0.92296475,2.1859062,9.636662
1587369597027,-1.0749966,2.1930888,9.51336
1587369597039,-1.5251064,2.1452048,8.917204
1587369597048,-1.5251064,2.1452048,8.917204
1587369597059,-2.0362685,1.7621324,9.252393
1587369597071,-2.280477,1.4664485,9.977836
1587369597082,-2.4756045,1.1911154,11.054029
1587369597092,-2.4037786,0.81881696,12.476185
1587369597104,-2.2170308,0.41299978,13.759478
1587369597114,-1.8950106,0.06584055,14.896723
1587369597126,-1.4101849,-0.088585466,15.452178
1587369597136,-1.0342951,0.051475335,15.411476
1587369597149,-1.174356,1.401805,13.605051
1587369597155,-1.174356,1.401805,13.605051
1587369597168,-1.5933412,2.3295584,12.65575
1587369597180,-1.9081788,2.3894134,13.087904
1587369597190,-1.9141643,1.8602947,13.860034
1587369597202,-1.8076223,1.0079589,14.3975315
1587369597212,-1.673547,0.18195933,14.557943
1587369597224,-1.460463,-0.50637364,14.140155
1587369597234,-1.1061212,-1.1623849,13.444639
1587369597245,-0.7721301,-1.496376,12.644977
1587369597257,-0.5638345,-1.5394717,11.18571
1587369597266,-0.6895301,-0.50038815,10.526108
1587369597277,-0.7398083,0.130484,10.155006
1587369597289,-0.6895301,0.8367735,10.084377
1587369597299,-0.62249243,0.8379706,10.064027
1587369597311,-0.5518635,0.7218518,9.969456
1587369597321,-0.50158525,0.581791,9.727641
1587369597334,-0.48841715,0.46567222,9.382876
1587369597343,-0.51834464,0.4165911,8.9842415
1587369597355,-0.49440265,0.41180268,8.65863
1587369597366,-0.49440265,0.5315128,8.176199
1587369597376,-0.45848963,0.6500258,7.6255326
1587369597388,-0.31364042,0.9935937,6.670246
1587369597399,-0.24061728,1.2378023,6.362591
1587369597409,-0.22625206,1.5035586,6.054936
1587369597420,-0.17717093,1.7417817,5.9448028
1587369597433,-0.1376666,1.9680338,5.9244523
1587369597443,-0.1604115,2.2098482,6.0202203
1587369597453,-0.24181437,2.36188,6.2404866
1587369597466,-0.30286652,2.4037786,6.409278
1587369597476,-0.32202014,2.397793,6.4607534
1587369597488,-0.5422867,2.2888567,6.327875
1587369597498,-0.7493851,2.255338,6.1279593
1587369597510,-0.79966336,2.2373815,6.0824695
1587369597520,-0.91937345,2.3175871,5.9867015
1587369597532,-1.0187328,2.3786395,6.143522
1587369597542,-1.0271125,2.493561,6.579266
1587369597554,-0.9995792,2.60968,7.2472486
1587369597564,-0.94211835,2.6192567,8.080431
1587369597576,-0.8631097,2.445677,9.024943
1587369597586,-0.90740246,2.3403323,9.816227
1587369597598,-1.043872,2.1152773,11.042058
1587369597608,-0.9828198,1.8567034,11.568783
1587369597620,-0.90261406,1.6304513,11.944673
1587369597631,-0.91697925,1.4796166,11.892
1587369597641,-1.0354922,1.4341269,11.473015
1587369597653,-1.2916719,1.4341269,10.93791
1587369597663,-1.5741876,1.400608,10.688913
1587369597675,-1.7046716,1.1288661,10.573992
1587369597686,-1.496376,0.581791,10.471041
1587369597697,-0.4249708,-0.011971008,11.031284
1587369597707,-0.020350715,-0.49200845,11.57836
1587369597719,0.5626374,-0.05865794,12.553997
1587369597729,0.36750996,0.6703765,12.964602
1587369597741,-0.11851298,1.5215151,13.237541
1587369597751,-0.6919243,2.0614076,13.31655
1587369597763,-0.9900024,2.007538,13.055582
1587369597773,-1.0079589,1.3096284,12.433089
1587369597785,-0.92176765,0.35793316,11.751939
1587369597795,-0.7422025,-0.49200845,10.940305
1587369597807,-0.41180268,-1.2473791,9.941922
1587369597815,-0.11731588,-1.7082629,8.972271
1587369597827,0.093373865,-1.7812861,8.261193
1587369597838,0.36032736,-0.94211835,8.080431
1587369597849,0.4321534,-0.06464344,8.568848
1587369597861,0.5398925,0.90021986,9.062054
1587369597870,0.58418524,1.8806454,9.5492735
1587369597881,0.5303157,2.6635494,9.689334
1587369597892,0.320823,3.0765493,9.431957
1587369597905,0.038307227,3.0669725,8.971074
1587369597915,-0.3196259,1.8674773,8.321048
1587369597927,-0.19153613,1.1049241,8.431181
1587369597938,-0.21068975,0.6679823,9.175778
1587369597948,-0.25258827,0.8535329,9.621099
1587369597960,-0.22146365,1.0965444,9.865308
1587369597970,-0.009576807,1.2808979,9.838972
1587369597982,0.055066638,1.5813702,9.42238
1587369597992,-0.005985504,1.8698715,8.78672
1587369598004,-0.05267244,2.0721815,8.061277
1587369598014,-0.06464344,2.1308396,7.417237
1587369598026,-0.061052144,2.1308396,6.9886746
1587369598034,-0.12210429,2.1787236,6.7767878
1587369598047,-0.1448492,2.1894975,6.740875
1587369598057,-0.11611878,2.2110453,6.8402343
1587369598069,-0.10175357,2.2888567,7.0341644
1587369598080,-0.29927522,2.4301147,7.289147
1587369598089,-0.48482585,2.4229321,7.5549035
1587369598101,-0.59017074,2.291251,7.681796
1587369598114,-0.6811504,2.1739352,7.85777
1587369598123,-0.7733272,2.1440077,8.084022
1587369598135,-0.92296475,2.1667526,8.349778
1587369598144,-1.1492168,2.1140802,8.811859
1587369598155,-1.3347675,2.1164744,9.057265
1587369598168,-1.6651673,2.1021092,9.846154
1587369598178,-1.697489,1.9668367,10.344149
1587369598188,-1.697489,1.9668367,10.344149
1587369598200,-1.757344,1.9416976,10.831368
1587369598210,-1.8076223,1.9177556,10.953473
1587369598222,-1.7645266,1.8602947,11.170148
1587369598232,-1.6328455,1.827973,11.498154
1587369598244,-1.3802572,1.8387469,12.176909
1587369598252,-1.0187328,1.7501614,12.824541
1587369598264,-0.62847793,1.673547,13.453019
1587369598276,-0.39504328,1.733402,13.765463
1587369598286,-0.19871874,1.9321208,13.856442
1587369598298,-0.22744916,2.5474305,13.00291
1587369598308,-0.3172317,2.802413,12.276269
1587369598320,-0.39145198,2.979584,11.942278
1587369598330,-0.61650693,3.0992942,12.229582
1587369598341,-0.8295909,2.8048072,13.008895
1587369598354,-0.8762778,2.1021092,14.415488
1587369598360,-0.80804306,0.2753332,14.689625
1587369598372,-0.6344634,-0.6368576,14.466964
1587369598384,-0.39384618,-1.4209588,13.972561
1587369598397,-0.12090719,-1.910573,12.998121
1587369598407,0.06344634,-2.100912,11.781867
1587369598418,-0.09816227,-1.769315,10.431537
1587369598429,-0.4237737,-0.47405192,8.391677
1587369598438,-0.5722142,0.12928689,7.8769236
1587369598450,-0.6536171,0.63087213,7.5644803
1587369598461,-0.6799533,1.0055647,7.4962454
1587369598470,-0.61411273,1.1300632,7.6243353
1587369598481,-0.45848963,0.93972415,7.9343843
1587369598493,-0.24899697,0.61411273,8.276755
1587369598505,-0.07062895,0.4417302,8.504205
1587369598515,0.0011971008,0.50397944,8.597578
1587369598527,-0.073023155,0.7517793,8.568848
1587369598537,-0.21547815,1.0498575,8.461109
1587369598549,-0.38187516,1.3682863,8.202535
1587369598559,-0.36750996,1.4221559,8.141483
1587369598571,-0.35075054,1.400608,8.166622
1587369598579,-0.45729253,1.3491327,7.9391727
1587369598590,-0.49320555,1.3180081,7.7093296
1587369598616,-0.5662287,1.2270284,7.651869
1587369598620,-0.60693014,1.2258313,7.5165963
1587369598627,-0.62129533,1.2066777,7.3669586
1587369598638,-0.63087213,1.2797008,7.3310456
1587369598647,-0.6835446,1.4496891,7.2029557
1587369598657,-0.6835446,1.4496891,7.2029557
1587369598668,-0.80086046,1.8171991,7.0664864
1587369598679,-0.8367735,2.007538,7.1490865
1587369598689,-1.0223241,2.183512,7.0832458
1587369598700,-1.163582,2.2421699,7.2101383
1587369598713,-1.3084313,2.303222,7.539341
1587369598722,-1.4532804,2.3439236,7.943961
1587369598735,-1.3634979,2.1703439,8.392874
1587369598745,-1.3455414,1.8411411,8.762778
1587369598755,-1.2629414,1.4580688,9.1350765
1587369598766,-1.1444284,1.1348516,9.464279
1587369598779,-0.712275,1.1815386,9.872491
1587369598789,-0.6428431,1.5478514,10.0029745
1587369598801,-0.78050977,2.3930047,10.21127
1587369598811,-0.8750807,2.6443958,10.435128
1587369598823,-0.961272,2.6013002,10.815806
1587369598834,-1.1911154,2.6013002,10.945093
1587369598844,-1.2126632,2.1021092,10.915166
1587369598856,-0.94331545,1.1851299,11.058818
1587369598866,-0.5805939,0.24899697,11.324574
1587369598879,0.2657564,-0.61530983,11.920731
1587369598888,0.4225766,-0.28491,12.181698
1587369598900,0.21667525,0.7170634,12.434286
1587369598908,-0.25139117,1.9991584,12.735956
1587369598919,-0.80445176,3.040636,12.915521
1587369598930,-1.2605472,3.4033577,12.98615
1587369598943,-1.4437037,3.016694,12.615048
1587369598952,-1.174356,1.6915035,12.103887
1587369598963,-0.7505822,0.17597382,11.444284
1587369598974,-0.14844051,-1.1216835,10.672154
1587369598985,0.39025488,-2.03148,9.793482
1587369598996,0.7074866,-2.5342624,9.054871
1587369599008,0.8690952,-2.4169466,8.541314
1587369599016,0.7685388,-1.6687586,8.215703
1587369599028,0.2669535,1.8543092,8.974665
1587369599041,0.15203181,2.6060886,9.279925
1587369599051,-0.015562311,2.9388826,9.404425
1587369599061,-0.18195933,2.7138276,9.325416
1587369599073,-0.29328972,2.030283,9.16261
1587369599083,-0.33997664,1.3467385,8.957906
1587369599095,-0.40222588,0.8451532,8.803479
1587369599105,-0.4333505,0.5770026,8.572439
1587369599117,-0.45848963,0.4213795,8.531737
1587369599125,-0.45489833,0.49799395,8.6095495
1587369599137,-0.4441244,0.82719666,8.696938
1587369599149,-0.36870706,1.6496049,8.731653
1587369599160,-0.30286652,1.9560628,8.599973
1587369599169,-0.24420857,2.0829554,8.256405
1587369599181,-0.06943185,2.1523874,7.920019
1587369599194,0.044292733,2.1787236,7.6722193
1587369599204,0.18076223,2.1523874,7.4603324
1587369599214,0.21667525,2.1751323,7.3047094
1587369599226,0.059855044,2.3008277,7.1969705
1587369599234,-0.11971009,2.4049757,7.1634517
1587369599247,-0.30765492,2.5210943,7.3968863
1587369599257,-0.46447513,2.6300306,7.583634
1587369599269,-0.78050977,2.6408045,8.418014
1587369599279,-0.8607155,2.3834279,8.854955
1587369599291,-0.8643068,2.0745757,9.052477
1587369599301,-0.9708488,1.8303672,9.323022
1587369599313,-1.1168951,1.520318,9.89763
1587369599323,-1.0582372,1.1803415,10.506954
1587369599335,-0.94930094,1.0115502,10.776301
1587369599344,-0.91817635,1.1899183,10.807426
1587369599356,-0.94930094,1.7178397,10.771513
1587369599366,-0.94211835,2.2349873,10.825383
1587369599378,-0.93732995,3.0382419,10.582372
1587369599388,-1.0151415,3.3614593,10.451887
1587369599400,-1.0690111,3.6044707,10.518925
1587369599410,-1.1180922,3.6511576,10.825383
1587369599422,-0.9576807,3.3674448,11.502942
1587369599432,-0.8295909,2.9616275,12.291832
1587369599444,-0.8870517,2.6132712,12.873623
1587369599452,-1.0366893,2.3786395,13.146562
1587369599464,-1.2354081,2.2864625,12.671312
1587369599476,-1.4401124,2.2385786,12.063186
1587369599487,-1.389834,2.1332338,11.273099
1587369599497,-1.4089876,2.0566192,10.796653
1587369599509,-1.328782,1.5227122,11.09114
1587369599519,-1.2030864,1.1731589,11.608287
1587369599531,-1.2186487,0.89184016,11.761516
1587369599541,-1.0977415,0.50397944,11.900379
1587369599553,-0.8822633,0.02633622,11.874043
1587369599561,-0.7266402,-0.4369418,11.675324
1587369599573,-0.51475334,-0.7721301,11.389217
1587369599585,-0.46088383,-0.82360536,10.752359
1587369599595,-0.62847793,-0.5590461,9.901221
1587369599607,-0.8535329,-0.1364695,9.054871
1587369599618,-0.91099375,0.2681506,8.49343
1587369599627,-0.973243,0.59017074,8.250419
1587369599639,-0.91697925,0.78529817,8.838196
1587369599651,-0.82719666,0.6607997,9.446322
1587369599661,-0.760159,0.46088383,9.836577
1587369599673,-0.7697359,0.34117374,10.09156
1587369599683,-0.8870517,0.3172317,10.241198
1587369599695,-0.90381116,0.40462008,10.042479
1587369599705,-0.878672,0.46686932,9.594764
1587369599718,-0.8475474,0.5398925,8.9040365
1587369599728,-0.82121116,0.80445176,7.394492
1587369599738,-0.7517793,0.82719666,6.862979
1587369599750,-0.61770403,0.92176765,6.5589156
1587369599760,-0.6619968,1.1324574,6.4260373
1587369599771,-0.7086837,1.2677298,6.4068837
1587369599781,-0.7721301,1.4700398,6.5325794
1587369599794,-0.78529817,1.6591818,6.8198833
1587369599803,-0.7637503,1.8219875,7.1155677
1587369599816,-0.7565677,1.899799,7.3753386
1587369599826,-0.7589619,1.8914193,7.5764513
1587369599837,-0.7062895,1.8531121,7.6590514
1587369599848,-0.6811504,1.8375498,7.8637557
1587369599858,-0.7194576,1.7310078,8.678981
1587369599870,-0.712275,1.5849615,8.874108
1587369599880,-0.7218518,1.5454572,9.00579
1587369599892,-0.80924016,1.567005,9.185355
1587369599902,-0.81522566,1.5310919,9.367314
1587369599914,-0.47884035,1.3467385,9.920375
1587369599927,-0.37588966,1.3215994,10.175357
1587369599937,-0.38067806,1.3491327,10.216059
1587369599948,-0.7422025,1.3180081,10.172963
1587369599957,-0.9792285,1.30484,10.418368
1587369599969,-1.2078748,1.2808979,10.734404
1587369599978,-1.1899183,1.0702082,11.030087
1587369599989,-0.93493575,0.6440403,11.494562
1587369599999,-0.56982,0.18195933,11.900379
1587369600010,-0.11492168,-0.10055647,12.120646
1587369600021,0.17717093,-0.108936176,12.132617
1587369600032,0.33279404,0.2717419,12.182896
1587369600042,0.2741361,1.0582372,12.21402
1587369600053,-0.08499416,1.9405005,12.26789
1587369600064,-0.52073884,2.3810337,12.464214
1587369600075,-0.6835446,2.087744,12.564771
1587369600086,-0.61650693,1.1504139,12.4785795
1587369600097,-0.32441434,0.08379706,12.2319765
1587369600106,-0.023942016,-0.6464345,11.767501
1587369600118,0.7398083,-1.3072342,10.144233
1587369600130,1.0235212,-0.9516952,8.790312
1587369600140,1.0642227,-0.33279404,8.608353
1587369600152,1.0570401,0.45010993,8.759187
1587369600162,1.0103531,1.1803415,9.069236
1587369600174,0.8702923,1.7860745,9.323022
1587369600184,0.6799533,2.1631613,9.507375
1587369600196,0.45968673,2.147599,9.55047
1587369600207,0.29568392,1.8447324,9.563639
1587369600217,0.20709845,1.3862427,9.600749
1587369600229,0.016759412,0.78888947,9.315839
1587369600239,-0.12330139,0.7338228,9.033323
1587369600251,-0.2873042,0.712275,8.723274
1587369600261,-0.4417302,0.7302315,8.3821
1587369600273,-0.5494693,0.70509243,7.98586
1587369600283,-0.61890113,0.7422025,7.7105265
1587369600295,-0.58897364,0.7757214,7.630321
1587369600305,-0.41060558,0.842759,7.6051817
1587369600316,-0.23463176,0.9708488,7.5333557
1587369600326,-0.16400282,1.2521675,7.410054
1587369600337,-0.088585466,1.5490485,7.338228
1587369600348,0.055066638,1.8602947,7.004237
1587369600360,0.0023942017,2.0398598,6.789956
1587369600370,0.05267244,2.0973208,6.861782
1587369600382,0.09935937,2.1499932,6.8929067
1587369600392,0.09816227,2.1679497,7.005434
1587369600404,0.01316811,2.1823149,7.1706343
1587369600414,-0.108936176,2.134431,7.4148426
1587369600426,-0.25378537,1.9895816,7.574057
1587369600456,-0.2621651,1.6101006,8.752005
1587369600468,-0.47285482,1.7944542,9.097966
1587369600480,-0.59136784,2.1188686,9.3182335
1587369600492,-0.7493851,2.421735,9.635465
1587369600504,-0.90141696,2.6180596,10.006566
1587369600516,-1.0007763,2.6396074,10.370484
1587369600520,-1.0929531,2.5629928,10.729615
1587369600526,-1.0929531,2.5629928,10.729615
1587369600535,-1.1192893,2.4708161,11.306618
1587369600543,-1.0426749,2.2720973,12.004527
1587369600560,-0.82360536,1.9033904,13.514071
1587369600568,-0.82360536,1.9033904,13.514071
1587369600578,-0.46567222,1.7381904,13.678074
1587369600590,-0.58657944,1.3227965,12.557588
1587369600599,-0.7398083,1.5945383,11.700463
1587369600611,-1.0307038,2.2134395,11.335348
1587369600623,-1.4544775,2.777274,11.374852
1587369600633,-1.9069817,2.979584,11.868058
1587369600645,-2.0015526,2.5833437,12.593501
1587369600655,-2.2828712,2.0853498,12.77546
1587369600667,-2.4672248,1.210269,13.037625
1587369600677,-2.2517467,0.25737667,12.801797
1587369600689,-1.2892777,-1.2509704,11.906365
1587369600699,-0.8655039,-1.283292,11.808203
1587369600711,-0.6823475,-1.1432313,11.067198
1587369600721,-0.5686229,-0.8331822,10.875661
1587369600733,-0.47285482,-0.3842694,10.751163
1587369600743,-0.5710171,0.17118542,10.674548
1587369600756,-0.7170634,0.60094464,10.563218
1587369600766,-0.8583213,0.82719666,10.387244
1587369600779,-0.8858546,0.770933,9.991004
1587369600789,-0.7074866,0.5518635,9.665392
1587369600799,-0.130484,0.2753332,9.095572
1587369600813,0.061052144,0.30166942,8.810662
1587369600823,0.23463176,0.4405331,8.447941
1587369600833,0.34117374,0.59855044,7.9667063
1587369600843,0.34835634,0.82001406,7.5908165
1587369600855,0.23582886,1.127669,7.380127
1587369600864,0.11731588,1.4197617,7.216124
1587369600877,0.059855044,1.5897499,7.088034
1587369600883,0.047884032,1.6579847,7.144298
1587369600896,-0.025139118,1.6101006,7.1047935
1587369600908,0.031124622,1.4628572,7.3346367
1587369600918,0.17238252,1.3503298,7.383718
1587369600930,0.22864626,1.3934253,7.374141
1587369600940,0.31244332,1.5382746,7.371747
1587369600952,0.33399114,1.7190368,7.4363904
1587369600962,0.35673606,1.8782512,7.5333557
1587369600974,0.2813187,1.8866309,7.678205
1587369600984,0.2645593,1.8255788,7.7201033
1587369600996,0.19632454,1.733402,7.8326306
1587369601006,0.16879122,1.6531962,7.928399
1587369601019,0.4189853,1.2006922,8.14268
1587369601029,0.4189853,1.2006922,8.14268
1587369601039,0.59017074,1.0223241,8.052897
1587369601050,0.6907272,0.9720459,7.8529816
1587369601062,0.8343793,0.8619126,7.7464395
1587369601071,0.9744401,0.7194576,7.825448
1587369601082,1.1707647,0.5506664,8.222886
1587369601095,1.3060371,0.61890113,8.91481
1587369601100,1.2521675,0.92296475,9.716867
