@ HyperIMU -ianovir - 2018
@ Date:Mon Apr 20 09:55:51 GMT+02:00 2020, Sampling Rate:10ms

timestamp,K6DS3TR_Accelerometer.x,K6DS3TR_Accelerometer.y,K6DS3TR_Accelerometer.z
1587369351416,0.0,0.0,0.0
1587369351429,0.676362,2.0278888,9.885659
1587369351438,0.4357447,1.8387469,9.765948
1587369351449,0.16280572,1.7058687,9.77792
1587369351460,-0.005985504,1.6136919,9.715671
1587369351471,0.05865794,1.6340426,9.718064
1587369351482,0.5638345,2.0207062,9.370906
1587369351493,0.5638345,2.0207062,9.370906
1587369351504,0.70509243,2.2936451,9.233239
1587369351515,0.6691794,2.291251,9.271546
1587369351526,0.5650316,2.1787236,9.295488
1587369351535,0.4285621,2.0338743,9.436746
1587369351546,0.24301147,1.8890251,9.579201
1587369351557,0.06943185,1.7705121,9.758766
1587369351568,-0.05626374,1.6651673,9.762358
1587369351579,-0.093373865,1.6112977,9.731233
1587369351590,-0.12210429,1.7262194,9.685743
1587369351602,-0.12449849,1.7525556,9.554062
1587369351613,-0.027533319,1.7788919,9.368511
1587369351624,0.11731588,1.887828,9.367314
1587369351635,0.1604115,2.0458453,9.440337
1587369351644,0.15682021,2.0685902,9.403227
1587369351655,0.24779987,1.8447324,8.939949
1587369351666,0.19393034,1.8483237,9.6845455
1587369351677,0.2705448,1.9129672,10.30225
1587369351688,0.11611878,1.7633295,9.938332
1587369351699,-0.08020575,1.3515269,9.44752
1587369351711,-0.48362875,0.93972415,9.68694
1587369351722,-0.48362875,0.93972415,9.68694
1587369351733,-0.45370123,0.5482722,9.872491
1587369351744,-0.39983168,0.2621651,9.841366
1587369351753,-0.37110126,0.05746084,9.716867
1587369351764,-0.34237084,0.0011971008,9.619903
1587369351775,-0.33997664,0.027533319,9.665392
1587369351786,-0.40821138,0.079008654,9.7324295
1587369351797,-0.45968673,0.1328782,9.803059
1587369351808,-0.51355624,0.2633622,10.105926
1587369351819,-0.51714754,0.37469256,10.0987425
1587369351831,-0.40102878,0.37349546,9.900024
1587369351842,-0.36032736,0.32920274,9.88925
1587369351853,-0.36032736,0.32920274,9.88925
1587369351863,-0.37588966,0.4201824,9.827001
1587369351875,-0.37588966,0.4201824,9.827001
1587369351889,-0.4189853,0.61052144,9.702502
1587369351900,-0.4189853,0.61052144,9.702502
1587369351910,-0.49679685,0.6512229,9.563639
1587369351919,-0.39983168,0.7314286,9.57561
1587369351928,-0.38067806,0.7697359,9.615114
1587369351939,-0.4381389,0.79248077,9.554062
1587369351951,-0.47524905,0.7314286,9.524135
1587369351961,-0.40222588,0.641646,9.606734
1587369351972,-0.40342298,0.6440403,9.645041
1587369351984,-0.41299978,0.6368576,9.715671
1587369351993,-0.38187516,0.59974754,9.738416
1587369352004,-0.38187516,0.59974754,9.738416
1587369352016,-0.39863458,0.7386112,9.713276
1587369352027,-0.4345476,0.79008657,9.775525
1587369352039,-0.47165772,0.7218518,9.797073
1587369352049,-0.41180268,0.62368953,9.722853
1587369352060,-0.49919105,0.6488287,9.7240505
1587369352072,-0.49919105,0.6488287,9.7240505
1587369352080,-0.49440265,0.641646,9.7084875
1587369352091,-0.44651863,0.60333884,9.751583
1587369352102,-0.44651863,0.60333884,9.751583
1587369352113,-0.35194764,0.59017074,9.791088
1587369352125,-0.35673606,0.62368953,9.868899
1587369352136,-0.39983168,0.61770403,9.93474
1587369352147,-0.5674258,0.61770403,9.840169
1587369352158,-0.59974754,0.6356605,9.849746
1587369352169,-0.61530983,0.6428431,9.952697
1587369352181,-0.521936,0.7015011,9.90601
1587369352188,-0.521936,0.7015011,9.90601
1587369352199,-0.51714754,0.7230489,9.810242
1587369352211,-0.51834464,0.712275,9.788693
1587369352223,-0.4429273,0.748188,9.76116
1587369352235,-0.32561144,0.81642276,9.799467
1587369352245,-0.2669535,0.91937345,9.8042555
1587369352257,-0.2681506,0.973243,9.740809
1587369352267,-0.31004912,0.92535895,9.655815
1587369352279,-0.33997664,0.866701,9.618706
1587369352289,-0.320823,0.8774749,9.578004
1587369352302,-0.36032736,0.92535895,9.560047
1587369352312,-0.37828386,0.94211835,9.603143
1587369352322,-0.37828386,0.94211835,9.603143
1587369352334,-0.34237084,0.89423436,9.579201
1587369352345,-0.37349546,0.8451532,9.55047
1587369352355,-0.37349546,0.8451532,9.55047
1587369352367,-0.33877954,0.81163436,9.618706
1587369352377,-0.34356794,0.8403648,9.659407
1587369352389,-0.37828386,0.8331822,9.623494
1587369352398,-0.40102878,0.8283938,9.563639
1587369352412,-0.33399114,0.80445176,9.545682
1587369352422,-0.31483752,0.78769237,9.528923
1587369352432,-0.32321724,0.79008657,9.570822
1587369352444,-0.32561144,0.81043726,9.621099
1587369352454,-0.32561144,0.81043726,9.621099
1587369352466,-0.32920274,0.8726865,9.725247
1587369352476,-0.40462008,0.8750807,9.716867
1587369352488,-0.45130703,0.8355764,9.720459
1587369352498,-0.47405192,0.81402856,9.680955
1587369352511,-0.45729253,0.8319851,9.651027
1587369352516,-0.4189853,0.82001406,9.655815
1587369352531,-0.36391866,0.8726865,9.628283
1587369352541,-0.36391866,0.8451532,9.564836
1587369352553,-0.36391866,0.8451532,9.564836
1587369352564,-0.34356794,0.80205756,9.605537
1587369352574,-0.3184288,0.8391677,9.629479
1587369352587,-0.2873042,0.8810662,9.634268
1587369352596,-0.2777274,0.8643068,9.625888
1587369352607,-0.2825158,0.8331822,9.594764
1587369352619,-0.2813187,0.81881696,9.630676
1587369352626,-0.2705448,0.7769185,9.639056
1587369352637,-0.24899697,0.7793127,9.634268
1587369352648,-0.22026655,0.7673417,9.664195
1587369352659,-0.20231004,0.78170687,9.700109
1587369352670,-0.18794483,0.7793127,9.702502
1587369352681,-0.18315643,0.6739678,9.726444
1587369352694,-0.17717093,0.6799533,9.837775
1587369352705,-0.18435353,0.81163436,9.883265
1587369352717,-0.10654198,0.91338795,9.910798
1587369352727,-0.045489833,0.90021986,9.909601
1587369352739,-0.02873042,0.82001406,9.849746
1587369352750,-0.06584055,0.7565677,9.7803135
1587369352760,-0.11851298,0.7673417,9.652225
1587369352772,-0.14724341,0.8798691,9.600749
1587369352782,-0.14724341,0.8798691,9.600749
1587369352793,-0.12928689,0.91338795,9.591172
1587369352805,-0.17477672,0.90261406,9.555259
1587369352815,-0.22026655,0.79846627,9.55047
1587369352827,-0.20231004,0.7517793,9.557653
1587369352837,-0.20231004,0.7517793,9.557653
1587369352848,-0.12449849,0.7733272,9.66659
1587369352860,-0.10534488,0.79726917,9.689334
1587369352870,-0.074220255,0.8283938,9.706094
1587369352883,-0.05626374,0.8283938,9.694122
1587369352893,-0.11971009,0.7206547,9.707291
1587369352903,-0.11971009,0.7206547,9.707291
1587369352915,-0.10534488,0.7074866,9.710882
1587369352925,-0.093373865,0.7649474,9.76954
1587369352937,-0.1436521,0.81881696,9.78989
1587369352947,-0.18794483,0.8367735,9.737218
1587369352959,-0.20111294,0.81163436,9.722853
1587369352969,-0.20709845,0.7769185,9.76954
1587369352983,-0.21547815,0.7589619,9.813833
1587369352993,-0.18315643,0.82240826,9.817424
1587369353003,-0.18315643,0.82240826,9.817424
1587369353014,-0.19033903,0.7649474,9.85214
1587369353024,-0.21667525,0.79846627,9.874885
1587369353036,-0.21667525,0.79846627,9.874885
1587369353046,-0.1448492,0.80325466,9.7563715
1587369353058,-0.16759412,0.7685388,9.774328
1587369353066,-0.19632454,0.7733272,9.757569
1587369353078,-0.19273324,0.79487497,9.710882
1587369353090,-0.19393034,0.78649527,9.758766
1587369353100,-0.17836803,0.7781156,9.7863
1587369353112,-0.18555063,0.80804306,9.727641
1587369353123,-0.20470424,0.79966336,9.668983
1587369353133,-0.20470424,0.79966336,9.668983
1587369353145,-0.17238252,0.7553706,9.629479
1587369353155,-0.17956513,0.7302315,9.627085
1587369353167,-0.17357962,0.70509243,9.555259
1587369353175,-0.17357962,0.6739678,9.579201
1587369353187,-0.16280572,0.6919243,9.589975
1587369353199,-0.14724341,0.7254431,9.561244
1587369353209,-0.12090719,0.7649474,9.613917
1587369353223,-0.061052144,0.7350199,9.583989
1587369353233,-0.061052144,0.7350199,9.583989
1587369353243,-0.05267244,0.6787562,9.510966
1587369353253,-0.029927522,0.6667852,9.472659
1587369353265,-0.025139118,0.7038953,9.524135
1587369353275,-0.023942016,0.7613561,9.593566
1587369353287,-0.08020575,0.81881696,9.668983
1587369353297,-0.1388637,0.79726917,9.664195
1587369353309,-0.17597382,0.7398083,9.7084875
1587369353319,-0.18315643,0.7326257,9.770737
1587369353332,-0.17238252,0.7445967,9.764751
1587369353341,-0.20590134,0.7637503,9.768343
1587369353353,-0.21667525,0.7565677,9.765948
1587369353363,-0.20709845,0.78170687,9.750386
1587369353375,-0.20949265,0.82240826,9.749189
1587369353385,-0.20949265,0.82240826,9.749189
1587369353397,-0.22505496,0.8619126,9.733627
1587369353407,-0.23223756,0.8499416,9.740809
1587369353419,-0.25857377,0.80804306,9.765948
1587369353429,-0.2753332,0.7781156,9.744401
1587369353441,-0.24181437,0.7733272,9.7958765
1587369353451,-0.24181437,0.7733272,9.7958765
1587369353463,-0.23343466,0.78529817,9.759963
1587369353473,-0.18794483,0.7781156,9.680955
1587369353485,-0.18794483,0.7781156,9.680955
1587369353495,-0.17597382,0.7745243,9.731233
1587369353507,-0.17717093,0.7673417,9.742006
1587369353517,-0.19273324,0.724246,9.715671
1587369353529,-0.17836803,0.6991069,9.66659
1587369353539,-0.17956513,0.6871359,9.652225
1587369353552,-0.17238252,0.6931214,9.710882
1587369353562,-0.16639702,0.8631097,9.676167
1587369353572,-0.1436521,0.79008657,9.648633
1587369353584,-0.1436521,0.79008657,9.648633
1587369353594,-0.24181437,0.7134721,9.683349
1587369353606,-0.23582886,0.82719666,9.66659
1587369353614,-0.20709845,0.89184016,9.606734
1587369353627,-0.19033903,0.89184016,9.589975
1587369353637,-0.15322891,0.8487445,9.628283
1587369353649,-0.1352724,0.8391677,9.615114
1587369353658,-0.12210429,0.8702923,9.585187
1587369353670,-0.12210429,0.90261406,9.601946
1587369353681,-0.11851298,0.92057055,9.648633
1587369353693,-0.16639702,0.93732995,9.635465
1587369353702,-0.19871874,0.90141696,9.679757
1587369353713,-0.20949265,0.90500826,9.745598
1587369353722,-0.19871874,0.92296475,9.7803135
1587369353733,-0.19871874,0.92296475,9.7803135
1587369353744,-0.16280572,0.8798691,9.765948
1587369353756,-0.1592144,0.8343793,9.792285
1587369353768,-0.1592144,0.8343793,9.792285
1587369353778,-0.130484,0.82480246,9.807847
1587369353789,-0.15083471,0.79846627,9.853337
1587369353802,-0.20231004,0.7697359,9.874885
1587369353812,-0.20231004,0.7697359,9.874885
1587369353822,-0.16400282,0.7505822,9.783905
1587369353834,-0.16400282,0.7505822,9.783905
1587369353844,-0.11252748,0.7290344,9.674969
1587369353856,-0.088585466,0.7517793,9.654618
1587369353866,-0.088585466,0.7517793,9.654618
1587369353878,-0.077811554,0.770933,9.540894
1587369353888,-0.10055647,0.6979098,9.490616
1587369353900,-0.09935937,0.6512229,9.479841
1587369353911,-0.077811554,0.6548142,9.488221
1587369353921,0.04309563,0.6811504,9.676167
1587369353934,0.04309563,0.6811504,9.676167
1587369353940,-0.39025488,0.688333,9.792285
1587369353953,-0.25617957,0.6380547,9.949105
1587369353965,-0.25617957,0.6380547,9.949105
1587369353974,-0.11611878,0.2693477,9.719262
1587369353987,-0.31483752,0.51714754,9.995792
1587369353998,-0.50158525,0.8810662,9.883265
1587369354008,-0.4141969,0.8774749,9.613917
1587369354022,-0.36631286,0.5374983,10.049662
1587369354032,-0.36631286,0.5374983,10.049662
1587369354042,-0.58298814,0.7314286,10.096349
1587369354054,-0.58418524,0.62368953,10.047267
1587369354064,-0.58418524,0.62368953,10.047267
1587369354076,-0.47405192,0.37349546,10.107122
1587369354086,-0.35913026,0.29807812,10.192117
1587369354098,-0.31004912,-0.19153613,10.210073
1587369354109,-0.37469256,-0.0047884034,10.2735195
1587369354120,-0.2896984,0.33399114,10.175357
1587369354130,-0.22984336,0.5542577,10.048465
1587369354142,0.074220255,0.61890113,9.983821
1587369354152,-0.046686932,0.062249243,10.129868
1587369354164,-0.046686932,0.062249243,10.129868
1587369354175,-0.12330139,0.40462008,10.156203
1587369354185,-0.12808979,0.7194576,10.056845
1587369354197,-0.1340753,0.7517793,9.981427
1587369354207,-0.17956513,0.6631939,10.022128
1587369354220,-0.33279404,0.49440265,9.208099
1587369354230,-0.62728083,0.45250413,8.529344
1587369354240,-1.0067618,0.1448492,8.765172
1587369354254,-0.8822633,0.22864626,9.11712
1587369354264,-0.8822633,0.22864626,9.11712
1587369354276,-1.2258313,-0.41299978,9.825804
1587369354286,-0.45489833,-0.36870706,9.467871
1587369354299,-0.22266077,-0.008379706,9.43076
1587369354309,-0.30406362,0.19871874,9.767146
1587369354319,-0.22864626,0.04070143,9.982624
1587369354331,-0.03232172,-0.17477672,9.888053
1587369354341,0.21428105,-0.38307226,10.313024
1587369354353,0.31483752,-0.33518824,10.614694
1587369354363,0.31483752,-0.33518824,10.614694
1587369354375,0.30286652,-0.45609543,10.038888
1587369354383,0.20111294,-0.50158525,9.738416
1587369354395,0.24420857,-0.5710171,9.279925
1587369354407,0.35913026,-0.44532153,9.002198
1587369354418,0.2837129,-0.08499416,9.11712
1587369354428,0.34237084,0.074220255,9.132683
1587369354440,0.47884035,-0.034715924,9.5013895
1587369354450,0.48362875,-0.29688102,9.752781
1587369354463,0.35314476,-0.5291186,9.927557
1587369354472,0.1388637,-0.6572084,9.818622
1587369354484,0.20231004,-0.5758055,9.6845455
1587369354492,0.5734113,-0.58538234,9.585187
1587369354504,0.23702596,-0.49440265,9.801862
1587369354516,0.47405192,-0.6440403,9.908403
1587369354526,0.50158525,-0.90740246,9.668983
1587369354538,0.30645782,-0.9588778,9.424775
1587369354548,0.22385786,-0.7637503,9.673772
1587369354561,0.16400282,-0.59136784,9.879673
1587369354571,0.06344634,-0.8858546,10.247183
1587369354581,0.06344634,-0.8858546,10.247183
1587369354593,-0.34117374,-0.5231331,10.113108
1587369354601,-0.52073884,-0.5470751,9.600749
1587369354613,-0.52073884,-0.5470751,9.600749
1587369354625,-0.9576807,-0.8451532,9.161413
1587369354634,-0.9995792,-0.7134721,9.1255
1587369354646,-0.89782566,-0.51235914,9.222465
1587369354658,-0.7637503,-0.22505496,9.514558
1587369354669,-0.7541735,-0.049081136,9.490616
1587369354680,-0.79008657,-0.09935937,9.275137
1587369354701,-0.6667852,0.12090719,9.619903
1587369354709,-0.6667852,0.12090719,9.619903
1587369354725,-0.641646,0.11971009,9.900024
1587369354732,-0.62368953,-0.12928689,9.615114
1587369354744,-0.5315128,-0.51355624,9.260772
1587369354755,-0.39264908,-0.7170634,8.995016
1587369354766,-0.06943185,-0.6895301,9.184157
1587369354777,0.2765303,-0.39145198,9.892841
1587369354788,0.37708676,0.15322891,10.240001
1587369354799,0.22026655,0.44891283,10.038888
1587369354811,0.01436521,0.37349546,9.864111
1587369354821,-0.23582886,0.088585466,9.643845
1587369354833,-0.33518824,0.07062895,9.944317
1587369354843,-0.33518824,0.07062895,9.944317
1587369354855,-0.7553706,0.29448682,10.010158
1587369354865,-1.0893618,0.36990416,9.821015
1587369354877,-0.94092125,0.21188685,9.667787
1587369354886,-0.700304,0.21787235,9.5971575
1587369354898,-0.23343466,0.25139117,9.583989
1587369354910,0.22744916,0.08499416,9.615114
1587369354920,0.48841715,0.18315643,9.582792
1587369354933,0.16280572,0.4249708,9.568427
1587369354939,0.16280572,0.4249708,9.568427
1587369354952,-0.32561144,0.4165911,9.738416
1587369354964,-0.32561144,0.4165911,9.738416
1587369354974,-0.59136784,0.5327099,9.704897
1587369354986,-0.7158663,0.4321534,9.595961
1587369354996,-0.7158663,0.4321534,9.595961
1587369355008,-0.7086837,0.557849,10.059238
1587369355018,-0.415394,0.25617957,9.892841
1587369355029,-0.19273324,0.17477672,9.931149
1587369355041,-0.073023155,0.20949265,9.655815
1587369355049,0.020350715,0.01436521,9.67856
1587369355062,-0.06464344,0.02633622,9.610326
1587369355071,-0.21428105,0.19632454,9.606734
1587369355084,-0.2645593,0.2681506,9.697714
1587369355094,-0.2645593,0.2681506,9.697714
1587369355105,-0.18794483,0.10055647,9.434352
1587369355118,0.06703765,-0.031124622,9.372103
1587369355128,0.20829555,0.08379706,9.519346
1587369355137,0.03232172,0.39145198,9.759963
1587369355150,-0.22146365,0.59495914,9.983821
1587369355157,-0.47884035,0.5590461,9.895236
1587369355169,-0.6356605,0.427365,9.861717
1587369355181,-0.6799533,0.40222588,10.159795
1587369355191,-0.6799533,0.40222588,10.159795
1587369355203,-0.10534488,0.9708488,9.8677025
1587369355214,-0.12569559,1.0319009,9.446322
1587369355224,-0.4357447,1.1097125,9.077616
1587369355236,-0.7685388,1.0654198,8.933964
1587369355246,-0.7685388,1.0654198,8.933964
1587369355257,-0.7685388,0.8714894,9.127894
1587369355267,-0.7026982,0.878672,9.313444
1587369355280,-0.80325466,0.7661445,9.368511
1587369355290,-0.81402856,0.7721301,9.398438
1587369355300,-1.0103531,0.91817635,9.531317
1587369355313,-1.0773908,0.6476316,10.028113
1587369355323,-0.31124622,0.56982,9.655815
1587369355333,-0.1388637,0.4417302,9.78989
1587369355345,-0.1388637,0.4417302,9.78989
1587369355355,-0.29688102,0.50038815,9.902418
1587369355367,-0.40581718,0.45010993,9.807847
1587369355375,-0.40581718,0.37948096,9.500193
1587369355387,-0.45250413,0.34596214,9.664195
1587369355399,-0.34476504,0.36870706,9.623494
1587369355410,-0.48362875,0.29568392,9.676167
1587369355421,-0.2717419,0.142455,9.753978
1587369355431,-0.11731588,0.15442601,9.85214
1587369355443,-0.11731588,0.15442601,9.85214
1587369355454,-0.31004912,0.2825158,9.79827
1587369355464,-0.34356794,0.36511576,9.797073
1587369355476,-0.30286652,0.47285482,9.731233
1587369355484,-0.2825158,0.47405192,9.742006
1587369355496,-0.35314476,0.49559975,9.700109
1587369355508,-0.6607997,0.47644615,10.131064
1587369355518,-0.18555063,0.7015011,9.446322
1587369355530,-0.7457938,0.5542577,9.7863
1587369355540,-0.79726917,0.5805939,9.788693
1587369355552,-0.6332663,0.7038953,9.751583
1587369355563,-0.59855044,0.6584055,9.738416
1587369355573,-0.59256494,0.65242,9.755175
1587369355585,-0.5422867,0.62847793,9.824607
1587369355593,-0.5422867,0.62847793,9.824607
1587369355604,-0.427365,0.7589619,9.946711
1587369355616,-0.50038815,0.8331822,9.835381
1587369355628,-0.5602432,0.9576807,9.809045
1587369355638,-0.61171854,1.0666169,9.807847
1587369355651,-0.6955156,1.0953473,9.770737
1587369355661,-0.6955156,1.0953473,9.770737
1587369355672,-0.7398083,1.1049241,9.76954
1587369355682,-0.6584055,1.043872,9.767146
1587369355694,-0.6584055,1.043872,9.767146
1587369355702,-0.78290397,1.021127,9.77792
1587369355715,-0.8463503,1.0079589,9.749189
1587369355725,-0.9504981,1.009156,9.767146
1587369355737,-0.9959879,1.0666169,9.7958765
1587369355747,-1.0235212,1.0761937,9.7719345
1587369355759,-1.0618285,1.0809821,9.767146
1587369355770,-1.0905589,1.0187328,9.776723
1587369355781,-1.115698,1.1049241,9.779117
1587369355791,-1.115698,1.1049241,9.779117
1587369355802,-1.2114661,0.9576807,9.67856
1587369355811,-1.2880806,0.90261406,9.792285
1587369355822,-1.3838485,0.89303726,9.812635
1587369355834,-1.3862427,0.8774749,9.719262
1587369355845,-1.4065934,0.9636662,9.599552
1587369355856,-1.471237,1.0821792,9.43914
1587369355867,-1.5047557,1.1839328,9.2907
1587369355878,-1.520318,1.2940661,9.257181
1587369355890,-1.4820108,1.4317327,9.165004
1587369355900,-1.484405,1.5442601,9.077616
1587369355912,-1.2354081,1.5813702,9.003395
1587369355920,-1.2354081,1.5813702,9.003395
1587369355933,-1.043872,1.5191209,9.103952
1587369355943,-1.043872,1.5191209,9.103952
1587369355955,-1.1133038,1.697489,9.107543
1587369355965,-0.93613285,1.6567876,9.062054
1587369355977,-0.93613285,1.6567876,9.062054
1587369355987,-1.0666169,1.5155296,9.258378
1587369355999,-1.0977415,1.5705963,9.257181
1587369356010,-1.0809821,1.6280571,9.26556
1587369356020,-1.0989386,1.661576,9.28232
1587369356033,-1.0654198,1.7058687,9.301474
1587369356043,-1.0654198,1.7058687,9.301474
1587369356053,-1.0283096,1.7884687,9.255983
1587369356066,-1.0486604,1.8602947,9.166202
1587369356076,-1.0486604,1.8602947,9.166202
1587369356086,-1.1133038,1.9800048,9.058462
1587369356098,-1.1013328,2.0278888,9.024943
1587369356107,-1.0522517,2.018312,9.033323
1587369356119,-1.0319009,2.0123265,8.992621
1587369356131,-0.9600749,2.0386627,8.942344
1587369356138,-0.9600749,2.0386627,8.942344
1587369356149,-0.91458505,2.0386627,8.89446
1587369356161,-0.878672,2.0278888,8.65863
1587369356174,-0.878672,2.0278888,8.65863
1587369356184,-0.90261406,1.9847932,8.677784
1587369356197,-0.90740246,1.958457,8.688558
1587369356207,-0.9600749,1.9165585,8.6574335
1587369356217,-1.0031705,1.8447324,8.711303
1587369356229,-1.0259154,1.745373,8.829816
1587369356239,-1.0606314,1.6364368,8.859743
1587369356251,-1.1073183,1.389834,9.149442
1587369356261,-1.1719618,1.3108255,9.24521
1587369356273,-1.1719618,1.3108255,9.24521
1587369356283,-1.2162545,1.1587936,9.43076
1587369356295,-1.2557588,1.1097125,9.625888
1587369356305,-1.1779473,0.9672575,9.750386
1587369356317,-1.1085154,0.8499416,9.850943
1587369356327,-0.94331545,0.6655881,10.0269165
1587369356339,-0.5626374,0.41180268,10.399215
1587369356349,-0.1340753,0.2693477,10.842142
1587369356361,0.47165772,-0.2657564,12.149377
1587369356371,0.47165772,-0.2657564,12.149377
1587369356383,0.50757074,-1.2258313,13.576321
1587369356393,0.34835634,-1.5035586,13.84088
1587369356405,0.075417355,-1.7058687,14.024036
1587369356415,-0.2777274,-1.8231846,14.098257
1587369356426,-0.62009823,-1.7848774,13.777433
1587369356437,-0.7793127,-1.6005238,13.286622
1587369356449,-0.6380547,-1.3682863,12.793417
1587369356458,-0.35793316,-1.0462662,12.307394
1587369356471,-0.089782566,-0.78888947,11.869255
1587369356480,0.23223756,-0.61770403,11.510124
1587369356492,0.59376204,-0.39264908,11.09473
1587369356504,0.60812724,-0.3184288,10.896012
1587369356514,0.5722142,-0.24779987,10.724827
1587369356526,0.50397944,-0.19752164,10.524911
1587369356536,0.39624038,-0.095768064,10.304645
1587369356548,0.25977087,-0.020350715,10.04607
1587369356558,0.05626374,0.095768064,9.817424
1587369356570,-0.1352724,0.23942018,9.595961
1587369356578,-0.29807812,0.44771573,9.333796
1587369356589,-0.4357447,0.62249243,9.085996
1587369356601,-0.6440403,0.7457938,8.684967
1587369356613,-0.65242,0.7350199,8.620323
1587369356623,-0.65242,0.7350199,8.620323
1587369356635,-0.712275,0.7266402,8.665813
1587369356645,-0.7517793,0.7338228,8.620323
1587369356657,-0.81043726,0.724246,8.566454
1587369356667,-0.81163436,0.7326257,8.431181
1587369356679,-0.78170687,0.7721301,8.298303
1587369356687,-0.7517793,0.8822633,8.202535
1587369356699,-0.7266402,0.9792285,8.11395
1587369356712,-0.6739678,1.0486604,7.9667063
1587369356722,-0.6739678,1.0486604,7.9667063
1587369356732,-0.5722142,1.174356,7.9714947
1587369356744,-0.5566519,1.2354081,7.917625
1587369356754,-0.5422867,1.3251907,7.825448
1587369356766,-0.5267244,1.3826514,7.777564
1587369356776,-0.581791,1.4951789,7.7440453
1587369356788,-0.61770403,1.5705963,7.752425
1587369356796,-0.60333884,1.6328455,7.8326306
1587369356808,-0.5518635,1.6711528,7.916428
1587369356820,-0.5386954,1.685518,8.005013
1587369356831,-0.36391866,1.8890251,8.255207
1587369356841,-0.36391866,1.8890251,8.255207
1587369356853,-0.2681506,1.9800048,8.421604
1587369356862,-0.22026655,2.0039468,8.514978
1587369356874,-0.20231004,2.0326772,8.626308
1587369356885,-0.21787235,2.0470424,8.781932
1587369356896,-0.22744916,2.0530279,8.919599
1587369356905,-0.21547815,2.0027497,9.068039
1587369356916,-0.20350714,1.8950106,9.223662
1587369356927,-0.17597382,1.7824832,9.362526
1587369356937,-0.03232172,1.7286136,9.613917
1587369356948,0.21428105,1.7274165,9.950302
1587369356959,0.33638534,1.7034745,10.183737
1587369356972,0.39863458,1.6184803,10.59554
1587369356984,0.30286652,1.3036429,11.505336
1587369356994,0.21787235,1.1097125,11.860875
1587369357007,0.21787235,1.1097125,11.860875
1587369357013,0.1400608,0.94690675,12.061988
1587369357025,0.011971008,0.9888053,11.963826
1587369357037,-0.19033903,0.8571242,11.882423
1587369357049,-0.533907,0.997185,11.795034
1587369357059,-0.6799533,1.0031705,11.759122
1587369357071,-0.7194576,1.0570401,11.88362
1587369357081,-0.91817635,0.7410054,12.129025
1587369357094,-0.94690675,0.35673606,12.314576
1587369357104,-0.94690675,0.35673606,12.314576
1587369357114,-0.8439561,-0.32920274,12.352883
1587369357126,-0.7697359,-0.48243165,12.229582
1587369357136,-0.61650693,-0.5770026,12.144588
1587369357148,-0.45489833,-0.6619968,12.000936
1587369357158,-0.3842694,-0.5770026,11.807006
1587369357170,-0.4297592,-0.4441244,11.508927
1587369357180,-0.60453594,-0.38067806,11.030087
1587369357192,-1.0342951,-0.10534488,9.97185
1587369357202,-1.0342951,-0.10534488,9.97185
1587369357214,-1.3634979,0.089782566,9.246407
1587369357224,-1.5442601,0.14963761,8.955511
1587369357236,-1.62686,0.19273324,8.726865
1587369357246,-1.5682021,0.2621651,8.51019
1587369357258,-1.5011644,0.32202014,8.288726
1587369357268,-1.1348516,0.45489833,7.7787614
1587369357279,-0.9624691,0.5566519,7.559692
1587369357291,-0.6775591,0.6464345,7.169437
1587369357302,-0.6775591,0.6464345,7.169437
1587369357312,-0.5291186,0.81881696,6.775591
1587369357323,-0.45609543,0.89902276,6.619968
1587369357335,-0.36990416,0.9911995,6.471527
1587369357343,-0.31603462,1.1228806,6.445191
1587369357356,-0.31603462,1.1228806,6.445191
1587369357366,-0.33997664,1.2844892,6.4128695
1587369357378,-0.5351041,1.6519991,6.481104
1587369357387,-0.712275,1.3922282,6.8246717
1587369357399,-0.5243302,1.1073183,6.8186865
1587369357412,-0.63206923,1.484405,7.0425444
1587369357422,-0.63206923,1.484405,7.0425444
1587369357432,-0.545878,1.3096284,7.644686
1587369357444,-0.50757074,1.2389994,7.964312
1587369357452,-0.50757074,1.2389994,7.964312
1587369357464,-0.47884035,1.1599907,8.514978
1587369357476,-0.49559975,1.2401965,8.724471
1587369357486,-0.7457938,1.2569559,8.938752
1587369357498,-0.91338795,1.1994951,9.075222
1587369357508,-1.0534488,1.2114661,9.130288
1587369357520,-1.1420342,1.3204023,9.127894
1587369357530,-1.1528081,1.4927847,9.045294
1587369357542,-0.93373865,1.9572599,8.944737
1587369357552,-0.93373865,1.9572599,8.944737
1587369357564,-0.33159694,2.2876596,9.106346
1587369357574,-0.077811554,2.3642743,9.248801
1587369357586,-0.0035913025,2.3331497,9.516952
1587369357596,0.074220255,2.2158337,9.864111
1587369357610,0.15322891,2.1092918,10.226832
1587369357620,0.15083471,2.0266917,10.553641
1587369357630,-0.073023155,1.8495208,11.268311
1587369357641,-0.2645593,1.6783354,11.544841
1587369357651,-0.2645593,1.6783354,11.544841
1587369357663,-0.6404489,1.578976,11.880029
1587369357671,-0.6404489,1.578976,11.880029
1587369357683,-0.91338795,1.7381904,11.573571
1587369357695,-0.724246,1.9333179,11.265916
1587369357704,-0.724246,1.9333179,11.265916
1587369357717,0.33997664,1.9572599,11.743559
1587369357726,0.6691794,1.5059528,12.385205
1587369357738,0.9816227,0.9588778,13.053187
1587369357750,1.067814,0.5386954,13.517663
1587369357760,0.9983821,0.02873042,13.825317
1587369357772,0.5542577,-0.6871359,13.845669
1587369357780,0.5542577,-0.6871359,13.845669
1587369357793,0.5746084,-0.51355624,13.132196
1587369357803,0.5746084,-0.51355624,13.132196
1587369357815,0.59136784,0.017956512,11.821371
1587369357825,0.45489833,0.027533319,11.434708
1587369357837,0.5279215,0.0023942017,11.281479
1587369357847,0.664391,0.04189853,11.18571
1587369357859,0.6751649,-0.074220255,10.994174
1587369357870,0.61411273,-0.34835634,10.809821
1587369357881,0.49919105,-0.51355624,10.675745
1587369357891,0.260968,-0.58298814,9.991004
1587369357904,0.17477672,-0.5506664,9.5732155
1587369357913,0.11851298,-0.4225766,9.163807
1587369357925,0.10055647,-0.25258827,8.84059
1587369357934,0.10055647,-0.25258827,8.84059
1587369357945,0.16998832,0.2896984,7.8912888
1587369357956,0.11133038,0.35553896,7.668628
1587369357967,0.1592144,0.47046062,7.455544
1587369357978,0.21188685,0.5805939,7.358579
1587369357988,0.21906945,0.6404489,7.323863
1587369357999,0.12808979,0.6560113,7.2580223
1587369358011,0.08738836,0.82599956,7.1395097
1587369358022,0.15801731,0.9983821,7.101202
1587369358033,0.15801731,0.9983821,7.101202
1587369358043,-0.019153614,1.2198458,7.019799
1587369358055,-0.08499416,1.3251907,7.0365586
1587369358065,-0.14724341,1.4149733,7.064092
1587369358076,-0.24181437,1.4975731,7.141904
1587369358088,-0.30526072,1.5310919,7.217321
1587369358098,-0.2681506,1.5885528,7.45315
1587369358110,-0.19871874,1.6603789,7.7081323
1587369358120,-0.17597382,1.7154455,7.892486
1587369358133,-0.18076223,1.7645266,8.062474
1587369358142,-0.07182605,1.7681179,8.574833
1587369358154,0.04189853,1.8028339,8.900445
1587369358164,0.12210429,1.8327614,9.153033
1587369358176,0.15682021,1.8902222,9.534908
1587369358186,0.15682021,1.8902222,9.534908
1587369358198,0.047884032,1.8243817,10.247183
1587369358208,-0.031124622,1.7717092,10.461464
1587369358219,-0.12090719,1.7286136,10.54167
1587369358231,-0.21428105,1.6663644,10.6877165
1587369358241,-0.40462008,1.6496049,10.790668
1587369358253,-0.45609543,1.5957354,10.976217
1587369358263,-0.5410896,1.4784195,11.281479
1587369358275,-0.521936,1.3946224,11.59033
1587369358285,-0.521936,1.3946224,11.59033
1587369358297,-0.47405192,1.2737153,11.959038
1587369358307,-0.40701428,1.2749124,11.971008
1587369358319,-0.3866636,1.3826514,11.976994
1587369358327,-0.5255273,1.4041992,12.0571995
1587369358340,-0.770933,1.352724,11.963826
1587369358350,-1.0031705,1.2485762,11.920731
1587369358363,-1.7022774,0.78888947,12.063186
1587369358373,-1.8507179,0.06584055,11.767501
1587369358383,-1.8507179,0.06584055,11.767501
1587369358395,-1.1133038,-0.12928689,11.693281
1587369358406,-0.7589619,-0.35913026,11.663354
1587369358416,-0.5422867,-0.38307226,11.513716
1587369358428,-0.32441434,-0.3184288,11.298238
1587369358437,-0.16639702,-0.17956513,11.127052
1587369358449,-0.24899697,-0.011971008,10.670957
1587369358459,-0.58298814,0.01436521,10.032902
1587369358472,-1.3311762,0.016759412,9.208099
1587369358482,-1.3311762,0.016759412,9.208099
1587369358492,-1.7501614,0.021547815,8.899248
1587369358505,-1.8064252,0.045489833,8.820239
1587369358515,-1.7501614,0.1352724,8.771158
1587369358525,-1.5406688,0.22864626,8.674192
1587369358537,-1.2677298,0.33399114,8.558074
1587369358544,-1.0522517,0.4441244,8.352173
1587369358556,-0.8619126,0.50876784,8.090008
1587369358568,-0.6871359,0.5542577,7.8182654
1587369358580,-0.52073884,0.59974754,7.5968018
1587369358589,-0.39743748,0.6631939,7.326257
1587369358602,-0.19632454,0.7338228,6.7971387
1587369358612,-0.03232172,0.8738836,6.597223
1587369358624,-0.027533319,0.9600749,6.6056023
1587369358634,-0.027533319,0.9600749,6.6056023
1587369358646,-0.044292733,1.091756,6.7109475
1587369358654,-0.02633622,1.1911154,6.7731967
1587369358666,-0.035913024,1.246182,6.8366427
1587369358678,-0.061052144,1.3706805,6.82946
1587369358687,-0.14604631,1.4221559,7.019799
1587369358699,-0.22266077,1.4449008,7.2831616
1587369358712,-0.40462008,1.5406688,7.7308774
1587369358722,-0.37469256,1.5059528,7.9726915
1587369358732,-0.37469256,1.5059528,7.9726915
1587369358744,-0.29328972,1.6412252,8.090008
1587369358754,-0.22385786,1.7609353,8.165425
1587369358766,-0.20350714,1.8507179,8.301894
1587369358776,-0.3184288,1.863886,8.565256
1587369358788,-0.37229836,1.8602947,8.910022
1587369358799,-0.4345476,1.8842367,9.175778
1587369358810,-0.439336,1.8950106,9.506178
1587369358820,-0.48243165,2.0506337,10.043676
1587369358833,-0.60932434,2.1284454,10.168175
1587369358843,-0.8511387,2.160767,10.805033
1587369358853,-0.82480246,2.148796,11.219229
1587369358865,-1.0845734,1.9812019,11.702858
1587369358872,-1.292869,1.8016368,12.161347
1587369358884,-1.292869,1.8016368,12.161347
1587369358896,-1.6663644,1.6962919,12.600683
1587369358908,-1.8088194,1.7070658,12.6354
1587369358919,-1.7597382,1.6496049,12.473791
1587369358929,-1.4736311,1.6400281,12.3516865
1587369358941,-0.7266402,1.377863,13.001713
1587369358951,-0.7266402,1.377863,13.001713
1587369358964,-0.4237737,0.93134445,13.5535755
1587369358973,-0.19153613,-0.20470424,14.399926
1587369358987,-0.24779987,-0.6392518,14.707581
1587369358996,-0.3196259,-0.92176765,14.869189
1587369359007,-0.48123455,-1.0642227,14.708778
1587369359018,-0.6907272,-1.079785,14.239514
1587369359029,-0.78410107,-0.9756372,13.6493435
1587369359040,-1.1552023,-0.4177882,11.933898
1587369359051,-1.2354081,-0.39384618,11.456255
1587369359062,-1.2354081,-0.39384618,11.456255
1587369359073,-1.1097125,-0.40342298,10.674548
1587369359085,-0.92775315,-0.45729253,10.488997
1587369359092,-0.7745243,-0.49320555,10.243592
1587369359105,-0.6368576,-0.5398925,9.957485
1587369359117,-0.6368576,-0.5398925,9.957485
1587369359126,-0.36870706,-0.47285482,9.3421755
1587369359138,-0.2741361,-0.33877954,8.924387
1587369359151,-0.29927522,0.088585466,7.8888946
1587369359161,-0.29927522,0.088585466,7.8888946
1587369359170,-0.37469256,0.35793316,7.410054
1587369359181,-0.39025488,0.5793968,7.00304
1587369359192,-0.45370123,1.1216835,6.1938
1587369359202,-0.4441244,1.2545617,6.0202203
1587369359213,-0.4441244,1.2545617,6.0202203
1587369359225,-0.21308395,1.6519991,5.961562
1587369359235,-0.21068975,1.7729063,5.9448028
1587369359247,-0.21787235,1.8411411,5.887342
1587369359264,-0.025139118,1.99437,6.0980315
1587369359279,0.095768064,2.0697873,6.3793507
1587369359288,0.06943185,2.0326772,6.5984197
1587369359312,0.023942016,2.0458453,7.252037
1587369359332,-0.19632454,1.9512744,7.8637557
1587369359343,-0.23223756,1.9261353,8.379706
1587369359353,-0.19752164,1.9321208,8.455123
1587369359360,-0.19752164,1.9321208,8.455123
1587369359367,-0.15083471,1.9237411,8.597578
1587369359375,-0.1436521,1.9668367,8.815451
1587369359386,-0.15322891,2.007538,8.996213
1587369359397,-0.20350714,2.0350714,9.188946
1587369359408,-0.25617957,2.078167,9.349358
1587369359419,-0.25019407,2.1703439,9.421184
1587369359430,-0.2717419,2.256535,9.396045
1587369359439,-0.21906945,2.2996306,9.363723
1587369359450,-0.11731588,2.3463178,9.43914
1587369359460,-0.0047884034,2.3953989,9.605537
1587369359471,0.29328972,2.267309,10.338163
1587369359482,0.33877954,2.1296425,10.761936
1587369359493,0.36511576,2.0649989,11.124659
1587369359504,0.2645593,1.9859903,11.423933
1587369359514,0.2645593,1.9859903,11.423933
1587369359525,-0.055066638,1.7585411,11.688493
1587369359536,-0.31244332,1.7322049,11.841722
1587369359545,-0.60453594,1.6627731,11.925519
1587369359556,-1.0378864,1.5526398,12.130223
1587369359566,-1.423353,1.2306197,12.441469
1587369359577,-1.6017209,0.80325466,12.85806
1587369359588,-1.7513585,0.3196259,13.049597
1587369359599,-1.673547,-0.17836803,12.907142
1587369359610,-1.400608,-0.5434838,12.889185
1587369359621,-1.1994951,-0.8762778,12.810176
1587369359631,-0.34117374,-0.6440403,12.176909
1587369359662,-1.7944542,-0.107739076,11.265916
1587369359673,-1.8255788,0.5758055,9.733627
1587369359684,-1.9189527,0.91697925,9.1590185
1587369359695,-2.1057005,1.0893618,8.60117
1587369359706,-2.2122424,1.0630256,8.255207
1587369359716,-1.8255788,0.961272,8.714894
1587369359719,-1.8255788,0.961272,8.714894
1587369359726,-1.6915035,0.8571242,8.832211
1587369359735,-1.5179238,0.7457938,8.883685
1587369359744,-1.3192052,0.7721301,8.874108
1587369359753,-1.1887212,0.89064306,8.750807
1587369359766,-1.0702082,1.0043676,8.49343
1587369359775,-1.0007763,1.0881647,8.213309
1587369359785,-0.94690675,1.1911154,8.026561
1587369359810,-0.6847417,1.3718776,7.856573
1587369359815,-0.60573304,1.3730747,7.7201033
1587369359824,-0.62728083,1.3802572,7.632715
1587369359833,-0.6332663,1.3682863,7.6123643
1587369359842,-0.58418524,1.4425066,7.553706
1587369359853,-0.60333884,1.541866,7.5094137
1587369359864,-0.62728083,1.6017209,7.493851
1587369359873,-0.62608373,1.6579847,7.4136457
1587369359884,-0.6619968,1.7238252,7.357382
1587369359894,-0.6631939,1.7681179,7.3885064
1587369359905,-0.6404489,1.8195933,7.445967
1587369359916,-0.62847793,1.8339585,7.526173
1587369359927,-0.641646,1.8016368,7.704541
1587369359937,-0.62009823,1.7597382,8.255207
1587369359968,-0.50517654,1.5753847,8.89805
1587369359989,-0.51954174,1.6927006,8.846576
1587369359994,-0.51954174,1.6927006,8.846576
1587369360004,-0.33877954,2.0578163,8.668207
1587369360024,-0.24420857,2.4061728,8.810662
1587369360046,-0.045489833,2.4013844,9.645041
1587369360049,-0.045489833,2.4013844,9.645041
1587369360056,-0.11971009,2.291251,9.967062
1587369360065,-0.22744916,2.0913353,10.357317
1587369360076,-0.2621651,1.9716251,10.824186
1587369360087,-0.34596214,1.8662802,11.427525
1587369360098,-0.427365,1.6807296,11.872847
1587369360109,-0.60094464,1.4293385,12.023681
1587369360117,-0.6979098,1.2617443,11.971008
1587369360128,-0.581791,1.3036429,11.756727
1587369360141,-0.33877954,1.364695,11.704055
1587369360153,1.1061212,1.3874398,13.016078
1587369360162,1.1061212,1.3874398,13.016078
1587369360174,1.9452889,0.9911995,13.860034
1587369360186,1.8746599,0.6811504,13.888764
1587369360196,1.8746599,0.6811504,13.888764
1587369360208,1.5442601,0.37469256,13.400347
1587369360218,1.365892,0.36990416,13.067553
1587369360230,1.2593501,0.47524905,12.8053875
1587369360240,1.2880806,0.6715736,12.621035
1587369360252,1.1504139,1.0666169,12.193669
1587369360262,1.1504139,1.0666169,12.193669
1587369360274,0.81283146,0.973243,11.695675
1587369360284,0.6332663,0.8367735,11.408371
1587369360296,0.6332663,0.8367735,11.408371
1587369360306,0.29807812,0.5746084,10.703279
1587369360318,0.12210429,0.47644615,10.308235
1587369360328,0.027533319,0.4201824,9.8437605
1587369360340,-0.027533319,0.439336,9.344569
1587369360350,-0.022744916,0.5231331,8.810662
1587369360362,0.046686932,0.62967503,8.275558
1587369360372,0.32561144,0.9624691,7.088034
1587369360384,0.59495914,1.2366052,6.353014
1587369360394,0.59495914,1.2366052,6.353014
1587369360406,0.7398083,1.435324,5.9041014
1587369360416,0.7649474,1.5119383,5.792771
1587369360429,0.8619126,1.638831,5.7245364
1587369360439,0.91697925,1.7621324,5.650316
1587369360451,0.81163436,1.8866309,5.756858
1587369360461,0.81163436,1.8866309,5.756858
1587369360473,0.32321724,1.9237411,6.0142345
1587369360483,0.1352724,1.9093759,6.1782374
1587369360495,0.1352724,1.9093759,6.1782374
1587369360505,-0.023942016,2.0147207,6.6187706
1587369360517,-0.10534488,2.078167,6.932411
1587369360527,-0.21428105,2.0638018,7.20535
1587369360539,-0.31124622,2.054225,7.430405
1587369360549,-0.41180268,2.0697873,7.7320743
1587369360562,-0.4429273,2.0841527,7.991845
1587369360572,-0.62129533,2.043451,8.461109
1587369360582,-0.6344634,1.9812019,8.651448
1587369360594,-0.6344634,1.9812019,8.651448
1587369360604,-0.50038815,1.9369092,9.124303
1587369360616,-0.46327803,1.8794483,9.339781
1587369360626,-0.4165911,1.8411411,9.537302
1587369360638,-0.31483752,1.8375498,9.7719345
1587369360648,-0.34237084,1.8243817,9.981427
1587369360661,-0.35673606,1.7489643,10.257957
1587369360667,-0.3184288,1.6687586,10.508151
1587369360679,-0.2861071,1.5849615,10.778696
1587369360691,-0.2645593,1.5526398,10.988189
1587369360703,-0.12689269,1.388637,11.502942
1587369360713,0.037110128,1.5227122,11.634624
1587369360725,0.18914193,1.555034,11.899182
1587369360735,0.28491,1.3670892,12.117055
1587369360747,0.2885013,1.292869,12.09431
1587369360757,0.044292733,1.2725182,12.223597
1587369360769,-0.24540567,1.0773908,12.4390745
1587369360778,-0.5805939,0.92775315,12.606669
1587369360791,-0.80924016,0.79248077,12.871228
1587369360801,-0.8846575,0.089782566,13.141773
1587369360811,-0.8846575,0.089782566,13.141773
1587369360823,-0.09696517,-1.0450691,13.425486
1587369360833,0.1340753,-1.2497733,13.472173
1587369360844,0.1340753,-1.2497733,13.472173
1587369360856,0.29568392,-1.1803415,12.876017
1587369360866,0.08619126,-0.9792285,12.199655
1587369360878,-0.25378537,-0.7038953,11.358093
1587369360886,-0.58298814,-0.35553896,10.53329
1587369360898,-0.8319851,-0.05267244,9.803059
1587369360911,-1.0426749,0.1388637,9.31105
1587369360921,-1.1767502,0.33039984,8.820239
1587369360931,-1.2401965,0.5590461,8.230068
1587369360943,-1.2401965,0.5590461,8.230068
1587369360953,-1.0929531,0.80804306,7.949947
1587369360965,-1.0079589,0.9648633,7.819463
1587369360975,-1.0079589,0.9648633,7.819463
1587369360987,-0.9804256,1.0127473,7.513005
1587369360995,-0.90740246,1.0378864,7.3609734
1587369361008,-0.7577648,1.0259154,7.3071036
1587369361017,-0.61291564,1.0187328,7.1873937
1587369361029,-0.5506664,1.0127473,7.0209966
1587369361041,-0.5626374,0.9708488,7.001843
1587369361052,-0.5255273,0.9923966,6.9611416
1587369361062,-0.36391866,1.1121067,6.921637
1587369361074,-0.36391866,1.1121067,6.921637
1587369361085,-0.4261679,1.1623849,7.195773
1587369361095,-0.47644615,1.2054806,7.315483
1587369361107,-0.62129533,1.234211,7.3442135
1587369361117,-0.700304,1.2425907,7.467515
1587369361128,-0.79607207,1.2844892,7.6470804
1587369361139,-0.7613561,1.3395559,7.9367785
1587369361151,-0.8295909,1.3862427,8.22528
1587369361160,-0.7326257,1.448492,8.275558
1587369361171,-0.7326257,1.448492,8.275558
1587369361182,-0.5638345,1.685518,8.404845
1587369361193,-0.4417302,1.7836803,8.520964
1587369361204,-0.34117374,1.8267759,8.635885
1587369361213,-0.25977087,1.8423382,8.801085
1587369361224,-0.25977087,1.8423382,8.801085
1587369361236,0.017956512,1.9560628,9.305065
1587369361248,0.12808979,1.9476831,9.615114
1587369361258,0.17956513,1.8722657,9.975441
1587369361270,0.25139117,1.7992426,10.374076
1587369361280,0.1412579,1.590947,11.241974
1587369361293,0.08499416,1.4185646,11.599907
1587369361303,-0.04189853,1.115698,12.381614
1587369361313,-0.025139118,1.1695676,12.606669
1587369361324,-0.025139118,1.1695676,12.606669
1587369361337,-0.08259996,1.0319009,12.624625
1587369361347,0.08259996,1.0414777,12.45344
1587369361357,0.5506664,1.043872,12.653356
1587369361368,0.90859956,0.89303726,12.974179
1587369361381,1.1815386,0.557849,13.109451
1587369361391,1.400608,0.07062895,13.401544
1587369361401,1.4676456,-0.4237737,13.696031
1587369361413,1.4161704,-1.0534488,13.679272
1587369361423,1.4161704,-1.0534488,13.679272
1587369361435,1.3096284,-1.1791444,13.152547
1587369361445,1.3215994,-0.9504981,12.862848
1587369361457,1.3335704,-0.60693014,12.521675
1587369361467,1.151611,-0.32561144,12.022484
1587369361479,0.8571242,-0.16998832,11.573571
1587369361490,0.5422867,-0.06344634,11.399991
1587369361500,0.11133038,0.0023942017,11.09473
1587369361513,-0.33399114,-0.1352724,10.710462
1587369361523,-0.33399114,-0.1352724,10.710462
1587369361533,-0.49200845,-0.15442601,10.196905
1587369361545,-0.48961425,-0.1364695,9.787497
1587369361555,-0.48243165,-0.020350715,9.403227
1587369361567,-0.34117374,0.17477672,9.029732
1587369361577,-0.22026655,0.39624038,8.560468
1587369361589,-0.07062895,0.62009823,8.027759
1587369361599,0.08738836,0.8702923,7.4591355
1587369361613,0.39264908,1.2150574,6.6367273
1587369361623,0.39264908,1.2150574,6.6367273
1587369361633,0.7134721,1.4329298,6.3446345
1587369361644,0.760159,1.4377182,6.254852
1587369361653,0.7625532,1.4556746,6.203377
1587369361665,0.79846627,1.5574282,6.183026
1587369361677,0.8331822,1.6747441,6.241684
1587369361687,0.7721301,1.7441759,6.278794
1587369361699,0.62608373,1.7896658,6.2009826
1587369361709,0.49559975,1.8734628,6.1303535
1587369361722,0.48123455,2.1871033,6.1423244
1587369361732,0.49200845,2.4037786,6.4164605
1587369361741,0.49200845,2.4037786,6.4164605
1587369361753,0.5506664,2.4301147,7.0485296
1587369361761,0.46806642,2.4109612,7.455544
1587369361773,0.46806642,2.4109612,7.455544
1587369361785,0.30406362,2.267309,8.244433
1587369361795,0.19871874,2.280477,8.676587
1587369361807,0.049081136,2.1990743,8.980651
1587369361817,-0.07062895,2.146402,9.279925
1587369361829,-0.11731588,2.1894975,9.489418
1587369361839,-0.20829555,2.2421699,9.607931
1587369361851,-0.31004912,2.3870192,9.773131
1587369361861,-0.31124622,2.4504654,9.827001
1587369361873,-0.31124622,2.4504654,9.827001
1587369361883,-0.29927522,2.4887726,10.00896
1587369361895,-0.25258827,2.4552538,10.26514
1587369361905,-0.19752164,2.4073699,10.496181
1587369361917,-0.1400608,2.2601264,10.812215
1587369361927,-0.023942016,2.0949266,11.191696
1587369361939,0.2657564,2.0458453,11.848905
1587369361950,0.17717093,1.9021933,12.272678
1587369361960,-0.031124622,1.7369933,12.543222
1587369361971,-0.29328972,1.7513585,12.723985
1587369361981,-0.82121116,1.3611037,12.982558
1587369361994,-1.127669,1.1360487,13.042414
1587369362007,-1.127669,1.1360487,13.042414
1587369362026,-1.1994951,-0.33877954,13.453019
1587369362038,-0.94930094,-0.6596026,13.409924
1587369362043,-0.6715736,-0.93972415,13.238738
1587369362053,-0.6715736,-0.93972415,13.238738
1587369362061,-0.36990416,-1.2114661,12.601881
1587369362070,-0.36990416,-1.2114661,12.601881
1587369362079,-0.28491,-1.0390835,12.0727625
1587369362092,-0.46327803,-0.19871874,10.692505
1587369362101,-0.46327803,-0.19871874,10.692505
1587369362112,-1.0139444,0.2621651,9.127894
1587369362123,-1.0139444,0.2621651,9.127894
1587369362133,-1.2808979,0.59974754,8.310274
1587369362145,-1.3227965,0.56982,8.258799
1587369362157,-1.3227965,0.56982,8.258799
1587369362170,-0.8415619,0.34955344,8.346188
1587369362180,-0.5542577,0.39145198,8.277952
1587369362190,-0.2741361,0.4357447,8.115147
1587369362201,-0.10175357,0.48722005,7.908048
1587369362212,0.11133038,0.5327099,7.6590514
1587369362224,0.23822308,0.5542577,7.5309615
1587369362233,0.22385786,0.60693014,7.433996
1587369362244,0.2837129,0.6607997,7.350199
1587369362255,0.2837129,0.6607997,7.350199
1587369362266,0.21308395,0.8583213,7.098808
1587369362277,0.107739076,0.93613285,7.023391
1587369362288,0.0035913025,1.0402806,7.029376
1587369362299,-0.08738836,1.186327,7.1047935
1587369362311,-0.22026655,1.3012487,7.1155677
1587369362321,-0.31124622,1.3838485,7.153875
1587369362332,-0.39145198,1.6531962,7.323863
1587369362342,-0.4321534,1.6915035,7.4112515
1587369362354,-0.4321534,1.6915035,7.4112515
1587369362364,-0.5267244,1.638831,7.7847466
1587369362377,-0.48362875,1.5897499,8.213309
1587369362387,-0.46088383,1.5849615,8.336611
1587369362397,-0.40940848,1.6244658,8.48146
1587369362409,-0.31244332,1.6831238,8.689755
1587369362418,-0.28491,1.7896658,8.823831
1587369362431,-0.25857377,2.054225,9.101558
1587369362441,-0.17118542,2.243367,9.234436
1587369362451,-0.17118542,2.243367,9.234436
1587369362463,-0.088585466,2.5246856,9.657013
1587369362473,-0.08259996,2.5797524,9.962274
1587369362485,-0.107739076,2.5139117,10.263943
1587369362495,-0.08020575,2.432509,10.70687
1587369362506,-0.08020575,2.432509,10.70687
1587369362518,-0.05865794,2.0590134,11.645397
1587369362526,-0.07182605,1.8219875,12.137405
1587369362538,-0.055066638,1.6448165,12.594698
1587369362551,-0.04189853,1.5310919,12.944251
1587369362561,0.007182605,1.673547,13.029245
1587369362571,-0.059855044,1.851915,13.022063
1587369362583,-0.0035913025,2.078167,12.539632
1587369362593,0.5530606,2.1799207,12.49893
1587369362605,0.5530606,2.1799207,12.49893
1587369362615,1.0989386,1.6101006,12.865243
1587369362627,1.2306197,1.0666169,13.194446
1587369362635,1.4030021,0.5722142,13.384785
1587369362646,1.5837644,0.20709845,13.642161
1587369362658,1.6005238,-0.034715924,13.591883
1587369362671,1.5286977,-0.24420857,13.338098
1587369362681,1.4305356,-0.24899697,12.312182
1587369362691,1.3575124,-0.10414778,11.670536
1587369362703,1.3575124,-0.10414778,11.670536
1587369362713,1.1348516,0.016759412,10.805033
1587369362725,1.0283096,-0.035913024,10.632649
1587369362735,1.0055647,-0.08259996,10.542868
1587369362747,0.89423436,-0.14963761,10.475829
1587369362757,0.6428431,-0.29807812,10.31063
1587369362769,0.50397944,-0.4189853,10.115502
1587369362779,0.4285621,-0.4237737,9.951499
1587369362792,0.2741361,-0.30885202,9.169792
1587369362802,0.2741361,-0.30885202,9.169792
1587369362812,0.2633622,0.25139117,7.538144
1587369362824,0.18674773,0.59495914,6.9527617
1587369362834,0.19033903,0.81881696,6.491878
1587369362846,0.22984336,1.0354922,6.069301
1587369362854,0.22984336,1.0354922,6.069301
1587369362867,0.34835634,1.3814543,5.5365915
1587369362876,0.37948096,1.4628572,5.400122
1587369362888,0.40102878,1.532289,5.351041
1587369362900,0.4165911,1.543063,5.380968
1587369362910,0.37229836,1.5358804,5.4647655
1587369362922,0.34715924,1.5562311,5.710171
1587369362932,0.2801216,1.5586253,5.8693852
1587369362944,0.25617957,1.6304513,6.101623
1587369362954,0.25617957,1.6304513,6.101623
1587369362966,0.19393034,1.7729063,6.5864487
1587369362976,0.1388637,1.8112136,6.956353
1587369362987,0.1388637,1.8112136,6.956353
1587369362999,0.10414778,1.8866309,7.7428484
1587369363010,0.029927522,1.899799,8.076839
1587369363020,-0.06703765,1.9261353,8.433576
1587369363033,-0.12330139,2.006341,8.72088
1587369363042,-0.35434186,2.135628,9.533711
1587369363054,-0.35434186,2.135628,9.533711
1587369363064,-0.439336,2.2661119,10.006566
1587369363076,-0.46926352,2.2864625,10.19451
1587369363086,-0.46926352,2.2864625,10.19451
1587369363098,-0.5410896,2.3259668,10.607511
1587369363108,-0.45968673,2.3415294,10.860099
1587369363120,-0.4357447,2.2732944,11.11987
1587369363131,-0.31603462,2.172738,11.377247
1587369363141,0.16879122,2.3702598,11.870452
1587369363153,0.16879122,2.3702598,11.870452
1587369363163,0.10295067,2.0470424,12.466608
1587369363175,-0.011971008,2.087744,12.58991
1587369363183,-0.011971008,2.087744,12.58991
1587369363195,-0.50278234,1.745373,12.777855
1587369363208,-0.8810662,1.5119383,12.780249
1587369363218,-1.2162545,1.0690111,12.850878
1587369363228,-1.352724,0.39624038,13.069947
1587369363240,-1.0785879,-0.4441244,13.241133
1587369363249,-1.0785879,-0.4441244,13.241133
1587369363261,-0.32441434,-1.2988545,13.719973
1587369363272,-0.34955344,-1.2246342,13.168109
1587369363284,-0.34955344,-1.2246342,13.168109
1587369363291,-0.91817635,-0.5327099,11.445481
1587369363302,-0.91817635,-0.5327099,11.445481
1587369363313,-1.8064252,0.29688102,9.427169
1587369363324,-2.030283,0.6607997,8.796297
1587369363335,-2.030283,0.6607997,8.796297
1587369363346,-1.8052281,0.8882488,8.25401
1587369363358,-1.6519991,0.93732995,8.252813
1587369363370,-1.3946224,0.91578215,8.368932
1587369363383,-1.1300632,0.80325466,8.550891
1587369363392,-0.6536171,0.80086046,8.696938
1587369363406,-0.4369418,0.80564886,8.625112
1587369363417,-0.29328972,0.80205756,8.51857
1587369363426,-0.24181437,0.78290397,8.402451
1587369363439,-0.1448492,0.760159,8.255207
1587369363449,-0.094570965,0.7433996,8.0924015
1587369363459,-0.12090719,0.7685388,7.9272017
1587369363471,-0.15203181,0.80086046,7.797915
1587369363481,-0.12808979,0.8798691,7.6351094
1587369363493,-0.10055647,1.2114661,7.2388687
1587369363503,-0.1376666,1.3120226,7.2149267
1587369363515,-0.1328782,1.3599066,7.2065473
1587369363525,-0.1400608,1.3910311,7.207744
1587369363537,-0.18195933,1.3742718,7.275979
1587369363547,-0.12330139,1.3874398,7.382521
1587369363559,-0.06943185,1.4329298,7.4232225
1587369363569,-0.047884032,1.3994108,7.4387846
1587369363581,-0.011971008,1.401805,7.478289
1587369363591,0.053869538,1.5035586,7.6051817
1587369363603,0.035913024,1.5825673,7.6985555
1587369363613,0.051475335,1.6579847,7.795521
1587369363625,0.051475335,1.7238252,7.916428
1587369363635,0.051475335,1.7238252,7.916428
1587369363647,-0.029927522,1.9057846,8.196549
1587369363657,-0.15083471,1.9620483,8.269572
1587369363669,-0.15562311,2.0015526,8.328231
1587369363679,-0.1364695,2.1643584,8.406042
1587369363691,-0.20829555,2.3307555,8.653842
1587369363701,-0.20829555,2.3307555,8.653842
1587369363713,-0.20350714,2.2888567,9.287108
1587369363723,-0.22026655,2.2732944,9.636662
1587369363735,-0.22026655,2.2732944,9.636662
1587369363745,-0.45609543,1.9381063,10.405201
1587369363757,-0.49081135,1.7441759,10.827777
1587369363767,-0.51714754,1.6376339,11.174936
1587369363779,-0.59495914,1.496376,11.530476
1587369363789,-0.6368576,1.4927847,11.71004
1587369363802,-0.5674258,1.7010803,11.676521
1587369363812,-0.40821138,1.8854338,11.464635
1587369363822,-0.095768064,2.0757728,11.368867
1587369363834,-0.095768064,2.0757728,11.368867
1587369363842,0.6428431,2.0147207,11.7064495
1587369363854,0.9588778,1.6627731,12.079945
1587369363866,1.2006922,1.3347675,12.533646
1587369363876,1.0749966,1.0247183,12.889185
1587369363888,0.9756372,0.6895301,13.069947
1587369363899,0.90859956,0.51116204,13.303382
1587369363909,0.8571242,0.48482585,13.318944
1587369363922,0.8367735,0.44771573,12.409147
1587369363932,0.8367735,0.44771573,12.409147
1587369363942,0.79367787,0.37110126,11.99495
1587369363954,0.7422025,0.24660277,11.786655
1587369363963,0.7206547,0.089782566,11.609484
1587369363975,0.6703765,-0.12689269,11.526884
1587369363988,0.6572084,-0.36511576,11.535264
1587369363998,0.61171854,-0.58298814,11.614272
1587369364010,0.5374983,-0.7697359,11.672931
1587369364020,0.30885202,-0.8595184,11.677719
1587369364030,0.08499416,-0.89184016,11.57836
1587369364042,-0.18914193,-0.51834464,10.666168
1587369364053,-0.3196259,-0.3196259,9.861717
1587369364063,-0.3196259,-0.3196259,9.861717
1587369364075,-0.33279404,0.2765303,8.437167
1587369364085,-0.36990416,0.50397944,7.7548194
1587369364097,-0.30526072,0.6631939,7.2580223
1587369364107,-0.22026655,0.81163436,6.8809357
1587369364119,-0.10295067,0.94810385,6.6307416
1587369364129,-0.019153614,1.1085154,6.3889275
1587369364141,0.045489833,1.4449008,6.1650696
1587369364152,-0.088585466,1.673547,6.0441623
1587369364162,-0.088585466,1.673547,6.0441623
1587369364174,-0.2777274,1.8746599,6.069301
1587369364184,-0.2777274,1.8746599,6.069301
1587369364196,-0.2908955,1.8722657,6.4248405
1587369364206,-0.24540567,1.8614918,6.70975
1587369364218,-0.19033903,1.816002,6.9587474
1587369364228,-0.053869538,1.7812861,7.1634517
1587369364240,0.15083471,1.8351556,7.4363904
1587369364249,0.20231004,1.9057846,7.60997
1587369364261,0.21188685,1.8986019,7.751228
1587369364273,0.33279404,2.078167,8.14268
1587369364281,0.33279404,2.078167,8.14268
1587369364293,0.23223756,2.1332338,8.425196
1587369364306,0.1364695,2.147599,8.595184
1587369364316,0.1364695,2.147599,8.595184
1587369364326,0.08140286,2.2469583,9.0081835
1587369364337,-0.0035913025,2.2828712,9.147048
1587369364348,-0.05267244,2.3116016,9.374496
1587369364360,-0.049081136,2.3642743,9.533711
1587369364369,-0.047884032,2.4277205,9.700109
1587369364380,0.01436521,2.4600422,9.944317
1587369364389,0.021547815,2.5318682,10.0903635
1587369364400,0.059855044,2.552219,10.363302
1587369364411,0.06344634,2.5270798,10.688913
1587369364422,0.14724341,2.5486276,11.329363
1587369364434,0.29927522,2.6599581,11.756727
1587369364444,0.22026655,2.6384103,12.2080345
1587369364455,-0.12330139,2.4181437,12.446258
1587369364466,-0.40102878,2.3319526,12.384008
1587369364477,-0.61411273,2.3199813,12.349293
1587369364488,-0.82121116,2.2457612,12.243947
1587369364496,-1.1085154,2.1152773,11.9374895
1587369364507,-1.3347675,1.8243817,11.7782755
1587369364518,-1.4221559,1.5155296,11.723208
1587369364529,-1.3694834,1.1623849,11.8261595
1587369364540,-0.9744401,0.34715924,12.127829
1587369364551,-0.59615624,0.05746084,12.302606
1587369364562,-0.59615624,0.05746084,12.302606
1587369364573,-0.272939,-0.28491,12.199655
1587369364584,-0.23343466,-0.2789245,11.768699
1587369364595,-0.5554548,0.061052144,10.411186
1587369364604,-0.85473,0.24061728,9.745598
1587369364615,-1.0881647,0.4225766,9.300277
1587369364628,-1.2306197,0.56982,9.0081835
1587369364637,-1.3670892,0.5781997,8.920795
1587369364648,-1.436521,0.545878,9.076419
1587369364659,-1.4903905,0.5470751,9.3421755
1587369364670,-1.4772224,0.48482585,9.599552
1587369364681,-1.411382,0.545878,9.621099
1587369364693,-1.364695,0.58538234,9.466674
1587369364703,-1.3108255,0.6392518,9.196129
1587369364714,-1.271321,0.79008657,8.809465
1587369364725,-1.1504139,0.93014735,8.377312
1587369364736,-1.0582372,1.1228806,8.013393
1587369364761,-0.9911995,1.3192052,7.27957
1587369364766,-0.8523358,1.4209588,7.0832458
1587369364774,-0.7529764,1.5705963,6.979098
1587369364783,-0.6967127,1.6424223,6.896498
1587369364808,-0.6655881,1.6699557,6.96593
1587369364815,-0.7445967,1.685518,7.1287355
1587369364822,-0.7697359,1.638831,7.153875
1587369364839,-0.7457938,1.5873557,7.241263
1587369364846,-0.6835446,1.5801731,7.285556
1587369364857,-0.6739678,1.5454572,7.335834
1587369364868,-0.61411273,1.5143325,7.417237
1587369364879,-0.5530606,1.5179238,7.5429325
1587369364890,-0.4225766,1.5765818,8.000225
1587369364902,-0.4321534,1.5682021,8.1163435
1587369364913,-0.4321534,1.5682021,8.1163435
1587369364924,-0.4417302,1.6711528,8.341399
1587369364935,-0.51954174,1.804031,8.408437
1587369364944,-0.6428431,1.8938135,8.483853
1587369364976,-0.6907272,2.3391352,8.815451
1587369364987,-0.6691794,2.4851813,8.983045
1587369364999,-0.6404489,2.60968,9.094376
1587369365010,-0.5793968,2.6527755,9.226056
1587369365013,-0.521936,2.7042508,9.455899
1587369365021,-0.40462008,2.6982653,9.794679
1587369365028,-0.40462008,2.6982653,9.794679
1587369365037,-0.39384618,2.4468741,10.7116585
1587369365046,-0.439336,2.2589293,11.285069
1587369365059,-0.46806642,2.1631613,11.739968
1587369365067,-0.46567222,2.1152773,12.09431
1587369365078,-0.46327803,2.0362685,12.216414
1587369365089,-0.35434186,2.0290859,12.211626
1587369365100,0.37229836,1.9728222,12.3038025
1587369365111,0.37229836,1.9728222,12.3038025
1587369365123,0.91338795,1.3706805,12.854469
1587369365134,1.0139444,0.7146692,13.409924
1587369365145,0.9947908,0.23343466,13.864822
1587369365156,0.90740246,-0.06703765,14.013263
1587369365214,0.94331545,1.1959038,11.52449
1587369365226,0.9983821,1.2976574,11.253945
1587369365237,1.1647792,1.4137762,11.145009
1587369365248,1.2150574,1.4544775,11.081563
1587369365259,0.7529764,1.2773066,11.03727
1587369365270,0.31004912,0.80924016,10.988189
1587369365281,0.1316811,0.7266402,10.776301
1587369365293,0.1316811,0.7266402,10.776301
1587369365304,-0.037110128,0.78170687,10.350134
1587369365315,-0.034715924,0.8331822,10.073604
1587369365324,-0.034715924,0.8678981,9.832987
1587369365334,0.011971008,1.0007763,9.459491
1587369365346,0.011971008,1.0007763,9.459491
1587369365358,0.044292733,1.2533646,8.607155
1587369365369,0.025139118,1.4137762,8.160637
1587369365380,0.016759412,1.5526398,7.7584105
1587369365391,0.06943185,1.6448165,7.3442135
1587369365402,0.12928689,1.8363527,6.8222775
1587369365413,0.18555063,1.910573,6.6546836
1587369365424,0.23343466,1.9500773,6.5241995
1587369365433,0.32680854,2.006341,6.4643445
1587369365444,0.32680854,2.006341,6.4643445
1587369365454,0.30526072,2.1930888,6.4260373
1587369365465,0.3184288,2.3008277,6.457162
1587369365476,0.24181437,2.408567,6.517017
1587369365487,0.21906945,2.5450363,6.530185
1587369365497,0.23223756,2.6072857,6.55293
1587369365508,0.2717419,2.6755204,6.5589156
1587369365519,0.29328972,2.7377696,6.5840545
1587369365530,0.30047232,2.8299465,6.775591
1587369365540,0.30047232,2.8299465,6.775591
1587369365551,0.23942018,2.8395233,7.1969705
1587369365562,0.23942018,2.8395233,7.1969705
1587369365573,0.25498247,2.755726,7.711724
1587369365584,0.21906945,2.7389667,7.908048
1587369365594,0.21906945,2.7389667,7.908048
1587369365605,0.22864626,2.658761,8.51857
1587369365616,0.19393034,2.5725696,8.781932
1587369365627,0.1388637,2.5474305,9.120711
1587369365638,0.094570965,2.5115175,9.449914
1587369365647,0.031124622,2.4396915,9.720459
1587369365658,-0.06344634,2.3882163,9.977836
1587369365669,-0.08140286,2.3523033,10.108319
1587369365679,-0.12449849,2.3008277,10.279505
1587369365690,-0.108936176,2.2469583,10.486604
1587369365701,0.16879122,2.3187842,11.267113
1587369365712,0.29209262,2.5450363,11.413159
1587369365723,0.21906945,2.5258827,11.677719
1587369365733,-0.034715924,2.5486276,11.857284
1587369365744,-0.034715924,2.5486276,11.857284
1587369365754,-0.6631939,2.9101522,11.947066
1587369365767,-1.1480197,2.8754363,11.783064
1587369365776,-1.5897499,2.802413,11.684901
1587369365787,-1.7513585,2.6072857,11.7303915
1587369365799,-1.6412252,2.3080103,11.86686
1587369365809,-1.4437037,1.922544,11.919533
1587369365819,-1.0546459,1.5071499,12.077551
1587369365831,-0.005985504,0.9995792,12.756307
1587369365841,-0.005985504,0.9995792,12.756307
1587369365852,0.4249708,0.6404489,12.326548
1587369365861,0.45729253,0.6332663,11.936293
1587369365872,0.3196259,0.6332663,11.331757
1587369365883,0.044292733,0.6368576,10.754754
1587369365894,0.044292733,0.6368576,10.754754
1587369365905,-0.5267244,0.7026982,10.03769
1587369365917,-0.8283938,0.6392518,9.970653
1587369365928,-1.2126632,0.6440403,9.878476
1587369365939,-1.1480197,0.7110779,9.744401
1587369365950,-1.1228806,0.8607155,9.537302
1587369365960,-0.93254155,1.0989386,8.750807
1587369365971,-0.7613561,1.3144168,8.401254
1587369365984,-0.6548142,1.4652514,8.037335
1587369365994,-0.6548142,1.4652514,8.037335
1587369366017,-0.4165911,1.553837,7.017405
1587369366025,-0.33518824,1.5885528,6.706159
1587369366041,-0.2777274,1.6041151,6.421249
1587369366047,-0.22266077,1.6208745,6.3182983
1587369366054,-0.15442601,1.6986861,6.301539
1587369366063,-0.19033903,1.7202339,6.2740054
1587369366072,-0.1328782,1.7657237,6.343437
1587369366085,-0.22744916,1.8171991,6.4248405
1587369366095,-0.34596214,1.875857,6.4739213
1587369366106,-0.439336,1.9632454,6.542156
1587369366117,-0.439336,1.9632454,6.542156
1587369366129,-0.4429273,1.9859903,6.671443
1587369366139,-0.39863458,2.005144,6.841431
1587369366150,-0.34237084,2.005144,7.098808
1587369366160,-0.19033903,2.0961237,7.53575
1587369366171,-0.19033903,2.0961237,7.53575
1587369366182,-0.142455,2.0733786,8.055291
1587369366191,-0.142455,2.0733786,8.055291
1587369366202,-0.142455,2.1655555,8.341399
1587369366213,-0.12569559,2.2529438,8.415619
1587369366223,-0.12569559,2.2529438,8.415619
1587369366234,0.022744916,2.4193408,8.689755
1587369366245,0.05865794,2.4229321,9.020155
1587369366256,0.11971009,2.4073699,9.333796
1587369366266,0.2633622,2.421735,9.856929
1587369366277,0.22984336,2.3989902,10.334572
1587369366288,0.14724341,2.291251,10.869676
1587369366297,0.09816227,2.1859062,11.409568
1587369366307,-0.022744916,2.098518,11.902774
1587369366318,-0.25378537,1.9716251,12.233173
1587369366329,-0.45250413,1.8842367,12.489353
1587369366342,-0.557849,1.9847932,12.582727
1587369366353,-0.78529817,2.0949266,12.397177
1587369366365,-0.17357962,2.2649148,12.307394
1587369366375,-0.17357962,2.2649148,12.307394
1587369366386,0.50757074,1.7848774,12.807782
1587369366398,0.7410054,1.271321,13.369223
1587369366405,0.8738836,0.81522566,13.980941
1587369366416,0.89064306,0.2896984,14.29937
1587369366428,0.8367735,-0.20111294,14.458584
1587369366440,0.7613561,-0.45250413,14.374787
1587369366452,0.46327803,-0.5590461,13.206416
1587369366461,0.49081135,-0.32561144,12.233173
1587369366473,0.49081135,-0.32561144,12.233173
1587369366484,0.78290397,0.2908955,10.721235
1587369366496,0.8607155,0.37229836,10.048465
1587369366505,1.0271125,0.47644615,9.720459
1587369366518,1.3180081,0.62608373,9.613917
1587369366528,1.4999673,0.56982,9.662998
1587369366539,1.5562311,0.37948096,9.768343
1587369366550,1.5717934,0.18315643,9.902418
1587369366561,1.5167267,-0.07182605,10.101137
1587369366572,1.5167267,-0.07182605,10.101137
1587369366582,0.94570965,-0.30645782,9.676167
1587369366594,0.6859388,-0.29328972,9.391256
1587369366605,0.46088383,-0.25258827,9.077616
1587369366615,0.2825158,-0.17836803,8.74123
1587369366626,0.20949265,-0.074220255,8.414422
1587369366637,0.16639702,0.010773907,8.090008
1587369366648,0.20111294,0.076614454,7.8769236
1587369366660,0.2801216,0.1364695,7.715315
1587369366670,0.31124622,0.20590134,7.523779
1587369366682,0.2873042,0.51355624,7.1251445
1587369366692,0.2873042,0.51355624,7.1251445
1587369366704,0.12090719,0.89902276,6.679823
1587369366714,0.051475335,1.1073183,6.455965
1587369366726,-0.01316811,1.282095,6.2488666
1587369366734,-0.093373865,1.3802572,6.0848637
1587369366746,-0.17836803,1.471237,6.0238113
1587369366758,-0.16160862,1.5945383,6.159084
1587369366768,-0.1592144,1.6771383,6.351817
1587369366780,-0.20709845,1.6891093,6.6056023
1587369366790,-0.23702596,1.7310078,6.932411
1587369366802,-0.37588966,2.0254946,7.7548194
1587369366812,-0.39983168,2.1440077,8.028955
1587369366824,-0.39983168,2.1440077,8.028955
1587369366834,-0.31364042,2.3810337,8.584411
1587369366846,-0.29209262,2.4025815,8.874108
1587369366856,-0.20231004,2.4277205,9.235633
1587369366868,-0.12449849,2.4744074,9.551667
1587369366878,-0.15442601,2.4660277,9.886856
1587369366891,-0.15083471,2.4480712,10.283096
1587369366901,-0.19871874,2.420538,10.8948145
1587369366911,-0.2753332,2.3546975,11.139024
1587369366923,-0.2753332,2.3546975,11.139024
1587369366934,-0.4417302,2.2960393,11.502942
1587369366943,-0.51714754,2.243367,11.622652
1587369366958,-0.5422867,2.195483,11.731588
1587369366965,-0.427365,2.2601264,11.792641
1587369366978,-0.32920274,2.303222,11.84651
1587369366988,-0.2873042,2.220622,12.0248785
1587369367002,-0.18674773,2.1978772,12.348095
1587369367012,-0.31483752,2.0530279,12.393585
1587369367022,-0.31483752,2.0530279,12.393585
1587369367032,-0.90859956,1.2545617,12.706028
1587369367044,-0.961272,0.59495914,13.103466
1587369367054,-1.0354922,-0.06943185,13.508086
1587369367066,-0.81881696,-0.7158663,13.850457
1587369367076,-0.40940848,-1.2150574,14.216769
1587369367088,-0.25019407,-1.6879122,14.343662
1587369367098,-0.23702596,-2.0602105,14.205996
1587369367110,-0.17717093,-2.0961237,13.87799
1587369367120,-0.31483752,-1.8112136,13.133393
1587369367133,-1.163582,-1.1923125,11.058818
1587369367143,-1.6089035,-0.82001406,9.996989
1587369367153,-1.6089035,-0.82001406,9.996989
1587369367165,-2.0614076,-0.20590134,8.554482
1587369367174,-2.0614076,-0.20590134,8.554482
1587369367186,-2.042254,0.34356794,7.8086886
1587369367196,-1.910573,0.5410896,7.65546
1587369367207,-1.7250223,0.6536171,7.577648
1587369367219,-1.5598224,0.78649527,7.4148426
1587369367230,-1.4030021,0.90500826,7.297527
1587369367240,-1.1540052,1.0103531,7.207744
1587369367253,-0.81642276,1.103727,7.035362
1587369367263,-0.59136784,1.1085154,6.8785415
1587369367272,-0.59136784,1.1085154,6.8785415
1587369367286,-0.45968673,1.1336545,6.8665705
1587369367296,-0.41060558,1.1599907,6.8581905
1587369367306,-0.41060558,1.1599907,6.8581905
1587369367318,-0.39863458,1.3383588,6.975507
1587369367328,-0.37948096,1.3910311,7.0245876
1587369367340,-0.4261679,1.4915876,7.132327
1587369367350,-0.45130703,1.5454572,7.229292
1587369367362,-0.557849,1.5454572,7.4962454
1587369367372,-0.557849,1.5454572,7.4962454
1587369367384,-0.59615624,1.5215151,7.7548194
1587369367392,-0.5554548,1.4927847,7.8757267
1587369367404,-0.5554548,1.4927847,7.8757267
1587369367416,-0.5243302,1.5059528,8.090008
1587369367426,-0.49919105,1.5454572,8.158242
1587369367439,-0.4357447,1.6304513,8.167819
1587369367449,-0.37948096,1.70946,8.169016
1587369367460,-0.3172317,1.8016368,8.154651
1587369367471,-0.23942018,1.9369092,8.258799
1587369367481,-0.17836803,2.2146366,8.377312
1587369367493,-0.10295067,2.3654714,8.488642
1587369367501,-0.10295067,2.3654714,8.488642
1587369367514,0.047884032,2.5761611,9.002198
1587369367523,0.025139118,2.5773582,9.323022
1587369367534,0.033518825,2.5270798,9.609129
1587369367546,0.029927522,2.4372973,9.959879
1587369367557,0.008379706,2.3918076,10.314221
1587369367568,-0.011971008,2.2613235,10.642226
1587369367579,-0.08259996,2.1176715,11.025299
1587369367590,-0.1316811,1.9859903,11.399991
1587369367601,-0.21787235,1.8734628,11.77229
1587369367610,-0.2789245,1.8806454,12.071565
1587369367621,-0.2789245,1.8806454,12.071565
1587369367633,-0.02873042,2.0099323,11.85489
1587369367645,0.32441434,2.232593,11.579556
1587369367655,0.32441434,2.232593,11.579556
1587369367667,1.2078748,2.304419,11.7782755
1587369367677,1.4149733,2.0374656,11.96622
1587369367689,1.5586253,1.6639702,12.4151325
1587369367699,1.1671734,0.7445967,13.364434
1587369367711,0.90381116,0.16160862,13.65533
1587369367719,0.90381116,0.16160862,13.65533
1587369367732,0.9720459,0.08140286,13.044808
1587369367742,1.163582,0.23223756,12.562376
1587369367755,1.163582,0.23223756,12.562376
1587369367765,1.471237,0.60693014,11.737574
1587369367775,1.4867992,0.5758055,11.390414
1587369367787,1.5286977,0.6428431,11.109096
1587369367797,1.4652514,0.60453594,10.85531
1587369367809,1.3623008,0.48123455,10.579977
1587369367819,1.2366052,0.40222588,10.340557
1587369367831,1.0522517,0.31603462,9.868899
1587369367842,0.94451255,0.31244332,9.703699
1587369367852,0.94451255,0.31244332,9.703699
1587369367863,0.82240826,0.47884035,9.238028
1587369367875,0.6799533,0.5614403,8.954314
1587369367884,0.5686229,0.6847417,8.626308
1587369367895,0.49440265,0.8475474,8.201338
1587369367906,0.44651863,0.9828198,7.739257
1587369367918,0.46567222,1.1504139,7.026982
1587369367929,0.50996494,1.2186487,6.7468605
1587369367940,0.6404489,1.2066777,6.588843
1587369367949,0.6404489,1.2066777,6.588843
1587369367960,0.7386112,1.2413936,6.564901
1587369367971,0.748188,1.2785037,6.6056023
1587369367983,0.748188,1.3204023,6.671443
1587369367994,0.7015011,1.3623008,6.694188
1587369368006,0.581791,1.4221559,6.70975
1587369368015,0.45489833,1.5526398,6.6187706
1587369368025,0.33279404,1.7142484,6.543353
1587369368036,0.33279404,1.7142484,6.543353
1587369368045,0.17238252,2.0254946,6.7803793
1587369368056,0.092176765,2.1045034,6.884527
1587369368067,0.07062895,2.2026656,7.062895
1587369368078,0.047884032,2.3259668,7.335834
1587369368088,0.011971008,2.4193408,7.577648
1587369368099,-0.017956512,2.4839842,7.8422074
1587369368110,-0.10055647,2.597709,8.431181
1587369368121,-0.09816227,2.574964,8.695741
1587369368132,-0.020350715,2.6791117,9.166202
1587369368143,-0.02633622,2.731784,9.391256
1587369368152,-0.02633622,2.731784,9.391256
1587369368163,0.0011971008,2.8395233,9.941922
1587369368174,-0.049081136,2.8203697,10.262746
1587369368184,-0.11372458,2.72939,10.5285015
1587369368195,-0.18674773,2.6396074,10.861296
1587369368207,-0.16998832,2.5558102,11.130644
1587369368218,-0.12928689,2.433706,11.403583
1587369368229,0.008379706,2.337938,11.604695
1587369368242,0.34356794,2.3331497,12.188881
1587369368251,0.34356794,2.3331497,12.188881
1587369368263,0.30166942,2.147599,12.6354
1587369368274,0.06823475,2.1260512,12.706028
1587369368285,0.06823475,2.1260512,12.706028
1587369368296,-0.7086837,1.5598224,12.594698
1587369368308,-1.0690111,1.1360487,12.708423
1587369368316,-1.1192893,0.724246,12.756307
1587369368327,-0.9648633,0.17477672,12.90355
1587369368338,-0.7074866,-0.31124622,13.018472
1587369368349,-0.2837129,-0.82719666,13.23395
1587369368360,0.4405331,-1.4161704,13.910312
1587369368369,0.40581718,-1.5466543,13.838486
1587369368380,0.16879122,-1.4748282,13.437457
1587369368391,-0.94690675,-0.9504981,11.750742
1587369368402,-0.94690675,-0.9504981,11.750742
1587369368412,-2.0231004,-0.29688102,9.959879
1587369368423,-2.3008277,0.005985504,9.357738
1587369368434,-2.3008277,0.005985504,9.357738
1587369368445,-2.5103204,0.35194764,8.790312
1587369368456,-2.4073699,0.48841715,8.8645315
1587369368467,-2.2002714,0.5506664,9.027337
1587369368475,-2.0003555,0.61530983,9.109938
1587369368486,-1.7872716,0.6452374,8.981848
1587369368517,-1.3850456,0.93493575,8.24563
1587369368530,-1.3275849,1.0139444,7.8613615
1587369368533,-1.3275849,1.0139444,7.8613615
1587369368539,-1.198298,1.1145009,7.491457
1587369368548,-1.0833763,1.1540052,7.2364745
1587369368557,-0.94451255,1.2090719,6.9850836
1587369368567,-0.89543146,1.2892777,6.8665705
1587369368600,-0.35314476,1.5801731,6.555324
1587369368611,-0.25737667,1.6699557,6.5804634
1587369368623,-0.25378537,1.6603789,6.633136
1587369368634,-0.25378537,1.6603789,6.633136
1587369368645,-0.272939,1.7537527,6.8869214
1587369368656,-0.30645782,1.7082629,7.067683
1587369368659,-0.30645782,1.7082629,7.067683
1587369368664,-0.30286652,1.6603789,7.311892
1587369368671,-0.272939,1.6747441,7.5345526
1587369368679,-0.272939,1.6747441,7.5345526
1587369368688,-0.21787235,1.70946,7.7919292
1587369368701,-0.16280572,1.6986861,7.965509
1587369368710,-0.15682021,1.7932571,8.1642275
1587369368721,-0.17717093,1.9033904,8.186973
1587369368732,-0.17717093,1.9033904,8.186973
1587369368743,-0.2693477,2.2026656,8.098388
1587369368756,-0.35194764,2.3080103,8.079233
1587369368765,-0.48482585,2.4121583,8.1319065
1587369368776,-0.48722005,2.528277,8.279149
1587369368786,-0.5494693,2.64679,8.322245
1587369368797,-0.50757074,2.6850972,8.535329
1587369368806,-0.24779987,2.8395233,8.993818
1587369368817,-0.12569559,2.8083985,9.291897
1587369368828,-0.07182605,2.7748797,9.536105
1587369368840,0.011971008,2.7593174,10.243592
1587369368853,-0.06943185,2.6671407,10.542868
1587369368863,-0.15682021,2.5773582,10.887632
1587369368873,-0.24181437,2.5330653,11.137826
1587369368885,-0.24181437,2.5330653,11.137826
1587369368895,-0.36511576,2.4349031,11.56998
1587369368907,-0.37229836,2.4181437,11.625047
1587369368915,-0.35194764,2.409764,11.446678
1587369368927,-0.1328782,2.5797524,11.147403
1587369368939,0.23582886,2.7138276,10.92594
1587369368949,0.5626374,2.7605145,10.839748
1587369368962,1.3814543,3.071761,11.0061455
1587369368972,1.7142484,3.0681696,11.45865
1587369368982,1.7142484,3.0681696,11.45865
1587369368994,1.8483237,2.566584,11.996147
1587369369004,1.7441759,2.268506,12.157756
1587369369016,1.6244658,1.8950106,12.389994
1587369369024,1.5059528,1.412579,12.534843
1587369369036,1.352724,1.2797008,12.471396
1587369369047,1.2138603,1.1013328,12.376825
1587369369058,1.1097125,0.9744401,12.388797
1587369369069,0.9756372,0.8643068,12.452243
1587369369081,0.9516952,0.688333,12.315774
1587369369091,1.091756,0.34835634,11.955446
1587369369102,1.2509704,0.12090719,11.759122
1587369369114,1.3970166,0.0035913025,11.567586
1587369369124,1.4377182,-0.05746084,11.228806
1587369369135,1.4437037,-0.08619126,10.771513
1587369369147,1.4628572,-0.01436521,10.389638
1587369369156,1.4425066,0.18435353,9.883265
1587369369167,1.3395559,0.36990416,9.374496
1587369369179,1.2797008,0.5758055,8.834604
1587369369190,1.2246342,0.80924016,8.295909
1587369369201,1.198298,1.2366052,7.442376
1587369369212,1.198298,1.2366052,7.442376
1587369369223,1.0175357,1.4580688,6.8366427
1587369369234,0.89543146,1.5574282,6.6415157
1587369369243,0.7218518,1.7729063,6.3865333
1587369369254,0.5770026,1.8842367,6.3470287
1587369369264,0.5770026,1.8842367,6.3470287
1587369369275,0.35075054,2.1045034,6.2380924
1587369369286,0.30645782,2.1859062,6.1542954
1587369369297,0.2896984,2.2709002,6.051345
1587369369309,0.2705448,2.3558946,6.030994
1587369369322,0.3196259,2.5258827,6.105214
1587369369332,0.3196259,2.5258827,6.105214
1587369369344,0.32321724,2.7365725,6.50744
1587369369352,0.22266077,2.801216,6.8222775
1587369369364,0.22266077,2.801216,6.8222775
1587369369376,0.044292733,2.8431146,7.369353
1587369369386,-0.0035913025,2.8921957,7.597999
1587369369398,-0.038307227,2.8562827,7.8888946
1587369369408,-0.044292733,2.8754363,8.160637
1587369369422,-0.037110128,2.7617116,8.706514
1587369369432,-0.037110128,2.7617116,8.706514
1587369369441,-0.088585466,2.633622,9.167398
1587369369453,-0.03232172,2.610877,9.409213
1587369369460,-0.03232172,2.610877,9.409213
1587369369471,0.01316811,2.5330653,9.7863
1587369369483,0.0011971008,2.5151088,9.832987
1587369369494,0.016759412,2.4289176,9.844957
1587369369505,0.04189853,2.3810337,9.962274
1587369369515,0.074220255,2.3523033,10.159795
1587369369526,0.20111294,2.3786395,10.409989
1587369369537,0.22385786,2.396596,10.778696
1587369369548,0.1448492,2.3223755,11.042058
1587369369559,0.077811554,2.4636335,11.316195
1587369369568,-0.18195933,2.4468741,11.6825075
1587369369579,-0.6859388,2.0171149,12.082339
1587369369590,-1.2150574,1.1504139,13.170504
1587369369601,-1.292869,0.44532153,13.757083
1587369369611,-1.292869,0.44532153,13.757083
1587369369622,-0.8631097,-1.4137762,14.657303
1587369369633,-0.5231331,-1.8590976,15.180436
1587369369644,-0.2633622,-2.2972364,15.295358
1587369369655,-0.01316811,-2.493561,15.14572
1587369369666,0.062249243,-2.2720973,14.653711
1587369369676,-0.12928689,-1.7872716,13.864822
1587369369688,-1.4293385,-1.1384429,11.4598465
1587369369698,-2.086547,-0.7781156,10.41358
1587369369711,-2.5486276,-0.40462008,9.594764
1587369369721,-2.908955,0.20470424,8.598776
1587369369731,-2.908955,0.20470424,8.598776
1587369369743,-2.741361,0.58777654,8.511387
1587369369753,-2.4971523,0.6835446,8.696938
1587369369765,-2.4971523,0.6835446,8.696938
1587369369775,-1.8626889,0.89662856,8.65863
1587369369787,-1.5933412,0.94930094,8.407239
1587369369797,-1.3036429,1.0749966,8.098388
1587369369809,-1.0618285,1.2545617,7.762002
1587369369819,-0.93732995,1.34195,7.5070195
1587369369832,-0.82121116,1.3682863,7.3968863
1587369369842,-0.7637503,1.389834,7.4136457
1587369369852,-0.7769185,1.3503298,7.4950485
1587369369864,-0.7769185,1.3503298,7.4950485
1587369369874,-0.7661445,1.3551182,7.5944076
1587369369886,-0.79248077,1.3682863,7.5429325
1587369369894,-0.842759,1.436521,7.562086
1587369369906,-0.81163436,1.5813702,7.499837
1587369369919,-0.6991069,1.6555905,7.4351935
1587369369929,-0.6667852,1.6567876,7.4208283
1587369369939,-0.5638345,1.6687586,7.3897038
1587369369951,-0.34237084,1.7717092,7.4711065
1587369369961,-0.34237084,1.7717092,7.4711065
1587369369973,-0.22625206,1.6950948,7.7428484
1587369369982,-0.18674773,1.7070658,7.8589673
1587369369993,-0.15682021,1.6759412,8.000225
1587369370002,-0.11971009,1.7070658,8.11395
1587369370013,-0.11971009,1.7070658,8.11395
1587369370025,-0.17357962,1.8495208,8.276755
1587369370036,-0.23104046,1.970428,8.271967
1587369370047,-0.21068975,2.1416135,8.234857
1587369370059,-0.10055647,2.3331497,8.232463
1587369370069,-0.021547815,2.456451,8.293514
1587369370081,0.077811554,2.5881321,8.53892
1587369370091,0.28491,2.6048915,9.417592
1587369370103,0.35434186,2.5917234,9.830592
1587369370111,0.35434186,2.5917234,9.830592
1587369370123,0.34715924,2.2290018,11.332953
1587369370135,0.16280572,2.0458453,11.850101
1587369370145,0.16280572,2.0458453,11.850101
1587369370157,-0.18674773,1.9273324,12.548011
1587369370167,-0.35673606,2.0386627,12.665327
1587369370179,-0.5303157,2.0721815,12.698846
1587369370190,-0.51954174,2.207454,12.422316
1587369370201,-0.50996494,2.4025815,12.204443
1587369370211,-0.19871874,2.552219,12.182896
1587369370223,0.18195933,2.4229321,12.322956
1587369370233,0.31004912,2.0099323,12.780249
1587369370245,0.31004912,2.0099323,12.780249
1587369370255,0.32920274,1.1288661,13.860034
1587369370267,0.11252748,0.7338228,14.087482
1587369370277,-0.074220255,0.40102878,14.324509
1587369370288,-0.25019407,0.2681506,14.255077
1587369370300,-0.36511576,0.24779987,13.831304
1587369370309,-0.4225766,0.3196259,13.214796
1587369370321,-0.08140286,0.6596026,12.299014
1587369370328,-0.08140286,0.6596026,12.299014
1587369370339,0.009576807,0.6871359,11.874043
1587369370351,0.58538234,0.45848963,11.493365
1587369370363,0.58538234,0.45848963,11.493365
1587369370375,0.7433996,0.21188685,11.348516
1587369370385,0.80564886,0.142455,11.198878
1587369370397,0.80564886,0.142455,11.198878
1587369370407,0.7386112,0.17717093,10.443508
1587369370419,0.6751649,0.33279404,9.856929
1587369370429,0.65242,0.5446809,9.227253
1587369370441,0.59376204,0.7661445,8.588001
1587369370451,0.47524905,0.973243,8.00621
1587369370463,0.3878607,1.1575965,7.417237
1587369370473,0.47884035,1.4508862,6.4990606
1587369370485,0.5279215,1.5514427,6.1123967
1587369370495,0.5279215,1.5514427,6.1123967
1587369370507,0.58777654,1.6567876,5.568913
1587369370517,0.62488663,1.6998832,5.433641
1587369370529,0.6404489,1.6986861,5.3043537
1587369370539,0.60693014,1.7262194,5.2528787
1587369370551,0.48961425,1.8004397,5.4025164
1587369370562,0.48961425,1.8004397,5.4025164
1587369370573,0.25498247,1.7561469,5.543774
1587369370584,0.24181437,1.7968484,5.518635
1587369370593,0.24181437,1.7968484,5.518635
1587369370605,0.22026655,1.958457,5.592855
1587369370616,0.14963761,2.0326772,5.767632
1587369370627,0.04189853,2.1200657,6.0441623
1587369370638,-0.03232172,2.2457612,6.411672
1587369370651,-0.16519992,2.2732944,7.291541
1587369370656,-0.16519992,2.2732944,7.291541
1587369370669,-0.33518824,2.2517467,7.5213847
1587369370680,-0.36990416,2.1823149,7.750031
1587369370691,-0.30286652,2.2744915,7.878121
1587369370702,-0.32680854,2.4001873,7.9930425
1587369370713,-0.34596214,2.432509,8.137892
1587369370724,-0.37349546,2.4827871,8.408437
1587369370735,-0.3842694,2.505532,8.780735
1587369370746,-0.40222588,2.528277,9.14585
1587369370758,-0.415394,2.4756045,9.498995
1587369370765,-0.4381389,2.3906105,9.791088
1587369370778,-0.22984336,2.304419,10.207679
1587369370789,-0.03232172,2.2720973,10.7356
1587369370801,0.031124622,2.2720973,12.181698
1587369370811,0.031124622,2.2720973,12.181698
1587369370823,-0.35194764,2.1080947,12.233173
1587369370833,-0.5434838,2.1643584,12.332533
1587369370845,-0.5434838,2.1643584,12.332533
1587369370855,-1.3096284,1.6376339,12.79222
1587369370867,-1.4556746,1.0223241,13.324929
1587369370875,-1.4449008,0.60214174,13.737929
1587369370887,-1.3479356,0.07062895,13.966576
1587369370899,-1.0103531,-0.35075054,14.267048
1587369370910,-0.7218518,-0.6619968,14.440627
1587369370920,-0.62847793,-0.94810385,14.441825
1587369370932,-0.50278234,-0.8367735,13.711593
1587369370942,-0.50278234,-0.8367735,13.711593
1587369370954,-1.0342951,-0.46088383,11.692084
1587369370964,-1.2916719,-0.23582886,10.68652
1587369370976,-1.4317327,0.06823475,9.85214
1587369370984,-1.5023615,0.17477672,9.357738
1587369370996,-1.3706805,0.19752164,9.139865
1587369371008,-1.2389994,0.23702596,9.148245
1587369371018,-1.0977415,0.18794483,9.246407
1587369371029,-0.7314286,0.17477672,9.3733
1587369371042,-0.65242,0.25857377,9.257181
1587369371051,-0.7793127,0.32561144,8.775947
1587369371063,-0.8535329,0.4381389,8.488642
1587369371072,-0.8822633,0.51714754,8.163031
1587369371083,-0.8451532,0.5303157,7.9008656
1587369371093,-0.8451532,0.5303157,7.9008656
1587369371104,-0.5327099,0.6344634,7.3753386
1587369371116,-0.33877954,0.676362,7.1514807
1587369371126,-0.09696517,0.7733272,6.9407907
1587369371138,-0.05267244,0.80684596,6.6606693
1587369371148,0.021547815,0.90979666,6.5086374
1587369371161,0.038307227,0.985214,6.465542
1587369371171,0.061052144,1.0546459,6.417658
1587369371181,-0.22146365,1.1599907,6.5218053
1587369371192,-0.22146365,1.1599907,6.5218053
1587369371202,-0.4297592,1.3180081,6.757634
1587369371213,-0.5482722,1.364695,6.963536
1587369371224,-0.6392518,1.3934253,7.2448545
1587369371235,-0.6991069,1.436521,7.583634
1587369371246,-0.8403648,1.4293385,8.167819
1587369371259,-0.80804306,1.520318,8.371326
1587369371268,-0.7457938,1.6172832,8.514978
1587369371280,-0.58418524,1.7992426,8.983045
1587369371289,-0.58418524,1.7992426,8.983045
1587369371301,-0.3184288,1.9500773,9.685743
1587369371308,-0.3184288,1.9500773,9.685743
1587369371319,-0.20709845,1.9297266,10.085575
1587369371330,-0.31004912,1.7980455,10.994174
1587369371341,-0.31004912,1.7980455,10.994174
1587369371353,-0.61171854,1.5143325,11.828553
1587369371365,-0.8655039,1.4425066,12.217611
1587369371377,-0.8655039,1.4425066,12.217611
1587369371387,-1.2880806,1.174356,12.73835
1587369371399,-1.3311762,1.2880806,12.831724
1587369371409,-1.3347675,1.3838485,12.72997
1587369371422,-1.1097125,1.4221559,12.543222
1587369371432,-0.17597382,1.6256629,12.422316
1587369371442,-0.17597382,1.6256629,12.422316
1587369371454,0.36272156,1.2401965,12.750321
1587369371463,0.45968673,0.45609543,13.3704195
1587369371475,0.45968673,0.45609543,13.3704195
1587369371486,-0.07062895,-0.31364042,13.628993
1587369371497,-0.22744916,-0.5410896,13.546393
1587369371508,-0.3184288,-0.62488663,13.4183035
1587369371519,-0.30526072,-0.7290344,13.255498
1587369371529,-0.23343466,-0.94690675,13.110648
1587369371541,-0.12569559,-1.0474633,13.103466
1587369371551,-0.007182605,-1.2665327,12.750321
1587369371563,0.033518825,-1.34195,12.355278
1587369371573,0.033518825,-1.34195,12.355278
1587369371585,0.20949265,-1.2892777,11.252748
1587369371596,0.2908955,-1.1815386,10.710462
1587369371606,0.4417302,-1.0654198,10.292673
1587369371617,0.5267244,-1.0510546,9.915586
1587369371630,0.62608373,-1.0067618,9.563639
1587369371637,0.6955156,-0.78290397,9.137471
1587369371649,0.7062895,-0.62368953,8.76996
1587369371661,0.6811504,-0.23582886,7.747637
1587369371671,0.6811504,-0.23582886,7.747637
1587369371682,0.748188,0.34356794,6.247669
1587369371694,0.81283146,0.5626374,5.8693852
1587369371703,0.8571242,0.712275,5.5701103
1587369371714,0.93732995,0.8750807,5.380968
1587369371725,0.93732995,0.8750807,5.380968
1587369371736,1.021127,1.3108255,5.294777
1587369371745,1.0498575,1.5071499,5.3043537
1587369371755,0.9923966,1.6484078,5.365406
1587369371766,0.91458505,1.7286136,5.54138
1587369371779,0.80445176,1.7992426,5.7664347
1587369371791,0.736217,1.8543092,6.0046577
1587369371802,0.51954174,1.9201498,6.7600284
1587369371812,0.4381389,1.9871874,7.1610575
1587369371824,0.4381389,1.9871874,7.1610575
1587369371834,0.29448682,1.9931729,7.7332716
1587369371846,0.25857377,2.043451,8.015787
1587369371854,0.20590134,2.1045034,8.258799
1587369371866,0.12090719,2.1691468,8.524555
1587369371878,0.08259996,2.2266076,8.74123
1587369371888,-0.03232172,2.2110453,9.004593
1587369371900,-0.08619126,2.244564,9.26556
1587369371910,-0.2861071,2.3822308,9.880871
1587369371923,-0.39504328,2.3295584,10.134656
1587369371933,-0.557849,2.3211784,10.498574
1587369371943,-0.5722142,2.2756886,10.625467
1587369371955,-0.56982,2.1799207,10.769119
1587369371963,-0.50757074,2.1284454,10.892421
1587369371975,-0.50757074,2.1284454,10.892421
1587369371987,-0.39504328,1.9536686,11.080365
1587369371997,-0.22026655,1.9812019,11.137826
1587369372009,-0.06703765,1.9632454,11.347319
1587369372019,-0.093373865,1.8064252,11.596316
1587369372032,-0.2741361,1.4784195,11.938686
1587369372042,-0.58657944,1.2066777,12.129025
1587369372052,-1.0127473,0.8499416,12.460623
1587369372063,-1.4065934,0.34476504,12.862848
1587369372072,-1.4065934,0.34476504,12.862848
1587369372083,-1.685518,-0.7206547,13.548787
1587369372099,-1.4628572,-1.2964603,13.515268
1587369372109,-1.151611,-1.6256629,13.554773
1587369372119,-0.8499416,-1.8830396,13.605051
1587369372128,-0.6356605,-2.043451,13.06037
1587369372139,-0.50996494,-1.6136919,12.570756
1587369372149,-0.7350199,-1.3036429,11.708843
1587369372161,-1.4808137,-0.7505822,10.013748
1587369372172,-1.4808137,-0.7505822,10.013748
1587369372181,-1.661576,-0.21787235,9.15423
1587369372192,-1.6089035,-0.029927522,9.051279
1587369372203,-1.4736311,0.08020575,9.188946
1587369372214,-1.3443443,0.1592144,9.336189
1587369372225,-1.1971009,0.2621651,9.403227
1587369372236,-1.0223241,0.38307226,9.336189
1587369372246,-0.82240826,0.51235914,9.141062
1587369372257,-0.6847417,0.59855044,8.803479
1587369372268,-0.59855044,0.6512229,8.576031
1587369372279,-0.49200845,0.79966336,8.289924
1587369372288,-0.4441244,0.90261406,7.920019
1587369372299,-0.47046062,0.9672575,7.715315
1587369372310,-0.46327803,1.1300632,7.505822
1587369372321,-0.49919105,1.3084313,7.2927384
1587369372331,-0.50517654,1.4652514,6.9719152
1587369372342,-0.4165911,1.5957354,6.921637
1587369372353,-0.4165911,1.5957354,6.921637
1587369372364,-0.21787235,1.7764976,6.7648168
1587369372375,-0.06703765,1.8423382,6.907272
1587369372386,-0.022744916,1.9752164,6.999449
1587369372394,-0.046686932,1.9213469,7.121553
1587369372405,-0.046686932,1.9213469,7.121553
1587369372416,-0.005985504,1.8483237,7.553706
1587369372427,0.06703765,1.8028339,7.8769236
1587369372438,0.079008654,1.7477672,8.206126
1587369372449,0.038307227,1.7166426,8.479065
1587369372460,0.033518825,1.733402,8.853758
1587369372471,0.033518825,1.733402,8.853758
1587369372482,-0.034715924,1.9213469,8.937555
1587369372493,-0.022744916,2.0374656,8.899248
1587369372502,-0.022744916,2.0374656,8.899248
1587369372513,0.022744916,2.3714569,8.821436
1587369372524,0.06943185,2.4959552,8.791509
1587369372535,0.17597382,2.622848,8.892065
1587369372546,0.32321724,2.7090392,9.147048
1587369372557,0.37229836,2.7114334,9.489418
1587369372568,0.32321724,2.6036944,9.868899
1587369372578,0.14963761,2.4181437,10.714052
1587369372589,-0.03232172,2.2661119,11.061212
1587369372600,-0.12330139,2.1667526,11.285069
1587369372609,-0.16160862,2.2146366,11.457452
1587369372620,-0.1364695,2.2493525,11.488577
1587369372630,0.17477672,2.5845408,11.1174755
1587369372642,0.5470751,2.6791117,11.044453
1587369372653,0.5470751,2.6791117,11.044453
1587369372663,0.8331822,2.2457612,11.402386
1587369372674,0.9864111,1.697489,12.075156
1587369372685,0.8475474,1.1336545,12.765883
1587369372696,0.92775315,0.48482585,13.210008
1587369372707,0.9672575,0.05626374,13.676877
1587369372716,0.93972415,-0.20350714,13.63857
1587369372727,0.8535329,-0.35793316,13.350069
1587369372738,1.0390835,-0.16519992,13.018472
1587369372749,1.2725182,0.21547815,12.447454
1587369372759,1.4377182,0.49440265,11.871649
1587369372771,1.4676456,0.7721301,11.21085
1587369372781,1.4089876,0.8499416,10.512939
1587369372792,1.1540052,0.664391,10.26514
1587369372803,1.1540052,0.664391,10.26514
1587369372814,0.997185,0.47046062,10.289082
1587369372823,0.80325466,0.31364042,10.253169
1587369372833,0.6356605,0.19632454,10.111911
1587369372844,0.51834464,0.22146365,10.001778
1587369372856,0.38307226,0.2861071,9.763555
1587369372868,0.19393034,0.35434186,9.399636
1587369372881,0.07182605,0.50757074,8.973468
1587369372891,0.12689269,0.92895025,7.955932
1587369372901,0.12689269,0.92895025,7.955932
1587369372913,0.36272156,1.2258313,7.132327
1587369372923,0.51235914,1.34195,6.951565
1587369372935,0.59855044,1.3335704,6.8007298
1587369372945,0.6943185,1.3060371,6.7145386
1587369372957,0.6979098,1.365892,6.673837
1587369372967,0.7386112,1.4413095,6.669049
1587369372979,0.7026982,1.5873557,6.6079965
1587369372991,0.45968673,1.8124107,6.4344172
1587369373001,0.45968673,1.8124107,6.4344172
1587369373011,0.2633622,2.2158337,6.6403184
1587369373023,0.17836803,2.2972364,6.894104
1587369373034,0.130484,2.3630772,7.177817
1587369373043,0.055066638,2.408567,7.404069
1587369373054,0.055066638,2.408567,7.404069
1587369373065,0.047884032,2.5737667,7.6973586
1587369373076,0.079008654,2.6874914,7.831434
1587369373089,0.06943185,2.7712884,7.9511437
1587369373099,0.08619126,2.8658595,8.055291
1587369373111,0.1448492,2.9987376,8.593987
1587369373120,0.1448492,2.9987376,8.593987
1587369373132,0.17717093,3.0466216,9.113529
1587369373144,0.2825158,3.0777464,9.334992
1587369373152,0.2825158,3.0777464,9.334992
1587369373165,0.24420857,2.9843724,9.886856
1587369373175,0.2801216,2.9472623,10.128671
1587369373187,0.20470424,2.8790276,10.44231
1587369373197,0.15083471,2.7832594,10.630256
1587369373209,0.15322891,2.7617116,10.709264
1587369373219,0.24779987,2.7269957,10.736797
1587369373232,0.34835634,2.693477,10.866084
1587369373242,0.78888947,2.6839,11.81778
1587369373252,0.78888947,2.6839,11.81778
1587369373264,0.40581718,2.4779987,12.28824
1587369373274,0.23822308,2.4157495,12.62702
1587369373286,0.23822308,2.4157495,12.62702
1587369373296,-1.1994951,1.6998832,12.909535
1587369373308,-1.5179238,1.3443443,13.241133
1587369373318,-1.5035586,0.80924016,13.424289
1587369373330,-1.4425066,0.24540567,13.229161
1587369373340,-0.9864111,-0.36870706,13.156138
1587369373352,-0.20350714,-0.6907272,13.393165
1587369373362,0.60573304,-1.2306197,13.421895
1587369373375,0.81522566,-1.1061212,13.140576
1587369373384,0.81522566,-1.1061212,13.140576
1587369373396,0.4261679,-0.46447513,11.514913
1587369373406,-0.1604115,-0.2908955,10.45907
1587369373418,-0.6811504,0.0047884034,9.733627
1587369373428,-1.0103531,0.2693477,9.157822
1587369373440,-1.2677298,0.4309563,8.870518
1587369373451,-1.3503298,0.61530983,8.7951
1587369373461,-1.0319009,1.1097125,8.728063
1587369373474,-0.90979666,1.2952632,8.508993
1587369373480,-0.90979666,1.2952632,8.508993
1587369373492,-0.6368576,1.5634137,7.8876977
1587369373504,-0.47046062,1.6867151,7.5465236
1587369373516,-0.39983168,1.7058687,7.2831616
1587369373526,-0.36870706,1.7142484,7.0820484
1587369373537,-0.2645593,1.7441759,6.980295
1587369373550,-0.18674773,1.7345991,6.8761473
1587369373559,-0.16400282,1.7417817,6.849811
1587369373571,-0.1412579,1.7393875,6.870162
1587369373581,-0.1412579,1.7393875,6.870162
1587369373593,-0.142455,1.8207904,6.8450227
1587369373603,-0.1316811,1.8124107,6.9144545
1587369373615,-0.11252748,1.8674773,7.0006456
1587369373625,-0.14604631,1.8411411,7.097611
1587369373637,-0.093373865,1.8327614,7.1706343
1587369373646,-0.045489833,1.8543092,7.2604165
1587369373657,-0.021547815,1.8459295,7.4004774
1587369373668,0.05746084,1.8459295,7.5082164
1587369373679,0.21787235,1.8016368,7.753622
1587369373690,0.33997664,1.8387469,8.158242
1587369373699,0.33997664,1.8387469,8.158242
1587369373710,0.21428105,1.827973,8.449138
1587369373721,0.19033903,1.9357121,8.535329
1587369373733,0.19033903,1.9357121,8.535329
1587369373744,0.1352724,2.1679497,8.537724
1587369373755,0.142455,2.2936451,8.567651
1587369373766,0.18555063,2.4109612,8.651448
1587369373777,0.20709845,2.4827871,8.816648
1587369373788,0.2669535,2.505532,9.118318
1587369373799,0.28491,2.4887726,9.423578
1587369373808,0.25378537,2.4049757,9.657013
1587369373821,0.24540567,2.3319526,10.0987425
1587369373831,0.1388637,2.2481554,10.404003
1587369373843,-0.19871874,1.9488802,11.087548
1587369373853,-0.3184288,1.8243817,11.384429
1587369373865,-0.4213795,1.7705121,11.6908865
1587369373874,-0.4201824,1.7202339,12.059594
1587369373886,-0.46806642,1.8028339,12.008119
1587369373898,-0.30166942,2.043451,11.783064
1587369373908,0.08738836,2.2481554,11.438298
1587369373920,0.59136784,2.480393,11.499351
1587369373930,0.8619126,2.3810337,11.761516
1587369373942,1.3299791,1.827973,12.514492
1587369373953,1.3802572,1.3958195,13.140576
1587369373963,1.1623849,0.8714894,13.589489
1587369373975,1.0857705,0.48841715,13.887567
1587369373984,1.0857705,0.48841715,13.887567
1587369373997,0.9840169,0.2669535,14.012066
1587369374008,0.90261406,0.21787235,13.63857
1587369374019,0.961272,0.39504328,12.974179
1587369374029,1.0821792,0.7158663,12.401965
1587369374041,0.8475474,0.8858546,11.206061
1587369374051,0.8475474,0.8858546,11.206061
1587369374062,0.8379706,0.9840169,10.951078
1587369374073,0.6799533,0.81881696,10.898406
1587369374084,0.5590461,0.6715736,10.979809
1587369374096,0.51954174,0.5781997,10.935516
1587369374106,0.48841715,0.50517654,10.708067
1587369374118,0.5231331,0.545878,9.842564
1587369374128,0.5374983,0.6476316,9.287108
1587369374140,0.5614403,0.7386112,8.708909
1587369374150,0.5781997,0.8487445,8.192958
1587369374162,0.90021986,1.1803415,7.517793
1587369374172,0.9768343,1.2497733,7.2424603
1587369374185,0.9768343,1.2497733,7.2424603
1587369374194,1.0486604,1.3323733,6.915652
1587369374206,1.0522517,1.3383588,6.9479733
1587369374216,1.0522517,1.3383588,6.9479733
1587369374228,0.8870517,1.4425066,6.9024835
1587369374238,0.79487497,1.5239093,6.803124
1587369374253,0.6536171,1.7501614,6.5948286
1587369374261,0.6536171,1.7501614,6.5948286
1587369374271,0.51714754,1.9955671,6.4751186
1587369374284,0.51714754,1.9955671,6.4751186
1587369374293,0.40222588,2.1655555,6.542156
1587369374305,0.37229836,2.2218192,6.695385
1587369374315,0.37229836,2.2218192,6.695385
1587369374327,0.30765492,2.2122424,7.0832458
1587369374336,0.30047232,2.2349873,7.587225
1587369374348,0.2861071,2.2337902,7.799112
1587369374355,0.22744916,2.291251,8.013393
1587369374366,0.22744916,2.291251,8.013393
1587369374377,0.20829555,2.4061728,8.337808
1587369374388,0.18315643,2.5270798,8.429984
1587369374400,0.20829555,2.5893292,8.492233
1587369374412,0.29807812,2.6647465,8.588001
1587369374424,0.34117374,2.801216,8.848969
1587369374435,0.35673606,2.8215668,8.992621
1587369374445,0.38067806,2.885013,9.103952
1587369374456,0.34715924,2.9101522,9.161413
1587369374471,0.36272156,2.9125464,9.376891
1587369374477,0.36272156,2.9125464,9.376891
1587369374489,0.2885013,2.8443117,9.604341
1587369374498,0.22385786,2.731784,9.830592
1587369374510,0.18674773,2.6515784,10.159795
1587369374521,0.34596214,2.5701754,10.666168
1587369374533,0.34596214,2.5701754,10.666168
1587369374542,0.60932434,2.6898856,11.115082
1587369374555,0.60214174,2.6803088,11.340137
1587369374565,0.60214174,2.6803088,11.340137
1587369374577,-0.03232172,2.3307555,11.601105
1587369374587,-0.36870706,2.0350714,11.664551
1587369374599,-0.44771573,1.6747441,11.9135475
1587369374609,-0.48362875,1.2246342,12.338518
1587369374621,-0.46806642,0.2896984,13.126211
1587369374631,-0.46806642,0.2896984,13.126211
1587369374644,-0.25378537,-0.09816227,13.979744
1587369374654,-0.40342298,-0.3196259,13.953407
1587369374664,-0.40342298,-0.3196259,13.953407
1587369374676,-1.033098,-0.30885202,12.8293295
1587369374684,-1.5143325,-0.17597382,12.11466
1587369374696,-1.9057846,-0.017956512,11.390414
1587369374708,-2.2709002,0.059855044,10.8229885
1587369374719,-2.3918076,0.11372458,10.448297
1587369374729,-2.3451207,0.23702596,10.240001
1587369374742,-1.9644425,0.4201824,9.964667
1587369374752,-1.7118542,0.5482722,9.688137
1587369374762,-1.7118542,0.5482722,9.688137
1587369374774,-1.2665327,0.8762778,8.698134
1587369374785,-1.0606314,1.0690111,8.396465
1587369374795,-0.89303726,1.1073183,8.180987
1587369374806,-0.7290344,1.2533646,7.9631147
1587369374817,-0.62009823,1.2533646,7.7572136
1587369374829,-0.50517654,1.234211,7.6722193
1587369374838,-0.3878607,1.246182,7.656657
1587369374852,-0.25258827,1.2892777,7.703344
1587369374860,-0.25258827,1.2892777,7.703344
1587369374871,-0.23702596,1.4700398,7.4830775
1587369374883,-0.2645593,1.5682021,7.315483
1587369374895,-0.24540567,1.6364368,7.1945763
1587369374903,-0.23942018,1.7250223,7.141904
1587369374915,-0.23942018,1.7250223,7.141904
1587369374927,-0.061052144,1.839944,7.1742253
1587369374937,0.08259996,1.9261353,7.2628107
1587369374949,0.142455,1.9213469,7.309498
1587369374959,0.25258827,1.9452889,7.2843585
1587369374971,0.4201824,2.1068976,7.339425
1587369374981,0.4201824,2.1068976,7.339425
1587369374993,0.49679685,2.1883004,7.5189905
1587369375003,0.37588966,2.2242134,7.952341
1587369375016,0.37588966,2.2242134,7.952341
1587369375026,0.16160862,2.291251,8.246828
1587369375036,0.051475335,2.3475149,8.37013
1587369375048,-0.035913024,2.432509,8.48146
1587369375058,-0.1412579,2.552219,8.511387
1587369375070,-0.22625206,2.6527755,8.449138
1587369375080,-0.23463176,2.8000188,8.371326
1587369375092,-0.18914193,3.074155,8.455123
1587369375101,-0.19273324,3.1495724,8.500613
1587369375114,-0.19273324,3.1495724,8.500613
1587369375120,-0.17357962,3.2465374,8.708909
1587369375132,-0.23702596,3.2010477,9.296685
1587369375144,-0.23702596,3.2010477,9.296685
1587369375156,-0.39983168,2.908955,10.022128
1587369375168,-0.50876784,2.7569232,10.365696
1587369375177,-0.6344634,2.598906,10.821792
1587369375188,-0.78050977,2.4540567,11.161768
1587369375201,-0.9684546,2.3654714,11.353305
1587369375211,-0.8774749,2.6539726,11.439496
1587369375221,-0.5638345,2.802413,10.833763
1587369375233,-0.0047884034,3.003526,10.931925
1587369375242,-0.0047884034,3.003526,10.931925
1587369375253,0.61650693,2.633622,11.498154
1587369375264,0.830788,2.3451207,12.023681
1587369375275,0.8690952,1.8435353,12.63899
1587369375286,0.6560113,1.2533646,13.311762
1587369375297,0.36272156,0.78888947,13.849259
1587369375307,0.15682021,0.45609543,14.209587
1587369375318,-0.08619126,0.2789245,14.341269
1587369375329,-0.29807812,0.19033903,14.153323
1587369375338,-0.34596214,0.29927522,13.605051
1587369375349,-0.19871874,0.5351041,12.887988
1587369375360,0.07182605,0.82719666,12.223597
1587369375371,0.48362875,1.0187328,10.907983
1587369375381,0.6560113,1.0893618,10.485406
1587369375392,0.6560113,1.0893618,10.485406
1587369375403,0.90859956,0.9780314,9.910798
1587369375414,1.0199299,0.8331822,9.858126
1587369375425,1.2318168,0.79487497,9.8437605
1587369375437,1.3000516,0.6955156,9.846154
1587369375444,1.3000516,0.6955156,9.846154
1587369375456,1.1013328,0.62009823,9.713276
1587369375469,0.94930094,0.6943185,9.351752
1587369375479,0.8451532,0.8559271,8.963891
1587369375494,0.7398083,1.0702082,8.47308
1587369375503,0.6775591,1.3359646,7.5345526
1587369375513,0.6775591,1.3359646,7.5345526
1587369375525,0.93014735,1.5107412,6.9850836
1587369375534,1.0354922,1.5705963,6.861782
1587369375545,1.0354922,1.5705963,6.861782
1587369375555,1.1923125,1.6627731,6.9767036
1587369375566,1.1240777,1.6986861,7.0485296
1587369375577,1.0151415,1.7250223,7.038953
1587369375588,0.92655605,1.8423382,6.9970546
1587369375599,0.8619126,1.9620483,6.8581905
1587369375612,0.80804306,2.066196,6.7564373
1587369375622,0.6919243,2.2278047,6.8127007
1587369375632,0.62129533,2.292448,7.023391
1587369375644,0.62129533,2.292448,7.023391
1587369375654,0.50757074,2.3786395,7.467515
1587369375667,0.39983168,2.4145525,7.8050976
1587369375677,0.36511576,2.5306711,7.9691005
1587369375687,0.34715924,2.60968,8.11395
1587369375699,0.37229836,2.717419,8.306683
1587369375710,0.36631286,2.8299465,8.483853
1587369375721,0.5386954,2.9592333,8.688558
1587369375731,0.6380547,2.9987376,8.732851
1587369375743,0.6380547,2.9987376,8.732851
1587369375753,0.7410054,3.1052797,8.893262
1587369375765,0.6907272,3.1735144,8.955511
1587369375772,0.61530983,3.2082303,9.006987
1587369375784,0.59376204,3.2142158,9.114726
1587369375796,0.5351041,3.1711202,9.315839
1587369375808,0.4381389,3.0789435,9.520543
1587369375819,0.32441434,2.942474,9.841366
1587369375829,0.24061728,2.8203697,10.189722
1587369375842,0.05746084,2.6180596,10.589554
1587369375852,-0.02873042,2.6252422,11.073183
1587369375861,-0.02873042,2.6252422,11.073183
1587369375873,-0.23942018,2.7018566,11.228806
1587369375880,-0.35673606,2.9233203,11.286267
1587369375891,-0.35673606,2.9233203,11.286267
1587369375903,-1.9069817,2.717419,11.170148
1587369375914,-2.2409728,2.3331497,11.123461
1587369375925,-2.231396,1.7932571,11.067198
1587369375936,-1.9895816,1.2413936,11.184513
1587369375946,-1.7405846,0.6931214,11.235989
1587369375957,-1.1348516,0.22026655,11.651382
1587369375968,-0.61171854,0.050278235,12.216414
1587369375979,-0.35194764,-0.089782566,12.403162
1587369375989,-0.17477672,-0.08379706,12.202049
1587369376002,-0.4345476,0.5746084,10.948685
1587369376012,-0.4345476,0.5746084,10.948685
1587369376023,-1.7262194,0.8607155,9.725247
1587369376033,-2.0841527,1.1719618,9.459491
1587369376045,-2.0841527,1.1719618,9.459491
1587369376055,-2.554613,1.1168951,9.634268
1587369376067,-2.3714569,1.0630256,10.036493
1587369376077,-2.1308396,1.1288661,10.364499
1587369376089,-1.8722657,1.0857705,10.485406
1587369376097,-1.5526398,1.1444284,10.378864
1587369376109,-1.2988545,1.258153,10.159795
1587369376122,-0.81043726,1.673547,8.765172
1587369376132,-0.8690952,1.7345991,8.459911
1587369376142,-0.8690952,1.7345991,8.459911
1587369376154,-0.7589619,1.7980455,8.064868
1587369376164,-0.7074866,1.8447324,7.8709383
1587369376176,-0.7206547,1.8483237,7.691373
1587369376186,-0.6823475,1.8483237,7.536947
1587369376199,-0.664391,1.9285295,7.433996
1587369376206,-0.6703765,1.9416976,7.1826053
1587369376217,-0.62129533,1.9620483,7.0365586
1587369376229,-0.545878,1.9907787,6.943185
1587369376240,-0.59256494,1.9405005,6.8103065
1587369376252,-0.3890578,2.0350714,6.6175733
1587369376264,-0.33279404,1.9692309,6.551733
1587369376274,-0.20231004,1.9249382,6.694188
1587369376283,-0.11252748,1.9081788,6.921637
1587369376294,-0.06823475,1.8136078,7.1634517
1587369376306,-0.038307227,1.7537527,7.4136457
1587369376314,-0.02633622,1.7322049,7.69257
1587369376325,-0.020350715,1.697489,7.9870567
1587369376336,-0.21428105,1.6927006,8.4647
1587369376349,-0.25498247,1.6747441,8.65863
1587369376359,-0.272939,1.7776948,8.883685
1587369376370,-0.29927522,1.8076223,8.939949
1587369376381,-0.38067806,1.9931729,9.221268
1587369376392,-0.38067806,1.9931729,9.221268
1587369376403,-0.45010993,2.0578163,9.716867
1587369376414,-0.45968673,2.0638018,10.09156
1587369376423,-0.45968673,2.0638018,10.09156
1587369376433,-0.7469909,1.9428947,10.924743
1587369376444,-0.7625532,1.9033904,11.434708
1587369376455,-0.8283938,1.8543092,11.85489
1587369376466,-0.92655605,1.7824832,12.09431
1587369376477,-0.866701,1.8866309,12.196063
1587369376488,-0.7098808,2.0231004,12.204443
1587369376500,-0.6452374,2.0602105,11.724405
1587369376511,0.30406362,2.3020248,11.605893
1587369376523,0.30406362,2.3020248,11.605893
1587369376531,0.9624691,1.7489643,11.944673
1587369376543,0.9624691,1.7489643,11.944673
1587369376555,1.2593501,0.81761986,13.248315
1587369376565,1.2785037,-0.18674773,14.360422
1587369376577,1.2785037,-0.18674773,14.360422
1587369376587,1.1384429,-0.7326257,14.415488
1587369376599,1.0785879,-0.7146692,14.056358
1587369376609,1.0354922,-0.58657944,13.463793
1587369376621,1.0630256,-0.40462008,13.032837
1587369376631,1.0881647,-0.16400282,12.190078
1587369376643,1.1085154,-0.088585466,12.0488205
1587369376653,1.115698,-0.05865794,11.9135475
1587369376665,1.0163386,-0.16759412,11.877635
1587369376675,1.0163386,-0.16759412,11.877635
1587369376687,0.6943185,-0.2896984,11.7303915
1587369376697,0.48003745,-0.31603462,11.537658
1587369376709,0.16998832,-0.2681506,11.190498
1587369376720,-0.079008654,-0.14724341,10.712855
1587369376730,-0.24181437,0.062249243,10.02572
1587369376742,-0.32561144,0.30645782,9.284714
1587369376750,-0.35314476,0.5518635,8.631097
1587369376763,-0.25258827,0.93014735,7.2125325
1587369376773,-0.25258827,0.93014735,7.2125325
1587369376785,0.15322891,1.34195,5.741296
1587369376795,0.34356794,1.4520833,5.481525
1587369376807,0.38307226,1.5167267,5.2744265
1587369376817,0.40701428,1.5239093,5.21098
1587369376830,0.4177882,1.5921441,5.1678843
1587369376840,0.41299978,1.6519991,5.115212
1587369376850,0.40462008,1.6496049,5.0517654
1587369376863,0.4201824,1.6903064,4.969166
1587369376873,0.4201824,1.6903064,4.969166
1587369376883,0.31004912,1.8363527,5.1966147
1587369376896,0.24540567,1.8231846,5.470751
1587369376906,0.15083471,1.8255788,5.8681884
1587369376916,0.023942016,1.8315643,6.215348
1587369376928,-0.037110128,1.8255788,6.5110316
1587369376937,-0.027533319,1.8136078,6.8342485
1587369376948,0.04189853,1.8255788,7.1586633
1587369376960,0.06703765,1.8219875,7.5572977
1587369376968,0.062249243,1.7992426,7.976283
1587369376979,0.10534488,1.8411411,8.359355
1587369376990,0.18914193,1.9393034,8.699332
1587369377001,0.24899697,2.3415294,9.19972
1587369377012,0.20590134,2.4396915,9.279925
1587369377024,0.20590134,2.4396915,9.279925
1587369377036,0.088585466,2.5845408,9.586384
1587369377046,0.093373865,2.541445,9.860519
1587369377058,0.14844051,2.4480712,10.259154
1587369377068,0.20350714,2.3104045,10.650606
1587369377081,0.50517654,2.018312,11.601105
1587369377091,0.50517654,2.018312,11.601105
1587369377101,0.7757214,2.1308396,12.20564
1587369377113,0.6907272,2.1068976,12.284649
1587369377123,0.6907272,2.1068976,12.284649
1587369377135,-0.050278235,2.0853498,12.49893
1587369377145,-0.37229836,1.9213469,12.542026
1587369377157,-0.664391,1.8004397,12.656947
1587369377167,-0.90381116,1.3551182,13.024457
1587369377179,-0.9828198,0.7110779,13.504495
1587369377188,-0.997185,-0.08140286,14.0312195
1587369377200,-0.6404489,-0.7493851,14.347254
1587369377211,-0.093373865,-1.2330139,14.902708
1587369377221,0.12449849,-1.4676456,15.210363
1587369377233,-0.25737667,-1.5753847,14.252683
1587369377244,-0.7541735,-1.282095,13.383588
1587369377254,-0.7541735,-1.282095,13.383588
1587369377265,-2.0458453,-0.89543146,11.299435
1587369377278,-2.4516625,-0.6847417,10.609905
1587369377288,-2.645593,-0.4381389,10.095152
1587369377300,-2.7234044,-0.24061728,9.783905
1587369377316,-2.5438392,0.06584055,9.472659
1587369377324,-2.5438392,0.06584055,9.472659
1587369377334,-2.110489,0.4381389,9.148245
1587369377344,-1.8674773,0.59974754,8.808268
1587369377354,-1.8674773,0.59974754,8.808268
1587369377366,-1.3060371,0.94211835,8.002619
1587369377379,-1.0773908,1.0761937,7.5788455
1587369377389,-0.8607155,1.2006922,7.156269
1587369377400,-0.5590461,1.3072342,6.9491706
1587369377410,-0.32561144,1.4173675,6.695385
1587369377423,-0.21667525,1.4437037,6.6103907
1587369377433,-0.050278235,1.496376,6.7600284
1587369377443,-0.049081136,1.4616601,6.8881183
1587369377455,-0.049081136,1.4616601,6.8881183
1587369377465,0.093373865,1.4820108,6.8450227
1587369377478,0.17597382,1.5454572,6.728904
1587369377488,0.23343466,1.6484078,6.6391215
1587369377499,0.2801216,1.7178397,6.5984197
1587369377509,0.2813187,1.7537527,6.6630635
1587369377521,0.33758244,1.7788919,6.813898
1587369377530,0.3866636,1.7956513,7.273585
1587369377541,0.34715924,1.7561469,7.560889
1587369377553,0.34715924,1.7561469,7.560889
1587369377564,0.29927522,1.7513585,8.016984
1587369377576,0.2681506,1.8148049,8.222886
1587369377586,0.16639702,1.9177556,8.359355
1587369377598,0.05865794,2.030283,8.415619
1587369377609,0.08379706,2.2242134,8.328231
1587369377619,0.20590134,2.4636335,8.293514
1587369377632,0.33997664,2.7497406,8.450335
1587369377642,0.38307226,2.8502972,8.7125
1587369377652,0.38307226,2.8502972,8.7125
1587369377664,0.2633622,2.9520507,9.209297
1587369377674,0.11731588,2.8742392,9.861717
1587369377686,0.095768064,2.8275523,10.243592
1587369377696,0.047884032,2.7162218,10.612299
1587369377708,0.01316811,2.610877,11.015722
1587369377718,-0.049081136,2.5139117,11.3964
1587369377731,0.10055647,2.7521348,11.645397
1587369377737,0.10055647,2.7521348,11.645397
1587369377749,0.2837129,2.859874,11.494562
1587369377761,1.0869676,3.0478187,10.981006
1587369377773,1.6424223,3.0621839,11.188105
1587369377783,1.887828,2.755726,11.304223
1587369377795,2.0530279,2.255338,11.63582
1587369377805,2.0530279,2.255338,11.63582
1587369377817,2.1523874,1.316811,12.549209
1587369377827,2.1691468,0.8487445,12.800599
1587369377839,2.3594859,0.581791,13.041217
1587369377848,2.4947581,0.39504328,13.148955
1587369377860,2.6084828,0.29927522,13.066356
1587369377870,2.6013002,0.260968,12.847286
1587369377883,2.4349031,0.37469256,12.071565
1587369377893,2.3295584,0.36272156,10.973824
1587369377903,2.3295584,0.36272156,10.973824
1587369377915,2.2744915,0.33039984,9.974244
1587369377925,2.2122424,0.39384618,9.5971575
1587369377937,1.9488802,0.47524905,9.232041
1587369377947,1.7633295,0.49679685,8.931569
1587369377960,1.7489643,0.5267244,8.731653
1587369377971,1.7489643,0.60932434,8.651448
1587369377981,1.8231846,0.61291564,8.476671
1587369377991,1.79206,0.6775591,8.372523
1587369378003,1.79206,0.6775591,8.372523
1587369378012,1.5263035,0.80684596,8.195353
1587369378023,1.423353,0.9516952,8.008605
1587369378035,1.3383588,1.1025299,7.7224975
1587369378047,1.3275849,1.2174516,7.491457
1587369378056,1.2593501,1.2198458,7.345411
1587369378069,1.2725182,1.1264719,7.3777328
1587369378078,1.2808979,1.0881647,7.4471645
1587369378089,1.271321,0.9576807,7.4986396
1587369378101,1.2605472,0.90740246,7.5213847
1587369378113,1.1803415,0.82480246,7.502231
1587369378124,1.1444284,0.8858546,7.3549876
1587369378134,1.0175357,0.8834604,7.0126166
1587369378145,0.9720459,1.0450691,6.6391215
1587369378158,1.0163386,1.3036429,6.3446345
1587369378168,1.0522517,1.5346833,6.220136
1587369378180,0.9804256,1.6053122,6.172252
1587369378190,1.1061212,1.7070658,6.3182983
1587369378202,1.1755531,1.8171991,6.649895
1587369378212,1.1647792,1.7322049,7.6387005
1587369378225,1.0905589,1.7501614,7.928399
1587369378235,1.0199299,1.8195933,8.273164
1587369378245,0.80445176,1.9249382,8.566454
1587369378258,0.47524905,1.9165585,8.835801
1587369378268,0.04189853,1.8459295,9.050082
1587369378278,-0.31124622,1.804031,9.1829605
1587369378291,-0.31364042,1.9177556,9.27394
1587369378301,-0.31364042,1.9177556,9.27394
1587369378311,-0.059855044,1.8483237,9.738416
1587369378324,0.037110128,1.6903064,10.183737
1587369378334,0.05865794,1.472434,10.6158905
1587369378344,0.17597382,1.270124,11.577163
1587369378356,0.011971008,1.4401124,12.172121
1587369378366,-0.34476504,1.638831,12.506113
1587369378378,-0.8678981,1.7609353,13.026852
1587369378389,-1.6831238,1.2401965,13.194446
1587369378400,-2.5474305,0.33159694,13.119028
1587369378409,-2.528277,-0.17238252,13.230358
1587369378421,-1.4329298,-1.6807296,14.082694
1587369378432,-1.0366893,-2.8179753,14.7159605
1587369378443,-0.50397944,-3.4524388,15.842433
1587369378455,-0.32680854,-3.4117374,16.469713
1587369378464,-0.61890113,-3.3387144,16.399084
1587369378474,-0.9648633,-2.4193408,15.824476
1587369378485,-0.9648633,-2.4193408,15.824476
1587369378496,-2.597709,-0.62249243,12.546814
1587369378505,-3.5541923,0.1436521,10.584765
1587369378516,-2.7042508,0.6895301,8.59279
1587369378527,-4.9548006,1.2389994,8.310274
1587369378537,-3.7565024,1.1300632,7.4268136
1587369378548,-3.3494883,0.7553706,7.6387005
1587369378559,-2.5450363,0.7302315,8.998607
1587369378570,-1.1959038,0.07182605,10.625467
1587369378582,-0.61411273,0.18914193,11.320983
1587369378594,-0.35075054,0.01436521,11.360487
1587369378607,-0.5662287,0.10295067,10.868479
1587369378613,-0.8595184,0.32441434,10.169372
1587369378625,-1.1719618,0.5386954,9.563639
1587369378637,-1.3802572,0.7134721,9.072827
1587369378649,-1.4580688,0.89303726,8.793902
1587369378659,-1.4317327,1.0642227,8.652645
1587369378672,-1.1444284,1.2916719,8.37013
1587369378682,-1.1444284,1.2916719,8.37013
1587369378692,-0.9959879,1.5167267,7.7488337
1587369378704,-1.0869676,1.590947,7.40766
1587369378713,-1.0474633,1.6783354,7.0844426
1587369378727,-0.9828198,1.7298107,6.915652
1587369378738,-0.89064306,1.7645266,6.8186865
1587369378748,-0.80445176,1.7429788,6.8067155
1587369378758,-0.7015011,1.6950948,6.953959
1587369378770,-0.61171854,1.6412252,7.201759
1587369378780,-0.50158525,1.541866,7.4387846
1587369378792,-0.21906945,1.3599066,7.967903
1587369378802,-0.21906945,1.3599066,7.967903
1587369378814,-0.29568392,1.30484,8.360553
1587369378824,-0.30406362,1.3215994,8.463503
1587369378836,-0.30406362,1.3215994,8.463503
1587369378846,-0.33638534,1.3443443,8.512584
1587369378858,-0.20111294,1.3802572,8.534132
1587369378868,-0.062249243,1.3994108,8.625112
1587369378880,0.05267244,1.3718776,8.702923
1587369378890,0.15562311,1.353921,8.942344
1587369378903,0.15442601,1.1815386,9.536105
1587369378913,0.272939,1.1563994,9.793482
1587369378923,0.37110126,1.0714053,9.944317
1587369378935,0.37110126,1.0714053,9.944317
1587369378943,0.63087213,1.1707647,10.189722
1587369378955,0.90141696,1.3192052,10.163386
1587369378967,1.2042835,1.541866,9.999383
1587369378977,1.614889,1.6699557,9.829395
1587369378990,2.0721815,1.7298107,9.821015
1587369379000,2.3750482,1.7465701,10.010158
1587369379011,2.7748797,1.5035586,11.602302
1587369379021,2.742558,1.3120226,11.852495
1587369379034,2.742558,1.3120226,11.852495
1587369379044,2.7090392,1.5346833,12.136209
1587369379056,2.6551697,1.5969325,12.106281
1587369379066,2.5270798,1.6998832,11.969811
1587369379077,2.3427265,1.7202339,12.000936
1587369379088,2.2158337,1.6531962,12.08593
1587369379099,2.043451,1.5107412,12.223597
1587369379111,1.6244658,1.067814,12.198458
1587369379120,1.6244658,1.067814,12.198458
1587369379130,1.7034745,0.8822633,12.130223
1587369379141,1.7788919,0.59376204,11.678916
1587369379154,1.7525556,0.50397944,11.404779
1587369379160,1.7525556,0.50397944,11.404779
1587369379173,1.4449008,0.5566519,10.70687
1587369379184,1.4449008,0.5566519,10.70687
1587369379196,0.9888053,0.6775591,9.7084875
1587369379206,0.8487445,0.8415619,9.120711
1587369379218,0.7433996,0.9708488,8.550891
1587369379229,0.6607997,1.0845734,8.154651
1587369379241,0.9516952,1.3263878,7.1107793
1587369379251,0.9516952,1.3263878,7.1107793
1587369379260,1.1097125,1.3910311,6.908469
1587369379273,1.1659763,1.4173675,6.6762314
1587369379282,1.1659763,1.4173675,6.6762314
1587369379294,1.1707647,1.496376,6.338649
1587369379305,1.0833763,1.5394717,6.1399302
1587369379317,0.92176765,1.5777789,5.9843073
1587369379327,0.7745243,1.62686,5.973533
1587369379339,0.6619968,1.6567876,6.1303535
1587369379349,0.51595044,1.6220716,6.315904
1587369379362,0.4237737,1.5837644,6.599617
1587369379372,0.39264908,1.7465701,7.015011
1587369379384,0.39264908,1.7465701,7.015011
1587369379395,0.34596214,1.8507179,7.3873096
1587369379405,0.36990416,1.899799,7.6590514
1587369379417,0.51834464,1.8866309,7.989451
1587369379427,0.6895301,1.8662802,8.459911
1587369379439,0.88944596,1.780089,8.893262
1587369379449,1.1288661,1.7513585,9.367314
1587369379461,1.3491327,1.7836803,10.140641
1587369379471,1.2425907,1.875857,10.6398325
1587369379483,1.2425907,1.875857,10.6398325
1587369379491,0.89662856,1.9285295,11.225215
1587369379503,0.6991069,1.8950106,11.421539
1587369379515,0.6991069,1.8950106,11.421539
1587369379525,0.7769185,1.8950106,11.640609
1587369379537,0.78888947,1.8363527,11.7148285
1587369379547,0.90620536,1.7717092,11.760319
1587369379559,1.1324574,1.8507179,12.054806
1587369379570,1.1025299,1.8219875,12.236765
1587369379581,1.0522517,1.9069817,12.401965
1587369379590,0.82121116,2.1559787,12.901155
1587369379603,0.20590134,2.172738,13.107058
1587369379613,0.20590134,2.172738,13.107058
1587369379624,-0.7565677,1.697489,13.201628
1587369379635,-1.2018893,1.4413095,13.136985
1587369379646,-1.4053963,0.93493575,13.049597
1587369379658,-1.328782,0.47644615,12.843695
1587369379668,-0.91937345,0.08379706,12.739547
1587369379680,-0.03232172,-0.3184288,12.447454
1587369379690,0.23942018,-0.48602295,12.299014
1587369379703,0.25378537,-0.021547815,11.160571
1587369379709,0.25378537,-0.021547815,11.160571
1587369379721,-0.2765303,0.320823,9.859323
1587369379733,-0.2765303,0.320823,9.859323
1587369379745,-0.7661445,0.25258827,9.172187
1587369379755,-0.78290397,0.2813187,9.19972
1587369379767,-0.7158663,0.08619126,9.469068
1587369379777,-0.65242,-0.04309563,9.664195
1587369379789,-0.4369418,-0.11372458,9.7479925
1587369379799,-0.24181437,-0.07062895,9.782708
1587369379811,-0.07062895,0.06823475,9.627085
1587369379819,0.05626374,0.30047232,9.385271
1587369379831,0.10654198,0.51834464,9.075222
1587369379844,0.12210429,0.830788,8.426393
1587369379854,0.023942016,0.93373865,8.239645
1587369379864,0.023942016,0.93373865,8.239645
1587369379876,0.050278235,1.0199299,7.9427643
1587369379886,0.047884032,0.9900024,7.7584105
1587369379898,0.18315643,1.1923125,7.267599
1587369379909,0.049081136,1.3108255,6.9407907
1587369379919,0.073023155,1.3922282,6.5505357
1587369379932,0.079008654,1.5933412,6.3302693
1587369379942,-0.019153614,1.9141643,5.8322754
1587369379952,-0.04070143,1.9847932,5.753267
1587369379964,-0.04070143,1.9847932,5.753267
1587369379974,0.06584055,2.0147207,5.9878983
1587369379986,0.21308395,1.9488802,6.161478
1587369379996,0.32680854,1.9440918,6.3829417
1587369380008,0.3196259,1.9213469,6.56131
1587369380018,0.22026655,1.8986019,6.704962
1587369380030,0.11252748,1.9883845,6.969521
1587369380038,-0.0047884034,2.12246,7.2065473
1587369380050,-0.094570965,2.19668,7.357382
1587369380062,-0.14844051,2.2625206,7.457938
1587369380072,-0.08619126,2.3558946,7.5668745
1587369380084,-0.075417355,2.280477,7.7224975
1587369380094,-0.008379706,2.184709,8.087613
1587369380106,-0.05267244,2.088941,8.512584
1587369380117,-0.18076223,1.8926164,9.428367
1587369380126,-0.45968673,1.567005,9.879673
1587369380138,-0.5518635,1.42455,10.289082
1587369380145,-0.7529764,1.2605472,10.662578
1587369380156,-0.8750807,1.0714053,11.149797
1587369380167,-0.94451255,1.0247183,11.647791
1587369380178,-1.0546459,1.0295067,12.02009
1587369380189,-1.0390835,0.9672575,12.249933
1587369380200,-0.8343793,0.7015011,12.291832
1587369380211,-0.8343793,0.7015011,12.291832
1587369380223,-0.090979666,0.49919105,12.703634
1587369380235,0.15442601,0.20829555,13.04002
1587369380246,0.33638534,-0.027533319,13.643358
1587369380256,0.31603462,-0.31244332,14.083892
1587369380267,0.34117374,-0.6428431,14.365211
1587369380279,0.45729253,-0.748188,14.574703
1587369380289,0.58777654,-0.7541735,14.469358
1587369380302,0.81522566,-0.39384618,13.582306
1587369380313,0.81522566,-0.39384618,13.582306
1587369380323,0.89782566,0.11611878,12.605472
1587369380333,0.8619126,0.17836803,12.190078
1587369380345,0.8762778,0.44771573,11.787852
1587369380355,0.8463503,0.2621651,11.839328
1587369380367,0.7158663,0.011971008,11.801021
1587369380377,0.6619968,0.05626374,11.827356
1587369380389,0.7110779,0.047884032,11.676521
1587369380399,0.6452374,0.12210429,11.378444
1587369380411,0.5662287,0.29807812,11.002554
1587369380421,0.3878607,0.7445967,9.805453
1587369380433,0.34955344,0.9744401,9.248801
1587369380443,0.2837129,1.1671734,8.532935
1587369380455,0.25617957,1.30484,7.905654
1587369380465,0.24301147,1.4556746,7.3609734
1587369380478,0.23942018,1.5562311,6.907272
1587369380487,0.23942018,1.5562311,6.907272
1587369380499,0.23942018,1.5562311,6.907272
1587369380509,0.36750996,1.6555905,6.283582
1587369380521,0.51235914,1.6651673,6.2620344
1587369380532,0.51834464,1.6867151,6.26802
1587369380542,0.51834464,1.6867151,6.26802
1587369380554,0.5722142,1.6903064,6.181829
1587369380563,0.5722142,1.6903064,6.181829
1587369380574,0.5602432,1.8614918,6.245275
1587369380583,0.5279215,2.0458453,6.2883706
1587369380594,0.5279215,2.0458453,6.2883706
1587369380606,0.44532153,2.1883004,6.506243
1587369380617,0.4417302,2.2996306,6.743269
1587369380627,0.4369418,2.3020248,6.969521
1587369380638,0.4357447,2.2984335,7.3669586
1587369380649,0.40342298,2.2960393,7.7667904
1587369380660,0.39504328,2.184709,8.103176
1587369380671,0.4297592,2.2720973,8.400057
1587369380692,0.5518635,2.468422,8.506598
