@ HyperIMU -ianovir - 2018
@ Date:Mon May 04 16:25:32 GMT+02:00 2020, Sampling Rate:10ms

timestamp,K6DS3TR_Accelerometer.x,K6DS3TR_Accelerometer.y,K6DS3TR_Accelerometer.z,YAS537_Uncalibrated_Magnetometer.x,YAS537_Uncalibrated_Magnetometer.y,YAS537_Uncalibrated_Magnetometer.z,K6DS3TR_Uncalibrated_Gyroscope.x,K6DS3TR_Uncalibrated_Gyroscope.y,K6DS3TR_Uncalibrated_Gyroscope.z,Screen_Orientation_Sensor.x,Screen_Orientation_Sensor.y,Screen_Orientation_Sensor.z,Samsung_Orientation_Sensor.x,Samsung_Orientation_Sensor.y,Samsung_Orientation_Sensor.z
1588602332252,-0.074220255,-0.04070143,9.801862,-23.600002,-314.7,-76.2,0.0,0.0,0.0,-1.0,0.0,0.0,105.99677,0.23826341,-0.43399253
1588602332275,-0.061052144,-0.02633622,9.794679,-23.600002,-314.7,-76.2,0.0,0.0,0.0,-1.0,0.0,0.0,105.997055,0.15432902,-0.35738108
1588602332288,-0.06943185,-0.023942016,9.7958765,-61.300003,-260.1,-109.0,-0.076358154,0.03359759,0.015882496,-1.0,0.0,0.0,106.427284,0.15432899,-0.35738096
1588602332300,-0.06464344,-0.008379706,9.813833,-61.300003,-260.1,-109.0,-0.076358154,0.03359759,0.015882496,-1.0,0.0,0.0,106.66131,0.049668677,-0.37725845
1588602332304,-0.06464344,-0.008379706,9.813833,-61.300003,-260.1,-109.0,-0.076358154,0.03359759,0.015882496,-1.0,0.0,0.0,106.66131,0.049668677,-0.37725845
1588602332311,-0.07182605,-0.007182605,9.805453,-61.600002,-260.2,-109.0,-0.07513642,0.035430185,0.015271631,-1.0,0.0,0.0,106.24588,0.049668677,-0.37725845
1588602332322,-0.07182605,-0.007182605,9.805453,-61.600002,-260.2,-109.0,-0.07513642,0.035430185,0.015271631,-1.0,0.0,0.0,106.24588,0.049668677,-0.37725845
1588602332331,-0.05746084,-0.01316811,9.80665,-61.4,-260.2,-109.399994,-0.07391469,0.03726278,0.01282817,-1.0,0.0,0.0,106.24588,0.049668677,-0.37725845
1588602332340,-0.062249243,-0.011971008,9.809045,-61.4,-260.2,-109.399994,-0.07819075,0.035430185,0.014049901,-1.0,0.0,0.0,106.35241,0.04966865,-0.37725848
1588602332351,-0.06584055,-0.016759412,9.801862,-61.300003,-260.0,-109.1,-0.07452556,0.03359759,0.013439035,-1.0,0.0,0.0,106.332695,0.112050295,-0.34267566
1588602332362,-0.062249243,-0.022744916,9.79827,-61.300003,-260.0,-109.1,-0.07452556,0.035430185,0.014660766,-1.0,0.0,0.0,106.33268,0.11205028,-0.3426756
1588602332371,-0.06464344,-0.023942016,9.794679,-61.4,-260.0,-109.2,-0.076358154,0.035430185,0.014049901,-1.0,0.0,0.0,106.27013,0.112050265,-0.3426756
1588602332383,-0.06464344,-0.029927522,9.812635,-61.4,-260.0,-109.2,-0.07513642,0.036651913,0.013439035,-1.0,0.0,0.0,106.270035,0.17442511,-0.37727058
1588602332394,-0.05626374,-0.01436521,9.8042555,-61.2,-260.0,-109.1,-0.076358154,0.03481932,0.014049901,-1.0,0.0,0.0,106.58728,0.08551005,-0.32963666
1588602332405,-0.062249243,-0.02633622,9.824607,-61.2,-260.0,-109.1,-0.076358154,0.03481932,0.014660766,-1.0,0.0,0.0,106.5872,0.15429889,-0.36337397
1588602332416,-0.06464344,-0.016759412,9.801862,-61.2,-260.0,-109.0,-0.07574729,0.036651913,0.014660766,-1.0,0.0,0.0,106.52156,0.10010911,-0.37730935
1588602332428,-0.06823475,-0.01316811,9.8042555,-61.300003,-260.0,-109.0,-0.07574729,0.036651913,0.014049901,-1.0,0.0,0.0,106.52156,0.10010911,-0.37730935
1588602332437,-0.07182605,-0.020350715,9.797073,-61.300003,-260.0,-109.0,-0.07452556,0.03604105,0.013439035,-1.0,0.0,0.0,106.23558,0.1001091,-0.37730938
1588602332448,-0.08020575,-0.019153614,9.7958765,-61.300003,-260.0,-109.1,-0.07696902,0.03481932,0.014049901,-1.0,0.0,0.0,106.235405,0.11232127,-0.47139308
1588602332460,-0.073023155,-0.017956512,9.805453,-61.300003,-260.0,-109.1,-0.07574729,0.036651913,0.014660766,-1.0,0.0,0.0,106.17285,0.11232129,-0.47139305
1588602332472,-0.05865794,-0.027533319,9.799467,-61.300003,-260.1,-109.0,-0.073303826,0.034208454,0.015271631,-1.0,0.0,0.0,106.67481,0.14681612,-0.32209232
1588602332479,-0.05865794,-0.027533319,9.799467,-61.300003,-260.1,-109.0,-0.07452556,0.035430185,0.015271631,-1.0,0.0,0.0,106.67481,0.14681612,-0.32209232
1588602332491,-0.05626374,-0.021547815,9.801862,-61.300003,-260.1,-109.0,-0.07696902,0.03726278,0.015882496,-1.0,0.0,0.0,106.67483,0.14681615,-0.32209238
1588602332503,-0.075417355,-0.015562311,9.797073,-61.300003,-260.1,-109.0,-0.076358154,0.03481932,0.015882496,-1.0,0.0,0.0,106.67457,0.09108475,-0.4408909
1588602332515,-0.07062895,-0.019153614,9.8042555,-61.300003,-260.0,-109.1,-0.076358154,0.036651913,0.014049901,-1.0,0.0,0.0,106.12687,0.09513957,-0.44576952
1588602332524,-0.05746084,-0.023942016,9.801862,-61.300003,-260.0,-109.1,-0.07452556,0.036651913,0.014660766,-1.0,0.0,0.0,106.12764,0.13988718,-0.33604437
1588602332536,-0.06703765,-0.011971008,9.810242,-61.2,-260.0,-109.1,-0.07452556,0.032986723,0.013439035,-1.0,0.0,0.0,106.49868,0.06885024,-0.39236417
1588602332548,-0.06703765,-0.020350715,9.810242,-61.2,-259.9,-109.1,-0.07513642,0.03604105,0.013439035,-1.0,0.0,0.0,106.49868,0.06885024,-0.39236417
1588602332557,-0.06584055,-0.023942016,9.7958765,-61.2,-259.9,-109.1,-0.07513642,0.03604105,0.013439035,-1.0,0.0,0.0,105.960686,0.13682763,-0.3856494
1588602332569,-0.07182605,-0.019153614,9.801862,-61.2,-260.0,-109.1,-0.07574729,0.036651913,0.01282817,-1.0,0.0,0.0,105.960686,0.13682763,-0.3856494
1588602332581,-0.06823475,-0.022744916,9.79827,-61.2,-260.0,-109.1,-0.07574729,0.03604105,0.016493361,-1.0,0.0,0.0,106.42758,0.13682768,-0.38564944
1588602332588,-0.06823475,-0.022744916,9.79827,-61.2,-259.9,-109.1,-0.07513642,0.032986723,0.015271631,-1.0,0.0,0.0,106.42758,0.13682768,-0.38564944
1588602332600,-0.06703765,-0.021547815,9.7958765,-61.2,-259.9,-109.1,-0.07574729,0.03726278,0.015271631,-1.0,0.0,0.0,106.2399,0.13682768,-0.3856494
1588602332612,-0.059855044,-0.016759412,9.800665,-61.2,-260.0,-109.0,-0.07574729,0.034208454,0.013439035,-1.0,0.0,0.0,106.42759,0.13682772,-0.38564947
1588602332623,-0.06823475,-0.017956512,9.7958765,-61.2,-260.0,-109.0,-0.07696902,0.03481932,0.014049901,-1.0,0.0,0.0,106.42758,0.13682768,-0.38564938
1588602332635,-0.074220255,-0.009576807,9.792285,-61.2,-260.0,-109.1,-0.07696902,0.037873644,0.014049901,-1.0,0.0,0.0,106.42751,0.05553576,-0.43456236
1588602332644,-0.074220255,-0.017956512,9.783905,-61.2,-260.0,-109.1,-0.07513642,0.035430185,0.014049901,-1.0,0.0,0.0,106.42751,0.05553576,-0.43456236
1588602332656,-0.06464344,-0.023942016,9.809045,-61.2,-260.0,-109.1,-0.07574729,0.03604105,0.01282817,-1.0,0.0,0.0,106.04606,0.13911039,-0.37808084
1588602332668,-0.06464344,-0.02873042,9.797073,-61.2,-260.0,-109.1,-0.076358154,0.034208454,0.014049901,-1.0,0.0,0.0,106.04606,0.13911039,-0.37808084
1588602332681,-0.059855044,-0.01316811,9.794679,-61.2,-260.0,-109.2,-0.07696902,0.036651913,0.014660766,-1.0,0.0,0.0,106.44618,0.07928401,-0.35114455
1588602332692,-0.07062895,-0.015562311,9.80665,-61.2,-260.0,-109.2,-0.076358154,0.035430185,0.015271631,-1.0,0.0,0.0,106.24887,0.08366454,-0.35599962
1588602332703,-0.074220255,-0.0047884034,9.811439,-61.2,-260.0,-109.2,-0.073303826,0.036651913,0.014660766,-1.0,0.0,0.0,106.24881,0.028253932,-0.43300956
1588602332713,-0.06464344,-0.007182605,9.813833,-61.2,-260.0,-109.2,-0.073303826,0.035430185,0.014049901,-1.0,0.0,0.0,105.93793,0.041619174,-0.37867627
1588602332725,-0.06584055,-0.015562311,9.805453,-61.2,-260.0,-109.2,-0.07513642,0.03481932,0.014049901,-1.0,0.0,0.0,105.93793,0.041619174,-0.37867627
1588602332737,-0.06464344,-0.015562311,9.801862,-61.2,-260.0,-109.2,-0.076358154,0.03481932,0.015882496,-1.0,0.0,0.0,106.054955,0.04161919,-0.3786763
1588602332748,-0.05865794,-0.022744916,9.794679,-61.2,-260.0,-109.2,-0.07574729,0.03848451,0.013439035,-1.0,0.0,0.0,106.05504,0.13380735,-0.34283116
1588602332758,-0.06584055,-0.021547815,9.7958765,-61.2,-260.0,-109.2,-0.076358154,0.03359759,0.013439035,-1.0,0.0,0.0,106.46622,0.13380735,-0.34283116
1588602332770,-0.059855044,-0.022744916,9.8042555,-61.2,-260.0,-109.2,-0.07696902,0.03481932,0.014660766,-1.0,0.0,0.0,106.467445,0.13785014,-0.34594312
1588602332781,-0.061052144,-0.027533319,9.805453,-61.2,-260.0,-109.2,-0.07574729,0.035430185,0.013439035,-1.0,0.0,0.0,106.48721,0.13785012,-0.34594306
1588602332792,-0.062249243,-0.023942016,9.793482,-61.2,-260.0,-109.2,-0.07452556,0.03604105,0.015271631,-1.0,0.0,0.0,106.09321,0.14027494,-0.36409503
1588602332803,-0.07182605,-0.017956512,9.809045,-61.2,-260.0,-109.2,-0.07696902,0.03726278,0.01282817,-1.0,0.0,0.0,106.094696,0.1039293,-0.42074043
1588602332814,-0.06823475,-0.021547815,9.793482,-61.2,-260.0,-109.2,-0.07513642,0.036651913,0.013439035,-1.0,0.0,0.0,106.25539,0.10727401,-0.4256033
1588602332825,-0.06344634,-0.017956512,9.797073,-61.2,-260.0,-109.2,-0.07513642,0.03359759,0.01282817,-1.0,0.0,0.0,106.25708,0.10520286,-0.37301204
1588602332841,-0.06344634,-0.020350715,9.793482,-61.2,-260.0,-109.2,-0.07574729,0.03604105,0.014660766,-1.0,0.0,0.0,106.31857,0.113709204,-0.38129556
1588602332851,-0.06943185,-0.017956512,9.792285,-61.2,-260.0,-109.2,-0.076358154,0.03481932,0.014049901,-1.0,0.0,0.0,106.31945,0.117750406,-0.38510862
1588602332862,-0.06943185,-0.010773907,9.80665,-61.2,-260.0,-109.2,-0.07391469,0.03481932,0.014660766,-1.0,0.0,0.0,106.31943,0.065357335,-0.40474778
1588602332872,-0.074220255,-0.023942016,9.794679,-61.2,-260.0,-109.2,-0.076358154,0.03726278,0.014049901,-1.0,0.0,0.0,106.1195,0.13690342,-0.43308035
1588602332882,-0.05865794,-0.02633622,9.78989,-61.2,-260.0,-109.2,-0.07574729,0.03481932,0.015882496,-1.0,0.0,0.0,106.11973,0.15398581,-0.34404996
1588602332893,-0.05746084,-0.02633622,9.803059,-61.2,-260.0,-109.2,-0.07391469,0.035430185,0.015882496,-1.0,0.0,0.0,106.545395,0.15398581,-0.34404996
1588602332904,-0.059855044,-0.017956512,9.800665,-61.2,-260.0,-109.2,-0.076358154,0.03604105,0.014660766,-1.0,0.0,0.0,106.545395,0.15398581,-0.34404996
1588602332914,-0.07062895,-0.021547815,9.787497,-61.2,-260.0,-109.2,-0.07574729,0.03604105,0.015271631,-1.0,0.0,0.0,106.54523,0.12742381,-0.41024607
1588602332927,-0.06823475,-0.017956512,9.783905,-61.2,-260.0,-109.2,-0.07574729,0.036651913,0.014660766,-1.0,0.0,0.0,106.54575,0.13108337,-0.41507062
1588602332940,-0.05865794,-0.0047884034,9.792285,-61.2,-260.0,-109.1,-0.07696902,0.035430185,0.015271631,-1.0,0.0,0.0,106.37121,0.030052673,-0.34464645
1588602332949,-0.075417355,-0.0047884034,9.791088,-61.2,-260.0,-109.2,-0.07269296,0.03481932,0.013439035,-1.0,0.0,0.0,106.37116,0.027973535,-0.44353634
1588602332961,-0.06464344,-0.023942016,9.793482,-61.2,-260.0,-109.2,-0.07452556,0.03481932,0.014049901,-1.0,0.0,0.0,105.92451,0.13872924,-0.37896454
1588602332973,-0.05865794,-0.022744916,9.785102,-61.2,-260.1,-109.1,-0.077579886,0.035430185,0.015271631,-1.0,0.0,0.0,106.63005,0.13872921,-0.37896448
1588602332983,-0.06823475,-0.025139118,9.793482,-61.2,-260.1,-109.1,-0.076358154,0.035430185,0.015271631,-1.0,0.0,0.0,106.63005,0.13872921,-0.37896448
1588602332993,-0.05626374,-0.023942016,9.785102,-61.300003,-260.0,-109.2,-0.07513642,0.03604105,0.015271631,-1.0,0.0,0.0,106.38777,0.13872926,-0.37896442
1588602333004,-0.05865794,-0.021547815,9.794679,-61.300003,-260.0,-109.2,-0.07391469,0.035430185,0.014660766,-1.0,0.0,0.0,106.38777,0.13872926,-0.37896442
1588602333014,-0.075417355,-0.01316811,9.7863,-61.300003,-260.1,-109.2,-0.073303826,0.03604105,0.014660766,-1.0,0.0,0.0,106.57323,0.07664507,-0.44199133
1588602333025,-0.062249243,-0.023942016,9.791088,-61.300003,-260.1,-109.2,-0.07391469,0.034208454,0.013439035,-1.0,0.0,0.0,106.57338,0.14043817,-0.3638547
1588602333035,-0.06584055,-0.011971008,9.810242,-61.2,-260.0,-109.2,-0.07391469,0.03604105,0.014049901,-1.0,0.0,0.0,106.46682,0.066915736,-0.38540867
1588602333055,-0.06584055,-0.019153614,9.797073,-61.300003,-260.1,-109.2,-0.07513642,0.03604105,0.012217305,-1.0,0.0,0.0,106.595024,0.1431214,-0.37748316
1588602333061,-0.06584055,-0.019153614,9.797073,-61.300003,-260.1,-109.2,-0.07574729,0.03359759,0.014660766,-1.0,0.0,0.0,106.595024,0.1431214,-0.37748316
1588602333071,-0.05865794,-0.02633622,9.794679,-61.300003,-260.1,-109.2,-0.076358154,0.03359759,0.014049901,-1.0,0.0,0.0,106.595024,0.1431214,-0.37748316
1588602333081,-0.05865794,-0.02633622,9.794679,-61.300003,-260.1,-109.2,-0.07391469,0.034208454,0.01282817,-1.0,0.0,0.0,106.595024,0.1431214,-0.37748316
1588602333090,-0.062249243,-0.020350715,9.8042555,-61.300003,-260.1,-109.2,-0.07696902,0.036651913,0.014049901,-1.0,0.0,0.0,106.595024,0.1431214,-0.37748316
1588602333102,-0.06584055,-0.022744916,9.793482,-61.300003,-260.1,-109.2,-0.07880162,0.036651913,0.014660766,-1.0,0.0,0.0,106.595024,0.1431214,-0.37748316
1588602333111,-0.05626374,-0.023942016,9.788693,-61.300003,-260.1,-109.2,-0.07696902,0.035430185,0.014660766,-1.0,0.0,0.0,106.595024,0.1431214,-0.37748316
1588602333122,-0.053869538,-0.025139118,9.788693,-61.300003,-260.1,-109.2,-0.07574729,0.03726278,0.015271631,-1.0,0.0,0.0,106.59519,0.14715965,-0.31505615
1588602333133,-0.06943185,-0.019153614,9.794679,-61.300003,-260.1,-109.2,-0.07696902,0.034208454,0.014049901,-1.0,0.0,0.0,106.68121,0.11157748,-0.40734634
1588602333142,-0.05865794,-0.023942016,9.7958765,-61.300003,-260.1,-109.2,-0.07513642,0.03604105,0.015271631,-1.0,0.0,0.0,106.68136,0.14045689,-0.34212798
1588602333154,-0.06823475,-0.01436521,9.799467,-61.300003,-260.1,-109.2,-0.07513642,0.036651913,0.014049901,-1.0,0.0,0.0,106.621895,0.08467916,-0.39825565
1588602333165,-0.062249243,-0.02633622,9.79827,-61.300003,-260.1,-109.2,-0.07513642,0.034208454,0.014660766,-1.0,0.0,0.0,106.621956,0.15336666,-0.36431238
1588602333177,-0.062249243,-0.022744916,9.805453,-61.300003,-260.1,-109.2,-0.076358154,0.037873644,0.015271631,-1.0,0.0,0.0,106.64993,0.15336664,-0.3643123
1588602333189,-0.06943185,-0.023942016,9.799467,-61.4,-260.1,-109.1,-0.07574729,0.036651913,0.014660766,-1.0,0.0,0.0,106.64995,0.1533667,-0.3643124
1588602333199,-0.062249243,-0.023942016,9.7958765,-61.4,-260.1,-109.1,-0.07819075,0.03604105,0.014049901,-1.0,0.0,0.0,106.5976,0.15336668,-0.3643124
1588602333209,-0.06344634,-0.023942016,9.794679,-61.300003,-260.1,-109.2,-0.07574729,0.032986723,0.015271631,-1.0,0.0,0.0,106.59848,0.15846103,-0.36882782
1588602333220,-0.08499416,-0.021547815,9.787497,-61.300003,-260.1,-109.2,-0.07574729,0.03359759,0.013439035,-1.0,0.0,0.0,106.662155,0.073628165,-0.5149657
1588602333232,-0.073023155,-0.01436521,9.785102,-61.300003,-260.1,-109.2,-0.07574729,0.03481932,0.015882496,-1.0,0.0,0.0,106.156845,0.07731094,-0.51877964
1588602333241,-0.073023155,-0.01436521,9.785102,-61.300003,-260.1,-109.2,-0.07696902,0.03604105,0.014049901,-1.0,0.0,0.0,106.156845,0.07731094,-0.51877964
1588602333255,-0.062249243,-0.02633622,9.787497,-61.300003,-260.1,-109.2,-0.07574729,0.03481932,0.01282817,-1.0,0.0,0.0,106.165794,0.086359225,-0.5256911
1588602333265,-0.059855044,-0.02633622,9.791088,-61.300003,-260.1,-109.2,-0.07574729,0.035430185,0.014660766,-1.0,0.0,0.0,106.166306,0.09052985,-0.52881616
1588602333275,-0.05865794,-0.023942016,9.797073,-61.300003,-260.1,-109.1,-0.077579886,0.035430185,0.013439035,-1.0,0.0,0.0,106.175934,0.09571265,-0.5317399
1588602333289,-0.07182605,-0.01316811,9.794679,-61.300003,-260.1,-109.1,-0.076358154,0.03604105,0.014660766,-1.0,0.0,0.0,106.17611,0.09962262,-0.53459644
1588602333302,-0.05865794,-0.010773907,9.794679,-61.300003,-260.1,-109.1,-0.07574729,0.036651913,0.014049901,-1.0,0.0,0.0,106.18934,0.107120425,-0.54065454
1588602333312,-0.047884032,0.0011971008,9.791088,-61.300003,-260.1,-109.1,-0.076358154,0.03481932,0.012217305,-1.0,0.0,0.0,106.2029,0.10690524,-0.5388579
1588602333321,-0.06584055,-0.015562311,9.792285,-61.300003,-260.1,-109.1,-0.077579886,0.03481932,0.015271631,-1.0,0.0,0.0,106.202896,0.10669833,-0.53709203
1588602333330,-0.050278235,-0.010773907,9.773131,-61.300003,-260.1,-109.0,-0.07880162,0.03481932,0.014049901,-1.0,0.0,0.0,106.21419,0.10644612,-0.5351734
1588602333342,-0.06344634,-0.023942016,9.77792,-61.300003,-260.1,-109.0,-0.076358154,0.03481932,0.01282817,-1.0,0.0,0.0,106.214195,0.10629729,-0.53327596
1588602333352,-0.062249243,-0.02633622,9.773131,-61.300003,-260.1,-109.0,-0.07574729,0.03481932,0.014660766,-1.0,0.0,0.0,106.224144,0.10626093,-0.531389
1588602333365,-0.06703765,-0.03232172,9.779117,-61.300003,-260.1,-109.0,-0.073303826,0.03604105,0.014049901,-1.0,0.0,0.0,106.224144,0.106381126,-0.52958256
1588602333374,-0.07062895,-0.035913024,9.7863,-61.300003,-260.1,-109.0,-0.07269296,0.035430185,0.015882496,-1.0,0.0,0.0,106.23253,0.106667556,-0.5278774
1588602333386,-0.073023155,-0.037110128,9.800665,-61.300003,-260.1,-109.0,-0.07574729,0.035430185,0.015882496,-1.0,0.0,0.0,106.23252,0.10710917,-0.5262605
1588602333396,-0.074220255,-0.021547815,9.800665,-61.300003,-260.0,-109.0,-0.07391469,0.03726278,0.016493361,-1.0,0.0,0.0,106.205925,0.10750011,-0.5247878
1588602333408,-0.06344634,-0.0023942017,9.828198,-61.4,-260.0,-109.0,-0.076358154,0.03481932,0.013439035,-1.0,0.0,0.0,106.20593,0.107658744,-0.5232905
1588602333418,-0.076614454,0.011971008,9.813833,-61.4,-260.0,-109.0,-0.076358154,0.03604105,0.014660766,-1.0,0.0,0.0,106.17513,0.10747401,-0.5218929
1588602333429,-0.08499416,0.020350715,9.800665,-61.300003,-260.0,-108.899994,-0.076358154,0.035430185,0.015271631,-1.0,0.0,0.0,106.17514,0.106922045,-0.52070105
1588602333443,-0.088585466,0.010773907,9.785102,-61.300003,-260.0,-108.899994,-0.077579886,0.034208454,0.013439035,-1.0,0.0,0.0,106.16011,0.10519546,-0.51890564
1588602333454,-0.06943185,-0.023942016,9.752781,-61.300003,-260.0,-108.899994,-0.077579886,0.035430185,0.014049901,-1.0,0.0,0.0,106.14708,0.10449047,-0.5180542
1588602333464,-0.05746084,-0.06584055,9.743204,-61.300003,-260.0,-108.899994,-0.077579886,0.035430185,0.013439035,-1.0,0.0,0.0,106.14709,0.10438995,-0.51702964
1588602333476,-0.051475335,-0.08499416,9.775525,-61.2,-260.0,-108.899994,-0.077579886,0.037873644,0.013439035,-1.0,0.0,0.0,106.14709,0.104994275,-0.5157948
1588602333488,-0.053869538,-0.07062895,9.765948,-61.2,-260.0,-108.899994,-0.07574729,0.03481932,0.014049901,-1.0,0.0,0.0,106.147095,0.10606887,-0.51437724
1588602333499,-0.06344634,-0.04309563,9.787497,-61.2,-260.0,-108.899994,-0.07513642,0.03604105,0.014660766,-1.0,0.0,0.0,106.14711,0.107234046,-0.5129308
1588602333509,-0.046686932,-0.022744916,9.800665,-61.2,-260.0,-109.0,-0.073303826,0.03726278,0.014049901,-1.0,0.0,0.0,106.147095,0.10826721,-0.5112635
1588602333520,-0.06344634,0.022744916,9.817424,-61.2,-260.0,-109.0,-0.07513642,0.036651913,0.015882496,-1.0,0.0,0.0,106.15086,0.10866732,-0.50966704
1588602333531,-0.077811554,0.04189853,9.7958765,-61.300003,-260.0,-109.0,-0.076358154,0.035430185,0.013439035,-1.0,0.0,0.0,106.15086,0.10843203,-0.50825584
1588602333542,-0.077811554,0.04189853,9.7958765,-61.300003,-260.0,-109.0,-0.076358154,0.034208454,0.013439035,-1.0,0.0,0.0,106.14333,0.10760378,-0.5069781
1588602333556,-0.062249243,-0.03232172,9.776723,-61.2,-260.0,-109.0,-0.07696902,0.035430185,0.010995574,-1.0,0.0,0.0,106.14867,0.10572702,-0.5048205
1588602333567,-0.05267244,-0.062249243,9.783905,-61.2,-260.0,-109.0,-0.07696902,0.036651913,0.014049901,-1.0,0.0,0.0,106.14865,0.10554847,-0.5035597
1588602333577,-0.050278235,-0.08140286,9.767146,-61.2,-260.0,-109.1,-0.07696902,0.035430185,0.015882496,-1.0,0.0,0.0,106.14866,0.106053196,-0.50214034
1588602333589,-0.06943185,-0.05626374,9.77792,-61.2,-260.0,-109.0,-0.077579886,0.03481932,0.016493361,-1.0,0.0,0.0,106.14866,0.10688443,-0.5007623
1588602333599,-0.07182605,-0.03232172,9.781511,-61.2,-260.0,-109.0,-0.07269296,0.03481932,0.015882496,-1.0,0.0,0.0,106.1552,0.10771505,-0.49948615
1588602333611,-0.075417355,0.020350715,9.797073,-61.2,-260.0,-109.0,-0.07391469,0.03481932,0.014049901,-1.0,0.0,0.0,106.1617,0.108111635,-0.49706197
1588602333621,-0.088585466,0.021547815,9.791088,-61.2,-260.0,-109.0,-0.07696902,0.03604105,0.015271631,-1.0,0.0,0.0,106.161705,0.10766325,-0.4961371
1588602333633,-0.077811554,0.027533319,9.809045,-61.2,-260.0,-109.0,-0.07574729,0.03481932,0.014660766,-1.0,0.0,0.0,106.16172,0.10683444,-0.49531358
1588602333643,-0.073023155,0.0011971008,9.799467,-61.2,-260.0,-109.0,-0.07696902,0.03481932,0.013439035,-1.0,0.0,0.0,106.16173,0.10593738,-0.49450043
1588602333654,-0.05626374,-0.025139118,9.791088,-61.2,-260.0,-109.0,-0.077579886,0.035430185,0.014049901,-1.0,0.0,0.0,106.165474,0.10527018,-0.4935469
1588602333667,-0.06344634,-0.04309563,9.785102,-61.2,-260.0,-109.1,-0.07696902,0.03481932,0.01282817,-1.0,0.0,0.0,106.1655,0.104973614,-0.49255696
1588602333677,-0.051475335,-0.07182605,9.758766,-61.2,-260.0,-109.1,-0.07696902,0.036651913,0.014660766,-1.0,0.0,0.0,106.16548,0.10527102,-0.49138254
1588602333687,-0.05865794,-0.051475335,9.776723,-61.2,-260.0,-109.1,-0.07513642,0.035430185,0.015271631,-1.0,0.0,0.0,106.16551,0.10586318,-0.49014255
1588602333699,-0.055066638,-0.022744916,9.779117,-61.2,-260.0,-109.1,-0.076358154,0.03604105,0.013439035,-1.0,0.0,0.0,106.16926,0.10641061,-0.48880073
1588602333708,-0.061052144,-0.017956512,9.783905,-61.2,-260.0,-109.0,-0.07513642,0.034208454,0.017715093,-1.0,0.0,0.0,106.16926,0.10687143,-0.48742935
1588602333720,-0.073023155,0.019153614,9.810242,-61.2,-260.0,-109.0,-0.07452556,0.034208454,0.015882496,-1.0,0.0,0.0,106.169266,0.10703031,-0.48527613
1588602333732,-0.076614454,0.022744916,9.812635,-61.2,-260.0,-109.1,-0.07819075,0.034208454,0.014049901,-1.0,0.0,0.0,106.173035,0.10649838,-0.48433983
1588602333742,-0.075417355,0.01436521,9.794679,-61.2,-260.0,-109.1,-0.076358154,0.036651913,0.014660766,-1.0,0.0,0.0,106.17305,0.105729215,-0.48349068
1588602333754,-0.07062895,-0.016759412,9.782708,-61.2,-260.0,-109.1,-0.07513642,0.03604105,0.014660766,-1.0,0.0,0.0,106.17305,0.105062604,-0.48264647
1588602333763,-0.06943185,-0.029927522,9.7803135,-61.2,-260.0,-109.1,-0.07452556,0.03604105,0.012217305,-1.0,0.0,0.0,106.17305,0.10464864,-0.4818433
1588602333776,-0.051475335,-0.047884032,9.774328,-61.2,-260.0,-109.1,-0.07513642,0.034208454,0.015271631,-1.0,0.0,0.0,106.17305,0.10460138,-0.4808627
1588602333787,-0.051475335,-0.039504327,9.76954,-61.2,-260.0,-109.1,-0.07391469,0.03604105,0.015271631,-1.0,0.0,0.0,106.17306,0.104783446,-0.47971007
1588602333796,-0.053869538,-0.025139118,9.788693,-61.2,-260.0,-109.1,-0.07391469,0.03604105,0.015882496,-1.0,0.0,0.0,106.17306,0.105006866,-0.47847584
1588602333809,-0.06464344,-0.011971008,9.80665,-61.2,-260.0,-109.1,-0.07941248,0.036651913,0.017104227,-1.0,0.0,0.0,106.173065,0.105132066,-0.47727078
1588602333819,-0.074220255,0.01316811,9.805453,-61.2,-260.0,-109.1,-0.07574729,0.03359759,0.013439035,-1.0,0.0,0.0,106.17682,0.104918875,-0.4761914
1588602333830,-0.08259996,0.011971008,9.788693,-61.2,-260.1,-109.1,-0.07696902,0.03481932,0.015882496,-1.0,0.0,0.0,106.2156,0.10352079,-0.4745718
1588602333842,-0.06344634,-0.023942016,9.787497,-61.2,-260.1,-109.1,-0.07696902,0.036651913,0.013439035,-1.0,0.0,0.0,106.21559,0.10292304,-0.473794
1588602333852,-0.075417355,-0.039504327,9.776723,-61.2,-260.0,-109.2,-0.07513642,0.03359759,0.013439035,-1.0,0.0,0.0,106.20908,0.10264419,-0.47308868
1588602333864,-0.07182605,-0.053869538,9.767146,-61.2,-260.0,-109.2,-0.07452556,0.037873644,0.015271631,-1.0,0.0,0.0,106.209076,0.10277227,-0.472441
1588602333876,-0.053869538,-0.06464344,9.776723,-61.2,-260.0,-109.2,-0.07574729,0.036651913,0.015271631,-1.0,0.0,0.0,106.20534,0.10336494,-0.47159934
1588602333887,-0.059855044,-0.046686932,9.7863,-61.2,-260.0,-109.2,-0.07452556,0.03726278,0.01282817,-1.0,0.0,0.0,106.20534,0.10415926,-0.47068217
1588602333898,-0.050278235,-0.022744916,9.788693,-61.2,-260.0,-109.2,-0.073303826,0.03359759,0.017104227,-1.0,0.0,0.0,106.20157,0.1048648,-0.46961895
1588602333909,-0.074220255,-0.0023942017,9.801862,-61.300003,-260.0,-109.2,-0.07696902,0.035430185,0.016493361,-1.0,0.0,0.0,106.20157,0.10528999,-0.4686807
1588602333921,-0.08140286,0.021547815,9.805453,-61.300003,-260.0,-109.2,-0.07696902,0.034208454,0.015271631,-1.0,0.0,0.0,106.19162,0.10524598,-0.4679228
1588602333931,-0.088585466,0.023942016,9.78989,-61.2,-260.0,-109.299995,-0.07574729,0.03481932,0.015271631,-1.0,0.0,0.0,106.1954,0.10381832,-0.46703008
1588602333941,-0.088585466,0.023942016,9.78989,-61.2,-260.0,-109.299995,-0.076358154,0.03481932,0.013439035,-1.0,0.0,0.0,106.1954,0.10381832,-0.46703008
1588602333953,-0.06823475,-0.031124622,9.768343,-61.2,-260.0,-109.299995,-0.076358154,0.036651913,0.013439035,-1.0,0.0,0.0,106.195404,0.10229836,-0.46641496
1588602333964,-0.059855044,-0.055066638,9.774328,-61.2,-260.0,-109.299995,-0.077579886,0.03604105,0.01282817,-1.0,0.0,0.0,106.195404,0.10229836,-0.46641496
1588602333974,-0.044292733,-0.076614454,9.7803135,-61.300003,-260.0,-109.299995,-0.07574729,0.034208454,0.014660766,-1.0,0.0,0.0,106.18546,0.102782145,-0.46565327
1588602333987,-0.049081136,-0.031124622,9.787497,-61.300003,-260.0,-109.299995,-0.07574729,0.037873644,0.015882496,-1.0,0.0,0.0,106.18545,0.10331848,-0.46471742
1588602333997,-0.059855044,-0.007182605,9.801862,-61.300003,-260.1,-109.299995,-0.07452556,0.034208454,0.01282817,-1.0,0.0,0.0,106.21337,0.10365917,-0.46374398
1588602334007,-0.073023155,0.03232172,9.807847,-61.300003,-260.1,-109.299995,-0.07574729,0.03481932,0.015271631,-1.0,0.0,0.0,106.21337,0.10344186,-0.46286756
1588602334020,-0.093373865,0.04189853,9.8042555,-61.300003,-260.1,-109.299995,-0.07696902,0.035430185,0.013439035,-1.0,0.0,0.0,106.236244,0.101396345,-0.46160778
1588602334028,-0.093373865,0.04189853,9.8042555,-61.300003,-260.1,-109.299995,-0.07696902,0.035430185,0.013439035,-1.0,0.0,0.0,106.236244,0.101396345,-0.46160778
1588602334041,-0.08140286,0.01316811,9.79827,-61.300003,-260.1,-109.399994,-0.076358154,0.03726278,0.01282817,-1.0,0.0,0.0,106.25427,0.100020066,-0.4612161
1588602334051,-0.06464344,-0.039504327,9.782708,-61.300003,-260.0,-109.5,-0.076358154,0.035430185,0.014049901,-1.0,0.0,0.0,106.23141,0.09806836,-0.46056345
1588602334062,-0.053869538,-0.079008654,9.7803135,-61.300003,-260.0,-109.5,-0.07819075,0.03604105,0.014660766,-1.0,0.0,0.0,106.23141,0.09806836,-0.46056345
1588602334072,-0.051475335,-0.076614454,9.773131,-61.300003,-260.0,-109.5,-0.077579886,0.035430185,0.014049901,-1.0,0.0,0.0,106.21224,0.098670565,-0.45982188
1588602334084,-0.053869538,-0.04189853,9.774328,-61.300003,-260.0,-109.5,-0.076358154,0.034208454,0.012217305,-1.0,0.0,0.0,106.21225,0.09943606,-0.45894346
1588602334095,-0.05865794,-0.029927522,9.781511,-61.300003,-260.0,-109.399994,-0.07452556,0.03481932,0.014660766,-1.0,0.0,0.0,106.198166,0.10020643,-0.4580098
1588602334105,-0.073023155,0.007182605,9.7863,-61.300003,-260.0,-109.399994,-0.07574729,0.034208454,0.015882496,-1.0,0.0,0.0,106.19817,0.1005924,-0.4571937
1588602334118,-0.08499416,0.027533319,9.794679,-61.300003,-260.0,-109.399994,-0.077579886,0.03481932,0.014660766,-1.0,0.0,0.0,106.18897,0.100471094,-0.45661774
1588602334128,-0.08738836,0.033518825,9.803059,-61.300003,-260.0,-109.399994,-0.077579886,0.03481932,0.014660766,-1.0,0.0,0.0,106.18897,0.09989292,-0.45622852
1588602334142,-0.07182605,-0.007182605,9.793482,-61.300003,-260.0,-109.399994,-0.07819075,0.03726278,0.01282817,-1.0,0.0,0.0,106.17976,0.09791533,-0.45565888
1588602334150,-0.05865794,-0.031124622,9.7803135,-61.300003,-260.1,-109.299995,-0.076358154,0.03481932,0.014049901,-1.0,0.0,0.0,106.20689,0.097285636,-0.455234
1588602334163,-0.06584055,-0.051475335,9.770737,-61.300003,-260.1,-109.299995,-0.07696902,0.036651913,0.015271631,-1.0,0.0,0.0,106.20689,0.097285636,-0.455234
1588602334173,-0.061052144,-0.073023155,9.776723,-61.4,-260.1,-109.2,-0.07391469,0.036651913,0.01282817,-1.0,0.0,0.0,106.21753,0.0976721,-0.45469615
1588602334183,-0.06464344,-0.051475335,9.768343,-61.4,-260.1,-109.2,-0.077579886,0.036651913,0.014660766,-1.0,0.0,0.0,106.21753,0.098389,-0.4540687
1588602334195,-0.05626374,-0.027533319,9.783905,-61.300003,-260.1,-109.299995,-0.07452556,0.03481932,0.014049901,-1.0,0.0,0.0,106.23848,0.099065885,-0.45335823
1588602334208,-0.07062895,0.0011971008,9.807847,-61.300003,-260.1,-109.299995,-0.07452556,0.036651913,0.014049901,-1.0,0.0,0.0,106.23848,0.09944632,-0.45270115
1588602334218,-0.06943185,0.01436521,9.801862,-61.4,-260.1,-109.299995,-0.07391469,0.035430185,0.014660766,-1.0,0.0,0.0,106.24689,0.099452175,-0.45211205
1588602334228,-0.076614454,0.007182605,9.78989,-61.4,-260.1,-109.299995,-0.07391469,0.035430185,0.014660766,-1.0,0.0,0.0,106.246864,0.09945214,-0.45211193
1588602334239,-0.08259996,-0.015562311,9.7863,-61.4,-260.1,-109.299995,-0.076358154,0.034208454,0.01282817,-1.0,0.0,0.0,106.252205,0.09945219,-0.45211205
1588602334250,-0.06344634,-0.03232172,9.788693,-61.4,-260.1,-109.2,-0.076358154,0.03481932,0.015271631,-1.0,0.0,0.0,106.25752,0.09945219,-0.45211205
1588602334261,-0.06943185,-0.047884032,9.7863,-61.4,-260.1,-109.2,-0.077579886,0.035430185,0.014049901,-1.0,0.0,0.0,106.257515,0.09987968,-0.45160976
1588602334271,-0.06584055,-0.039504327,9.787497,-61.300003,-260.0,-109.2,-0.07696902,0.036651913,0.015882496,-1.0,0.0,0.0,106.23659,0.10044097,-0.4510976
1588602334284,-0.045489833,-0.02633622,9.791088,-61.300003,-260.0,-109.2,-0.07391469,0.035430185,0.015271631,-1.0,0.0,0.0,106.23659,0.10101734,-0.45033646
1588602334295,-0.06344634,-0.015562311,9.79827,-61.300003,-260.0,-109.2,-0.07391469,0.03604105,0.015882496,-1.0,0.0,0.0,106.220634,0.10148126,-0.449563
1588602334306,-0.073023155,0.007182605,9.797073,-61.300003,-260.0,-109.2,-0.07574729,0.03481932,0.015271631,-1.0,0.0,0.0,106.22065,0.10161124,-0.4489145
1588602334317,-0.09816227,0.022744916,9.788693,-61.300003,-260.0,-109.2,-0.07574729,0.03481932,0.015882496,-1.0,0.0,0.0,106.20876,0.10161124,-0.4489145
1588602334327,-0.08738836,0.010773907,9.7863,-61.300003,-260.0,-109.2,-0.07513642,0.03604105,0.015882496,-1.0,0.0,0.0,106.20876,0.10161124,-0.4489145
1588602334337,-0.08379706,-0.008379706,9.785102,-61.300003,-260.0,-109.2,-0.077579886,0.03604105,0.013439035,-1.0,0.0,0.0,106.199554,0.10161126,-0.4489145
1588602334350,-0.06584055,-0.029927522,9.793482,-61.300003,-260.0,-109.2,-0.07391469,0.036651913,0.014049901,-1.0,0.0,0.0,106.19954,0.101611175,-0.4489144
1588602334356,-0.051475335,-0.05865794,9.791088,-61.300003,-260.0,-109.2,-0.07391469,0.036651913,0.014049901,-1.0,0.0,0.0,106.19202,0.10161119,-0.44891435
1588602334370,-0.05746084,-0.045489833,9.788693,-61.300003,-260.0,-109.2,-0.07513642,0.036651913,0.013439035,-1.0,0.0,0.0,106.192024,0.10200954,-0.4483874
1588602334381,-0.075417355,-0.01436521,9.788693,-61.300003,-260.0,-109.2,-0.07513642,0.034208454,0.014049901,-1.0,0.0,0.0,106.186714,0.10290941,-0.44713306
1588602334391,-0.06584055,0.005985504,9.794679,-61.300003,-260.0,-109.2,-0.07574729,0.03359759,0.015271631,-1.0,0.0,0.0,106.1814,0.10290942,-0.44713306
1588602334404,-0.090979666,0.021547815,9.7863,-61.300003,-260.0,-109.2,-0.07574729,0.03604105,0.014049901,-1.0,0.0,0.0,106.1814,0.10290942,-0.44713306
1588602334415,-0.09696517,0.021547815,9.791088,-61.300003,-260.0,-109.2,-0.07819075,0.03481932,0.01282817,-1.0,0.0,0.0,106.177635,0.10225591,-0.4470395
1588602334425,-0.06344634,-0.027533319,9.77792,-61.300003,-260.0,-109.2,-0.077579886,0.03481932,0.014049901,-1.0,0.0,0.0,106.177635,0.10225591,-0.4470395
1588602334437,-0.06943185,-0.051475335,9.776723,-61.300003,-260.0,-109.2,-0.076358154,0.03481932,0.013439035,-1.0,0.0,0.0,106.17232,0.102255926,-0.4470395
1588602334450,-0.059855044,-0.059855044,9.775525,-61.300003,-260.1,-109.2,-0.07513642,0.03481932,0.013439035,-1.0,0.0,0.0,106.17232,0.102255926,-0.4470395
1588602334461,-0.051475335,-0.033518825,9.774328,-61.300003,-260.1,-109.2,-0.07819075,0.036651913,0.015271631,-1.0,0.0,0.0,106.20598,0.10369749,-0.44601178
1588602334471,-0.05865794,-0.022744916,9.781511,-61.300003,-260.1,-109.1,-0.076358154,0.03481932,0.017104227,-1.0,0.0,0.0,106.23487,0.10436901,-0.44533238
1588602334482,-0.06584055,0.008379706,9.803059,-61.300003,-260.1,-109.1,-0.07391469,0.034208454,0.015882496,-1.0,0.0,0.0,106.23487,0.1046497,-0.44469535
1588602334493,-0.08259996,0.04070143,9.82341,-61.300003,-260.1,-109.1,-0.07513642,0.03604105,0.017715093,-1.0,0.0,0.0,106.258934,0.104649685,-0.4446953
1588602334505,-0.077811554,0.055066638,9.828198,-61.300003,-260.1,-109.1,-0.07574729,0.035430185,0.014660766,-1.0,0.0,0.0,106.258965,0.10362412,-0.44429466
1588602334514,-0.08619126,0.039504327,9.80665,-61.300003,-260.1,-109.1,-0.077579886,0.035430185,0.014660766,-1.0,0.0,0.0,106.27775,0.10214012,-0.44405454
1588602334526,-0.08619126,-0.0047884034,9.788693,-61.300003,-260.1,-109.1,-0.07696902,0.03604105,0.013439035,-1.0,0.0,0.0,106.27775,0.1007897,-0.44396392
1588602334540,-0.07182605,-0.027533319,9.7803135,-61.300003,-260.1,-109.1,-0.07696902,0.037873644,0.015271631,-1.0,0.0,0.0,106.29078,0.09981405,-0.44385228
1588602334550,-0.06464344,-0.06344634,9.752781,-61.300003,-260.1,-109.1,-0.07452556,0.03604105,0.013439035,-1.0,0.0,0.0,106.29078,0.09981405,-0.44385228
1588602334561,-0.05746084,-0.10295067,9.755175,-61.300003,-260.1,-109.1,-0.07513642,0.035430185,0.014660766,-1.0,0.0,0.0,106.300735,0.10166495,-0.44288734
1588602334571,-0.050278235,-0.055066638,9.77792,-61.300003,-260.1,-109.0,-0.073303826,0.035430185,0.01282817,-1.0,0.0,0.0,106.30995,0.10318011,-0.44216412
1588602334583,-0.047884032,-0.01436521,9.8042555,-61.300003,-260.1,-109.0,-0.07269296,0.034208454,0.015271631,-1.0,0.0,0.0,106.30996,0.10439522,-0.4412777
1588602334593,-0.06943185,0.027533319,9.834184,-61.300003,-260.1,-109.0,-0.076358154,0.037873644,0.014049901,-1.0,0.0,0.0,106.31991,0.10492453,-0.44048542
1588602334604,-0.08499416,0.07062895,9.834184,-61.300003,-260.1,-109.0,-0.076358154,0.03604105,0.014660766,-1.0,0.0,0.0,106.31991,0.104477555,-0.43995273
1588602334615,-0.09696517,0.07182605,9.836577,-61.300003,-260.1,-109.0,-0.07574729,0.034208454,0.015271631,-1.0,0.0,0.0,106.32911,0.10314849,-0.43970278
1588602334627,-0.08619126,0.06464344,9.80665,-61.300003,-260.1,-109.0,-0.076358154,0.03604105,0.014049901,-1.0,0.0,0.0,106.329124,0.10112709,-0.43960544
1588602334636,-0.090979666,0.027533319,9.7863,-61.300003,-260.1,-109.0,-0.07941248,0.036651913,0.013439035,-1.0,0.0,0.0,106.335625,0.09893469,-0.43969592
1588602334648,-0.05746084,-0.05626374,9.779117,-61.300003,-260.1,-109.0,-0.077579886,0.035430185,0.014049901,-1.0,0.0,0.0,106.33562,0.09762518,-0.4395874
1588602334660,-0.03232172,-0.10654198,9.758766,-61.300003,-260.1,-109.0,-0.07452556,0.03359759,0.014660766,-1.0,0.0,0.0,106.33562,0.09762518,-0.4395874
1588602334669,-0.02873042,-0.10654198,9.755175,-61.2,-260.1,-109.0,-0.076358154,0.03481932,0.014049901,-1.0,0.0,0.0,106.335625,0.09838103,-0.43869427
1588602334682,-0.06584055,-0.022744916,9.793482,-61.2,-260.1,-109.0,-0.07452556,0.03481932,0.016493361,-1.0,0.0,0.0,106.3394,0.10054487,-0.43661165
1588602334688,-0.06584055,-0.022744916,9.793482,-61.2,-260.1,-109.0,-0.07452556,0.03481932,0.016493361,-1.0,0.0,0.0,106.3394,0.10054487,-0.43661165
1588602334702,-0.075417355,0.04070143,9.799467,-61.2,-260.1,-109.0,-0.0720821,0.03481932,0.015271631,-1.0,0.0,0.0,106.34317,0.10087574,-0.43521425
1588602334712,-0.090979666,0.06344634,9.816227,-61.2,-260.1,-109.0,-0.076358154,0.03359759,0.014049901,-1.0,0.0,0.0,106.34693,0.09991556,-0.43484372
1588602334724,-0.095768064,0.03232172,9.800665,-61.2,-260.1,-109.0,-0.07574729,0.035430185,0.014049901,-1.0,0.0,0.0,106.34693,0.09860418,-0.43475276
1588602334734,-0.077811554,0.03232172,9.78989,-61.300003,-260.2,-109.0,-0.077579886,0.035430185,0.014660766,-1.0,0.0,0.0,106.34693,0.096961424,-0.4347121
1588602334746,-0.05746084,-0.029927522,9.782708,-61.300003,-260.2,-109.0,-0.07513642,0.03604105,0.012217305,-1.0,0.0,0.0,106.34694,0.0957688,-0.43450686
1588602334757,-0.050278235,-0.073023155,9.7719345,-61.300003,-260.2,-109.1,-0.07819075,0.03726278,0.016493361,-1.0,0.0,0.0,106.34694,0.0957688,-0.43450686
1588602334768,-0.049081136,-0.09935937,9.763555,-61.300003,-260.2,-109.1,-0.07452556,0.03604105,0.014660766,-1.0,0.0,0.0,106.34694,0.09625738,-0.43392536
1588602334780,-0.051475335,-0.06344634,9.767146,-61.300003,-260.1,-109.1,-0.07452556,0.03604105,0.014660766,-1.0,0.0,0.0,106.34693,0.097148046,-0.433203
1588602334792,-0.06823475,0.005985504,9.794679,-61.300003,-260.2,-109.1,-0.07574729,0.037873644,0.016493361,-1.0,0.0,0.0,106.35069,0.09845201,-0.4317496
1588602334801,-0.08140286,0.035913024,9.800665,-61.300003,-260.2,-109.1,-0.07513642,0.032986723,0.014660766,-1.0,0.0,0.0,106.35069,0.09845201,-0.4317496
1588602334813,-0.076614454,0.05267244,9.800665,-61.2,-260.2,-109.1,-0.07513642,0.035430185,0.014049901,-1.0,0.0,0.0,106.350685,0.097638614,-0.43135718
1588602334823,-0.08379706,0.044292733,9.80665,-61.2,-260.2,-109.1,-0.076358154,0.035430185,0.01282817,-1.0,0.0,0.0,106.35069,0.0963059,-0.43112218
1588602334836,-0.094570965,0.009576807,9.800665,-61.2,-260.2,-109.1,-0.07696902,0.035430185,0.012217305,-1.0,0.0,0.0,106.35069,0.094932444,-0.4311422
1588602334846,-0.07182605,-0.020350715,9.787497,-61.2,-260.2,-109.1,-0.07819075,0.034208454,0.012217305,-1.0,0.0,0.0,106.3507,0.09385462,-0.43114012
1588602334857,-0.061052144,-0.08140286,9.76116,-61.2,-260.2,-109.2,-0.07819075,0.036651913,0.014049901,-1.0,0.0,0.0,106.3507,0.09385462,-0.43114012
1588602334868,-0.047884032,-0.079008654,9.770737,-61.2,-260.2,-109.2,-0.07574729,0.03481932,0.013439035,-1.0,0.0,0.0,106.3507,0.09385462,-0.43114012
1588602334879,-0.055066638,-0.038307227,9.781511,-61.300003,-260.2,-109.2,-0.07269296,0.03481932,0.015271631,-1.0,0.0,0.0,106.3507,0.09443772,-0.43065393
1588602334891,-0.059855044,0.005985504,9.78989,-61.300003,-260.3,-109.1,-0.07452556,0.03604105,0.016493361,-1.0,0.0,0.0,106.350685,0.09515851,-0.42955002
1588602334903,-0.088585466,0.02873042,9.801862,-61.300003,-260.3,-109.1,-0.07391469,0.03604105,0.015271631,-1.0,0.0,0.0,106.350685,0.09515851,-0.42955002
1588602334911,-0.095768064,0.04070143,9.812635,-61.300003,-260.3,-109.0,-0.07880162,0.03481932,0.01282817,-1.0,0.0,0.0,106.35069,0.09439963,-0.4294888
1588602334924,-0.092176765,0.02633622,9.8042555,-61.300003,-260.3,-109.0,-0.07269296,0.034208454,0.014660766,-1.0,0.0,0.0,106.3507,0.09330503,-0.42962223
1588602334934,-0.076614454,-0.015562311,9.7958765,-61.300003,-260.3,-109.0,-0.077579886,0.03481932,0.012217305,-1.0,0.0,0.0,106.35069,0.09236306,-0.42976913
1588602334946,-0.062249243,-0.03232172,9.793482,-61.300003,-260.3,-109.0,-0.07880162,0.03359759,0.014049901,-1.0,0.0,0.0,106.35069,0.09236306,-0.42976913
1588602334957,-0.07062895,-0.047884032,9.787497,-61.300003,-260.2,-108.899994,-0.076358154,0.036651913,0.013439035,-1.0,0.0,0.0,106.345375,0.09236305,-0.42976913
1588602334967,-0.05626374,-0.06584055,9.7863,-61.300003,-260.2,-108.899994,-0.07574729,0.036651913,0.014049901,-1.0,0.0,0.0,106.345375,0.09236305,-0.42976913
1588602334981,-0.05267244,-0.027533319,9.7803135,-61.2,-260.2,-108.899994,-0.07391469,0.035430185,0.014660766,-1.0,0.0,0.0,106.34164,0.093587056,-0.42906383
1588602334992,-0.07182605,-0.007182605,9.792285,-61.2,-260.2,-108.899994,-0.07513642,0.03481932,0.015271631,-1.0,0.0,0.0,106.34164,0.093587056,-0.42906383
1588602335002,-0.075417355,0.005985504,9.79827,-61.2,-260.2,-108.899994,-0.07696902,0.03481932,0.016493361,-1.0,0.0,0.0,106.34164,0.093587056,-0.42906383
1588602335012,-0.079008654,0.017956512,9.799467,-61.2,-260.2,-108.899994,-0.07574729,0.03604105,0.014660766,-1.0,0.0,0.0,106.34164,0.093587056,-0.42906383
1588602335024,-0.07182605,0.009576807,9.7958765,-61.2,-260.2,-108.899994,-0.076358154,0.03604105,0.014660766,-1.0,0.0,0.0,106.34164,0.093587056,-0.42906383
1588602335034,-0.075417355,0.0035913025,9.787497,-61.2,-260.2,-108.799995,-0.07513642,0.03359759,0.01282817,-1.0,0.0,0.0,106.34164,0.093587056,-0.42906383
1588602335047,-0.06823475,-0.027533319,9.793482,-61.2,-260.2,-108.799995,-0.076358154,0.03604105,0.013439035,-1.0,0.0,0.0,106.34164,0.093587056,-0.42906383
1588602335057,-0.053869538,-0.031124622,9.783905,-61.2,-260.2,-108.799995,-0.07574729,0.035430185,0.013439035,-1.0,0.0,0.0,106.34164,0.093587056,-0.42906383
1588602335069,-0.062249243,-0.055066638,9.77792,-61.300003,-260.2,-108.799995,-0.07574729,0.03726278,0.014660766,-1.0,0.0,0.0,106.34164,0.093587056,-0.42906383
1588602335081,-0.07182605,-0.04070143,9.78989,-61.300003,-260.2,-108.799995,-0.07391469,0.035430185,0.015882496,-1.0,0.0,0.0,106.34164,0.093587056,-0.42906383
1588602335091,-0.05626374,-0.025139118,9.787497,-61.300003,-260.2,-108.799995,-0.07696902,0.03359759,0.014660766,-1.0,0.0,0.0,106.34164,0.094068676,-0.4286117
1588602335101,-0.076614454,0.009576807,9.800665,-61.300003,-260.2,-108.799995,-0.07574729,0.035430185,0.013439035,-1.0,0.0,0.0,106.34164,0.094068676,-0.4286117
1588602335111,-0.06943185,0.017956512,9.801862,-61.300003,-260.2,-108.799995,-0.07391469,0.03726278,0.014660766,-1.0,0.0,0.0,106.34164,0.094068676,-0.4286117
1588602335123,-0.079008654,0.005985504,9.792285,-61.300003,-260.2,-108.799995,-0.07391469,0.03481932,0.012217305,-1.0,0.0,0.0,106.34164,0.094068676,-0.4286117
1588602335132,-0.077811554,-0.016759412,9.792285,-61.2,-260.3,-108.799995,-0.07574729,0.035430185,0.014660766,-1.0,0.0,0.0,106.34164,0.094068676,-0.4286117
1588602335144,-0.05746084,-0.02633622,9.7863,-61.2,-260.3,-108.799995,-0.07452556,0.03481932,0.014049901,-1.0,0.0,0.0,106.34164,0.094068676,-0.4286117
1588602335155,-0.06943185,-0.045489833,9.782708,-61.300003,-260.3,-108.799995,-0.077579886,0.035430185,0.014660766,-1.0,0.0,0.0,106.34164,0.094068676,-0.4286117
1588602335164,-0.05746084,-0.034715924,9.774328,-61.300003,-260.3,-108.799995,-0.076358154,0.03481932,0.016493361,-1.0,0.0,0.0,106.34164,0.094068676,-0.4286117
1588602335176,-0.055066638,-0.033518825,9.785102,-61.300003,-260.2,-108.799995,-0.07391469,0.03481932,0.014049901,-1.0,0.0,0.0,106.34163,0.0944228,-0.42814067
1588602335188,-0.047884032,-0.02633622,9.7863,-61.2,-260.2,-108.7,-0.07391469,0.03604105,0.014660766,-1.0,0.0,0.0,106.34162,0.09485436,-0.42744666
1588602335197,-0.05746084,-0.0035913025,9.783905,-61.2,-260.2,-108.7,-0.07269296,0.03604105,0.014660766,-1.0,0.0,0.0,106.34162,0.09507967,-0.4267227
1588602335208,-0.06464344,0.008379706,9.78989,-61.2,-260.2,-108.7,-0.076358154,0.03481932,0.015882496,-1.0,0.0,0.0,106.34161,0.09502094,-0.42606404
1588602335219,-0.06703765,0.0047884034,9.7958765,-61.2,-260.2,-108.7,-0.07513642,0.035430185,0.014660766,-1.0,0.0,0.0,106.34164,0.09476597,-0.4254543
1588602335231,-0.07182605,0.0047884034,9.78989,-61.300003,-260.2,-108.799995,-0.07452556,0.03481932,0.012217305,-1.0,0.0,0.0,106.34164,0.093824685,-0.4244861
1588602335239,-0.07182605,0.0047884034,9.78989,-61.300003,-260.2,-108.799995,-0.07574729,0.034208454,0.013439035,-1.0,0.0,0.0,106.34164,0.093824685,-0.4244861
1588602335252,-0.06703765,-0.027533319,9.783905,-61.300003,-260.2,-108.799995,-0.07574729,0.03726278,0.014049901,-1.0,0.0,0.0,106.34164,0.093824685,-0.4244861
1588602335262,-0.06344634,-0.04189853,9.787497,-61.300003,-260.2,-108.799995,-0.07574729,0.035430185,0.013439035,-1.0,0.0,0.0,106.34164,0.093824685,-0.4244861
1588602335275,-0.055066638,-0.023942016,9.785102,-61.300003,-260.2,-108.799995,-0.076358154,0.034208454,0.013439035,-1.0,0.0,0.0,106.34164,0.093824685,-0.4244861
1588602335291,-0.055066638,-0.023942016,9.785102,-61.300003,-260.2,-108.7,-0.07513642,0.03481932,0.015271631,-1.0,0.0,0.0,106.341644,0.09402588,-0.42385718
1588602335300,-0.06584055,-0.008379706,9.7958765,-61.300003,-260.2,-108.7,-0.07513642,0.03604105,0.014660766,-1.0,0.0,0.0,106.341644,0.09402588,-0.42385718
1588602335310,-0.075417355,-0.007182605,9.8042555,-61.300003,-260.2,-108.7,-0.07391469,0.03604105,0.013439035,-1.0,0.0,0.0,106.341644,0.09402588,-0.42385718
1588602335320,-0.073023155,-0.009576807,9.7958765,-61.300003,-260.2,-108.7,-0.07513642,0.03604105,0.013439035,-1.0,0.0,0.0,106.341644,0.09402588,-0.42385718
1588602335331,-0.075417355,-0.01436521,9.7863,-61.300003,-260.2,-108.7,-0.07513642,0.036651913,0.017104227,-1.0,0.0,0.0,106.341644,0.09402588,-0.42385718
1588602335341,-0.06344634,-0.027533319,9.788693,-61.300003,-260.2,-108.7,-0.07513642,0.035430185,0.012217305,-1.0,0.0,0.0,106.341644,0.09402588,-0.42385718
1588602335353,-0.06464344,-0.031124622,9.7803135,-61.2,-260.2,-108.7,-0.073303826,0.03481932,0.015882496,-1.0,0.0,0.0,106.341644,0.09402588,-0.42385718
1588602335364,-0.05626374,-0.031124622,9.788693,-61.2,-260.2,-108.7,-0.07574729,0.034208454,0.014660766,-1.0,0.0,0.0,106.341644,0.09402588,-0.42385718
1588602335374,-0.05746084,-0.037110128,9.78989,-61.2,-260.2,-108.6,-0.07452556,0.03604105,0.014049901,-1.0,0.0,0.0,106.34164,0.094480075,-0.42333063
1588602335387,-0.061052144,-0.027533319,9.788693,-61.2,-260.2,-108.6,-0.07574729,0.034208454,0.014660766,-1.0,0.0,0.0,106.34162,0.09498497,-0.4227648
1588602335398,-0.061052144,-0.011971008,9.785102,-61.300003,-260.2,-108.6,-0.07696902,0.036651913,0.01282817,-1.0,0.0,0.0,106.34539,0.09534445,-0.4222092
1588602335410,-0.06943185,-0.011971008,9.7958765,-61.2,-260.2,-108.6,-0.07574729,0.03604105,0.015271631,-1.0,0.0,0.0,106.34539,0.09534445,-0.4222092
1588602335421,-0.076614454,-0.016759412,9.800665,-61.2,-260.2,-108.6,-0.07452556,0.034208454,0.014660766,-1.0,0.0,0.0,106.349144,0.09534443,-0.42220917
1588602335431,-0.06943185,-0.01436521,9.793482,-61.2,-260.1,-108.6,-0.076358154,0.036651913,0.015271631,-1.0,0.0,0.0,106.349144,0.09534443,-0.42220917
1588602335441,-0.061052144,-0.027533319,9.7803135,-61.2,-260.1,-108.6,-0.076358154,0.03359759,0.014049901,-1.0,0.0,0.0,106.349144,0.09534443,-0.42220917
1588602335451,-0.05267244,-0.025139118,9.78989,-61.2,-260.1,-108.6,-0.07513642,0.03481932,0.014049901,-1.0,0.0,0.0,106.349144,0.09534443,-0.42220917
1588602335464,-0.05746084,-0.023942016,9.7958765,-61.2,-260.1,-108.6,-0.07452556,0.03604105,0.015882496,-1.0,0.0,0.0,106.349144,0.09534443,-0.42220917
1588602335474,-0.061052144,-0.023942016,9.791088,-61.2,-260.1,-108.6,-0.07696902,0.034208454,0.014660766,-1.0,0.0,0.0,106.349144,0.09565415,-0.42163306
1588602335484,-0.06823475,-0.022744916,9.787497,-61.2,-260.1,-108.6,-0.07513642,0.03481932,0.015882496,-1.0,0.0,0.0,106.349144,0.09565415,-0.42163306
1588602335496,-0.06464344,-0.023942016,9.776723,-61.100002,-260.1,-108.7,-0.076358154,0.036651913,0.015271631,-1.0,0.0,0.0,106.349144,0.09565415,-0.42163306
1588602335508,-0.06464344,-0.022744916,9.785102,-61.100002,-260.1,-108.7,-0.07513642,0.036651913,0.015271631,-1.0,0.0,0.0,106.349144,0.09565415,-0.42163306
1588602335518,-0.06344634,-0.020350715,9.7803135,-61.100002,-260.1,-108.7,-0.07513642,0.036651913,0.018325957,-1.0,0.0,0.0,106.349144,0.09565415,-0.42163306
1588602335528,-0.07062895,-0.02873042,9.794679,-61.100002,-260.1,-108.799995,-0.07574729,0.03604105,0.014049901,-1.0,0.0,0.0,106.349144,0.09565415,-0.42163306
1588602335541,-0.05865794,-0.020350715,9.783905,-61.100002,-260.1,-108.799995,-0.07513642,0.03481932,0.015882496,-1.0,0.0,0.0,106.349144,0.096473165,-0.42035434
1588602335552,-0.074220255,-0.016759412,9.78989,-61.100002,-260.1,-108.799995,-0.076358154,0.03481932,0.014049901,-1.0,0.0,0.0,106.349144,0.09678907,-0.4198574
1588602335562,-0.074220255,-0.021547815,9.797073,-61.100002,-260.1,-108.799995,-0.07513642,0.036651913,0.014660766,-1.0,0.0,0.0,106.34915,0.0967891,-0.4198575
1588602335574,-0.07182605,-0.008379706,9.7958765,-61.100002,-260.1,-108.799995,-0.07391469,0.03848451,0.01282817,-1.0,0.0,0.0,106.35292,0.0967891,-0.4198575
1588602335585,-0.059855044,-0.0047884034,9.7863,-61.100002,-260.1,-108.799995,-0.076358154,0.03726278,0.01282817,-1.0,0.0,0.0,106.35292,0.0967891,-0.4198575
1588602335596,-0.05267244,-0.025139118,9.788693,-61.100002,-260.1,-108.899994,-0.07696902,0.036651913,0.014049901,-1.0,0.0,0.0,106.35292,0.0967891,-0.4198575
1588602335606,-0.053869538,-0.025139118,9.78989,-61.100002,-260.1,-108.899994,-0.07513642,0.03481932,0.015271631,-1.0,0.0,0.0,106.35291,0.096981145,-0.41922525
1588602335618,-0.047884032,-0.027533319,9.79827,-61.100002,-260.1,-108.899994,-0.076358154,0.035430185,0.015882496,-1.0,0.0,0.0,106.352905,0.09725312,-0.41845357
1588602335631,-0.06584055,-0.027533319,9.779117,-61.100002,-260.1,-108.899994,-0.07574729,0.036651913,0.014660766,-1.0,0.0,0.0,106.35668,0.09797799,-0.41712338
1588602335641,-0.06584055,-0.027533319,9.779117,-61.100002,-260.1,-108.899994,-0.076358154,0.03481932,0.014049901,-1.0,0.0,0.0,106.35668,0.09797799,-0.41712338
1588602335653,-0.062249243,-0.01316811,9.7863,-61.100002,-260.1,-108.899994,-0.07696902,0.036651913,0.014049901,-1.0,0.0,0.0,106.35666,0.0982589,-0.4165165
1588602335663,-0.055066638,-0.023942016,9.7958765,-61.100002,-260.1,-108.899994,-0.077579886,0.036651913,0.013439035,-1.0,0.0,0.0,106.360435,0.09856364,-0.41585118
1588602335673,-0.05626374,-0.010773907,9.799467,-61.100002,-260.1,-108.899994,-0.076358154,0.036651913,0.014049901,-1.0,0.0,0.0,106.3642,0.098754056,-0.41514474
1588602335685,-0.076614454,-0.0023942017,9.787497,-61.100002,-260.1,-108.899994,-0.07574729,0.036651913,0.013439035,-1.0,0.0,0.0,106.3642,0.098754056,-0.41514474
1588602335695,-0.05865794,-0.025139118,9.787497,-61.100002,-260.1,-108.799995,-0.07513642,0.03481932,0.014049901,-1.0,0.0,0.0,106.3642,0.098754056,-0.41514474
1588602335708,-0.076614454,-0.025139118,9.781511,-61.100002,-260.1,-108.899994,-0.076358154,0.035430185,0.013439035,-1.0,0.0,0.0,106.3642,0.098754056,-0.41514474
1588602335720,-0.062249243,-0.025139118,9.78989,-61.100002,-260.1,-108.899994,-0.07574729,0.03604105,0.014660766,-1.0,0.0,0.0,106.3642,0.098754056,-0.41514474
1588602335731,-0.055066638,-0.027533319,9.793482,-61.0,-260.0,-108.899994,-0.07452556,0.03359759,0.014049901,-1.0,0.0,0.0,106.3695,0.09941518,-0.41388118
1588602335741,-0.06823475,-0.019153614,9.793482,-61.0,-260.0,-108.899994,-0.077579886,0.03604105,0.013439035,-1.0,0.0,0.0,106.3695,0.09941518,-0.41388118
1588602335752,-0.06823475,-0.019153614,9.793482,-61.0,-260.0,-108.899994,-0.07574729,0.036651913,0.015271631,-1.0,0.0,0.0,106.36949,0.09975309,-0.41327658
1588602335762,-0.07062895,-0.020350715,9.788693,-61.0,-260.0,-108.899994,-0.07513642,0.03481932,0.016493361,-1.0,0.0,0.0,106.36949,0.09975309,-0.41327658
1588602335772,-0.06344634,-0.009576807,9.799467,-61.0,-260.0,-109.0,-0.07452556,0.03726278,0.014660766,-1.0,0.0,0.0,106.36949,0.09975309,-0.41327658
1588602335784,-0.055066638,-0.02633622,9.7863,-61.0,-260.0,-109.0,-0.077579886,0.03726278,0.014049901,-1.0,0.0,0.0,106.36949,0.09975309,-0.41327658
1588602335793,-0.059855044,-0.025139118,9.7863,-61.0,-260.0,-109.0,-0.07574729,0.036651913,0.012217305,-1.0,0.0,0.0,106.36949,0.09975309,-0.41327658
1588602335805,-0.059855044,-0.025139118,9.783905,-61.0,-260.0,-109.0,-0.07574729,0.036651913,0.014660766,-1.0,0.0,0.0,106.36952,0.10008458,-0.4126688
1588602335816,-0.051475335,-0.02873042,9.788693,-61.0,-260.0,-109.0,-0.07513642,0.03359759,0.014660766,-1.0,0.0,0.0,106.37483,0.1004763,-0.41197538
1588602335829,-0.050278235,-0.023942016,9.788693,-61.0,-260.0,-109.0,-0.07574729,0.034208454,0.017104227,-1.0,0.0,0.0,106.37483,0.10087567,-0.41117978
1588602335841,-0.059855044,-0.023942016,9.788693,-61.0,-260.0,-109.0,-0.07574729,0.034208454,0.017104227,-1.0,0.0,0.0,106.378586,0.101274416,-0.41041747
1588602335853,-0.06344634,-0.008379706,9.792285,-61.0,-260.0,-109.0,-0.07513642,0.03726278,0.017715093,-1.0,0.0,0.0,106.38233,0.101898514,-0.40897176
1588602335863,-0.06823475,-0.022744916,9.794679,-61.0,-260.0,-109.0,-0.07513642,0.03359759,0.015271631,-1.0,0.0,0.0,106.38233,0.101898514,-0.40897176
1588602335872,-0.07062895,-0.008379706,9.803059,-60.9,-260.0,-109.0,-0.073303826,0.035430185,0.015271631,-1.0,0.0,0.0,106.38233,0.101898514,-0.40897176
1588602335882,-0.06823475,-0.025139118,9.794679,-60.9,-260.0,-109.0,-0.07696902,0.035430185,0.01282817,-1.0,0.0,0.0,106.38233,0.101898514,-0.40897176
1588602335891,-0.06344634,-0.010773907,9.781511,-60.9,-260.0,-109.1,-0.076358154,0.036651913,0.013439035,-1.0,0.0,0.0,106.38233,0.101898514,-0.40897176
1588602335904,-0.06823475,-0.021547815,9.7863,-60.9,-260.0,-109.1,-0.07819075,0.03604105,0.014049901,-1.0,0.0,0.0,106.38233,0.101898514,-0.40897176
1588602335913,-0.062249243,-0.02633622,9.779117,-61.0,-260.0,-109.1,-0.07452556,0.036651913,0.015882496,-1.0,0.0,0.0,106.38233,0.101898514,-0.40897176
1588602335924,-0.06344634,-0.027533319,9.779117,-61.0,-260.0,-109.1,-0.07574729,0.03604105,0.014660766,-1.0,0.0,0.0,106.38233,0.101898514,-0.40897176
1588602335935,-0.05267244,-0.025139118,9.77792,-60.9,-260.0,-109.2,-0.07391469,0.03481932,0.014049901,-1.0,0.0,0.0,106.38233,0.101898514,-0.40897176
1588602335946,-0.05865794,-0.02633622,9.794679,-60.9,-260.0,-109.2,-0.07513642,0.03481932,0.014049901,-1.0,0.0,0.0,106.38233,0.102211565,-0.40847328
1588602335960,-0.06703765,-0.009576807,9.7958765,-60.9,-260.0,-109.1,-0.07696902,0.03604105,0.013439035,-1.0,0.0,0.0,106.38233,0.102211565,-0.40847328
1588602335971,-0.06943185,-0.0023942017,9.801862,-60.9,-260.0,-109.2,-0.077579886,0.03481932,0.014660766,-1.0,0.0,0.0,106.38233,0.102211565,-0.40847328
1588602335981,-0.06823475,-0.020350715,9.793482,-60.9,-260.0,-109.2,-0.07574729,0.03481932,0.01038471,-1.0,0.0,0.0,106.38233,0.102211565,-0.40847328
1588602335993,-0.06703765,-0.023942016,9.783905,-61.0,-260.0,-109.299995,-0.07574729,0.03481932,0.014049901,-1.0,0.0,0.0,106.38233,0.102211565,-0.40847328
1588602336003,-0.06584055,-0.027533319,9.783905,-61.0,-260.0,-109.299995,-0.07391469,0.03481932,0.014660766,-1.0,0.0,0.0,106.38233,0.102211565,-0.40847328
1588602336015,-0.07062895,-0.033518825,9.779117,-61.0,-260.0,-109.299995,-0.07452556,0.03604105,0.014049901,-1.0,0.0,0.0,106.38233,0.102211565,-0.40847328
1588602336027,-0.059855044,-0.027533319,9.7863,-61.0,-260.0,-109.299995,-0.077579886,0.03481932,0.01282817,-1.0,0.0,0.0,106.38233,0.102211565,-0.40847328
1588602336037,-0.05626374,-0.025139118,9.77792,-61.0,-260.0,-109.299995,-0.07452556,0.03481932,0.014660766,-1.0,0.0,0.0,106.38233,0.102211565,-0.40847328
1588602336049,-0.05865794,-0.023942016,9.785102,-61.0,-260.1,-109.2,-0.07452556,0.036651913,0.015882496,-1.0,0.0,0.0,106.38233,0.102211565,-0.40847328
1588602336060,-0.07062895,-0.010773907,9.79827,-61.0,-260.1,-109.2,-0.07391469,0.03604105,0.014049901,-1.0,0.0,0.0,106.38233,0.102211565,-0.40847328
1588602336071,-0.06823475,-0.010773907,9.799467,-61.100002,-260.1,-109.299995,-0.07513642,0.035430185,0.014049901,-1.0,0.0,0.0,106.38233,0.102211565,-0.40847328
1588602336081,-0.075417355,-0.0035913025,9.793482,-61.100002,-260.1,-109.299995,-0.07574729,0.034208454,0.014049901,-1.0,0.0,0.0,106.38233,0.102211565,-0.40847328
1588602336092,-0.074220255,-0.017956512,9.792285,-61.100002,-260.1,-109.299995,-0.07452556,0.03726278,0.01282817,-1.0,0.0,0.0,106.38233,0.102211565,-0.40847328
1588602336102,-0.06464344,-0.022744916,9.77792,-61.100002,-260.1,-109.299995,-0.07391469,0.03726278,0.013439035,-1.0,0.0,0.0,106.38233,0.102211565,-0.40847328
1588602336115,-0.06344634,-0.025139118,9.788693,-61.100002,-260.1,-109.299995,-0.07819075,0.034208454,0.015882496,-1.0,0.0,0.0,106.38233,0.102211565,-0.40847328
1588602336123,-0.05865794,-0.031124622,9.783905,-61.100002,-260.1,-109.299995,-0.07452556,0.034208454,0.013439035,-1.0,0.0,0.0,106.38233,0.102211565,-0.40847328
1588602336135,-0.06703765,-0.027533319,9.783905,-61.100002,-260.1,-109.399994,-0.07452556,0.03481932,0.015882496,-1.0,0.0,0.0,106.38233,0.102211565,-0.40847328
1588602336148,-0.05626374,-0.025139118,9.78989,-61.100002,-260.1,-109.399994,-0.077579886,0.03726278,0.014049901,-1.0,0.0,0.0,106.38233,0.102211565,-0.40847328
1588602336158,-0.05865794,-0.021547815,9.787497,-61.100002,-260.1,-109.399994,-0.07513642,0.034208454,0.014049901,-1.0,0.0,0.0,106.38233,0.102211565,-0.40847328
1588602336168,-0.073023155,-0.009576807,9.79827,-61.100002,-260.1,-109.399994,-0.07819075,0.03604105,0.015271631,-1.0,0.0,0.0,106.38233,0.102211565,-0.40847328
1588602336179,-0.06823475,-0.0011971008,9.805453,-61.100002,-260.1,-109.399994,-0.07696902,0.035430185,0.01282817,-1.0,0.0,0.0,106.38233,0.102211565,-0.40847328
1588602336191,-0.062249243,-0.023942016,9.794679,-61.100002,-260.1,-109.399994,-0.07452556,0.035430185,0.015271631,-1.0,0.0,0.0,106.38233,0.102211565,-0.40847328
1588602336200,-0.05746084,-0.025139118,9.7863,-61.100002,-260.1,-109.399994,-0.07574729,0.035430185,0.015271631,-1.0,0.0,0.0,106.38233,0.102211565,-0.40847328
1588602336212,-0.045489833,-0.023942016,9.77792,-61.100002,-260.1,-109.399994,-0.07696902,0.03481932,0.014049901,-1.0,0.0,0.0,106.38233,0.102211565,-0.40847328
1588602336221,-0.05865794,-0.03232172,9.788693,-61.100002,-260.1,-109.399994,-0.076358154,0.03604105,0.015271631,-1.0,0.0,0.0,106.38233,0.102211565,-0.40847328
1588602336235,-0.06703765,-0.025139118,9.7863,-61.2,-260.1,-109.399994,-0.076358154,0.03604105,0.015271631,-1.0,0.0,0.0,106.38233,0.102211565,-0.40847328
1588602336244,-0.047884032,-0.025139118,9.794679,-61.2,-260.1,-109.399994,-0.07391469,0.035430185,0.015271631,-1.0,0.0,0.0,106.38235,0.10253009,-0.40785682
1588602336256,-0.049081136,-0.022744916,9.794679,-61.2,-260.1,-109.5,-0.07391469,0.035430185,0.015271631,-1.0,0.0,0.0,106.38235,0.10283659,-0.4071612
1588602336265,-0.06584055,-0.010773907,9.78989,-61.2,-260.1,-109.5,-0.07391469,0.034208454,0.014049901,-1.0,0.0,0.0,106.38235,0.103030734,-0.40653
1588602336277,-0.06344634,-0.017956512,9.781511,-61.2,-260.1,-109.5,-0.07574729,0.03604105,0.015271631,-1.0,0.0,0.0,106.38235,0.103030734,-0.40653
1588602336289,-0.062249243,-0.025139118,9.7958765,-61.2,-260.1,-109.6,-0.07574729,0.03604105,0.013439035,-1.0,0.0,0.0,106.38235,0.103030734,-0.40653
1588602336300,-0.05746084,-0.023942016,9.788693,-61.2,-260.1,-109.6,-0.07513642,0.035430185,0.015271631,-1.0,0.0,0.0,106.382355,0.10328046,-0.40591964
1588602336315,-0.062249243,-0.029927522,9.791088,-61.300003,-260.2,-109.6,-0.07513642,0.03604105,0.016493361,-1.0,0.0,0.0,106.386116,0.10362095,-0.4054385
1588602336327,-0.05746084,-0.02873042,9.78989,-61.300003,-260.2,-109.6,-0.07391469,0.03726278,0.014049901,-1.0,0.0,0.0,106.38611,0.10403964,-0.40488476
1588602336337,-0.050278235,-0.025139118,9.788693,-61.300003,-260.2,-109.6,-0.07391469,0.03726278,0.014049901,-1.0,0.0,0.0,106.39143,0.10445312,-0.40424788
1588602336349,-0.06464344,-0.01436521,9.788693,-61.300003,-260.2,-109.6,-0.07452556,0.03359759,0.014660766,-1.0,0.0,0.0,106.3914,0.10476685,-0.4036668
1588602336359,-0.06823475,-0.020350715,9.791088,-61.300003,-260.2,-109.6,-0.07391469,0.03481932,0.014049901,-1.0,0.0,0.0,106.3914,0.10476685,-0.4036668
1588602336372,-0.06943185,-0.022744916,9.797073,-61.300003,-260.2,-109.5,-0.07574729,0.03604105,0.014049901,-1.0,0.0,0.0,106.39674,0.10476689,-0.4036669
1588602336381,-0.06703765,-0.023942016,9.788693,-61.300003,-260.2,-109.5,-0.07880162,0.03481932,0.013439035,-1.0,0.0,0.0,106.39672,0.10476687,-0.4036668
1588602336393,-0.06703765,-0.022744916,9.787497,-61.4,-260.2,-109.399994,-0.07513642,0.03481932,0.014660766,-1.0,0.0,0.0,106.40048,0.10476689,-0.4036668
1588602336403,-0.06703765,-0.022744916,9.787497,-61.4,-260.2,-109.399994,-0.07452556,0.037873644,0.015271631,-1.0,0.0,0.0,106.4005,0.10476692,-0.40366688
1588602336414,-0.05746084,-0.023942016,9.783905,-61.300003,-260.3,-109.399994,-0.076358154,0.032986723,0.013439035,-1.0,0.0,0.0,106.4005,0.10476692,-0.40366688
1588602336426,-0.05746084,-0.025139118,9.783905,-61.300003,-260.3,-109.399994,-0.07452556,0.034208454,0.015882496,-1.0,0.0,0.0,106.40048,0.10476689,-0.4036668
1588602336436,-0.06584055,-0.023942016,9.78989,-61.4,-260.3,-109.399994,-0.07513642,0.035430185,0.014049901,-1.0,0.0,0.0,106.40048,0.10476689,-0.4036668
1588602336448,-0.06943185,-0.010773907,9.783905,-61.4,-260.3,-109.399994,-0.07513642,0.03481932,0.014660766,-1.0,0.0,0.0,106.4005,0.10476692,-0.40366688
1588602336456,-0.06464344,-0.01316811,9.787497,-61.4,-260.3,-109.399994,-0.07513642,0.03481932,0.014660766,-1.0,0.0,0.0,106.4005,0.10476692,-0.40366688
1588602336468,-0.061052144,-0.021547815,9.78989,-61.4,-260.3,-109.299995,-0.07452556,0.036651913,0.014049901,-1.0,0.0,0.0,106.40048,0.10476689,-0.4036668
1588602336481,-0.06823475,-0.020350715,9.797073,-61.4,-260.3,-109.299995,-0.077579886,0.035430185,0.015271631,-1.0,0.0,0.0,106.4005,0.10476692,-0.40366688
1588602336491,-0.05865794,-0.023942016,9.7863,-61.4,-260.3,-109.299995,-0.07574729,0.037873644,0.017104227,-1.0,0.0,0.0,106.4005,0.10476692,-0.40366688
1588602336502,-0.05865794,-0.023942016,9.7863,-61.4,-260.3,-109.299995,-0.076358154,0.03726278,0.015271631,-1.0,0.0,0.0,106.4005,0.10476692,-0.40366688
1588602336514,-0.061052144,-0.025139118,9.787497,-61.4,-260.3,-109.299995,-0.077579886,0.034208454,0.014660766,-1.0,0.0,0.0,106.40048,0.10476689,-0.4036668
1588602336525,-0.05746084,-0.025139118,9.787497,-61.4,-260.3,-109.299995,-0.07452556,0.035430185,0.014049901,-1.0,0.0,0.0,106.4005,0.10476692,-0.40366688
1588602336535,-0.061052144,-0.020350715,9.785102,-61.4,-260.3,-109.299995,-0.07696902,0.035430185,0.014049901,-1.0,0.0,0.0,106.4005,0.10476692,-0.40366688
1588602336547,-0.059855044,-0.023942016,9.782708,-61.4,-260.3,-109.299995,-0.07452556,0.03359759,0.01282817,-1.0,0.0,0.0,106.40048,0.10476689,-0.4036668
1588602336559,-0.061052144,-0.010773907,9.785102,-61.4,-260.2,-109.299995,-0.076358154,0.035430185,0.014049901,-1.0,0.0,0.0,106.40048,0.10476689,-0.4036668
1588602336568,-0.061052144,-0.023942016,9.78989,-61.4,-260.2,-109.299995,-0.07574729,0.035430185,0.014660766,-1.0,0.0,0.0,106.4005,0.10476692,-0.40366688
1588602336582,-0.059855044,-0.023942016,9.792285,-61.4,-260.2,-109.299995,-0.07696902,0.03604105,0.015882496,-1.0,0.0,0.0,106.40048,0.10476689,-0.4036668
1588602336591,-0.075417355,-0.015562311,9.787497,-61.300003,-260.2,-109.2,-0.07574729,0.035430185,0.015882496,-1.0,0.0,0.0,106.40048,0.10476689,-0.4036668
1588602336601,-0.06943185,-0.020350715,9.788693,-61.300003,-260.2,-109.2,-0.076358154,0.032986723,0.014049901,-1.0,0.0,0.0,106.4005,0.10476692,-0.40366688
1588602336613,-0.059855044,-0.025139118,9.791088,-61.4,-260.2,-109.2,-0.07513642,0.03481932,0.015882496,-1.0,0.0,0.0,106.4005,0.10476692,-0.40366688
1588602336622,-0.055066638,-0.025139118,9.787497,-61.4,-260.2,-109.2,-0.07574729,0.03481932,0.014660766,-1.0,0.0,0.0,106.40048,0.10476689,-0.4036668
1588602336633,-0.051475335,-0.025139118,9.783905,-61.300003,-260.2,-109.2,-0.07574729,0.03604105,0.014049901,-1.0,0.0,0.0,106.40048,0.10504774,-0.4031494
1588602336645,-0.06344634,-0.023942016,9.793482,-61.300003,-260.2,-109.2,-0.07513642,0.034208454,0.014660766,-1.0,0.0,0.0,106.4005,0.10504777,-0.4031495
1588602336656,-0.075417355,-0.020350715,9.7958765,-61.4,-260.2,-109.2,-0.07574729,0.036651913,0.014660766,-1.0,0.0,0.0,106.40424,0.105047785,-0.4031494
1588602336668,-0.05626374,-0.025139118,9.785102,-61.4,-260.2,-109.2,-0.07513642,0.034208454,0.014049901,-1.0,0.0,0.0,106.40424,0.105047785,-0.4031494
1588602336676,-0.055066638,-0.025139118,9.794679,-61.4,-260.2,-109.1,-0.07574729,0.03481932,0.014660766,-1.0,0.0,0.0,106.40424,0.105047785,-0.4031494
1588602336689,-0.06464344,-0.020350715,9.783905,-61.4,-260.2,-109.1,-0.07574729,0.03481932,0.013439035,-1.0,0.0,0.0,106.40424,0.105047785,-0.4031494
1588602336699,-0.061052144,-0.025139118,9.787497,-61.4,-260.2,-109.1,-0.07513642,0.035430185,0.014049901,-1.0,0.0,0.0,106.40424,0.105047785,-0.4031494
1588602336712,-0.074220255,-0.009576807,9.791088,-61.4,-260.2,-109.1,-0.07696902,0.03604105,0.013439035,-1.0,0.0,0.0,106.40424,0.105047785,-0.4031494
1588602336722,-0.06344634,-0.022744916,9.793482,-61.4,-260.2,-109.1,-0.07513642,0.03604105,0.015271631,-1.0,0.0,0.0,106.40424,0.105047785,-0.4031494
1588602336732,-0.07062895,-0.020350715,9.794679,-61.4,-260.2,-109.0,-0.076358154,0.03726278,0.013439035,-1.0,0.0,0.0,106.40424,0.105047785,-0.4031494
1588602336744,-0.06823475,-0.021547815,9.787497,-61.4,-260.2,-109.0,-0.07696902,0.03481932,0.014049901,-1.0,0.0,0.0,106.40424,0.105047785,-0.4031494
1588602336754,-0.061052144,-0.019153614,9.792285,-61.4,-260.2,-109.0,-0.076358154,0.037873644,0.015882496,-1.0,0.0,0.0,106.40424,0.105047785,-0.4031494
1588602336766,-0.062249243,-0.021547815,9.787497,-61.4,-260.2,-109.0,-0.07574729,0.03481932,0.014049901,-1.0,0.0,0.0,106.40424,0.105047785,-0.4031494
1588602336777,-0.06943185,-0.023942016,9.77792,-61.4,-260.2,-108.899994,-0.076358154,0.034208454,0.01282817,-1.0,0.0,0.0,106.40424,0.105047785,-0.4031494
1588602336788,-0.06464344,-0.02633622,9.7803135,-61.4,-260.2,-109.0,-0.076358154,0.036651913,0.012217305,-1.0,0.0,0.0,106.40424,0.105047785,-0.4031494
1588602336798,-0.062249243,-0.033518825,9.785102,-61.4,-260.2,-109.0,-0.07452556,0.03604105,0.014049901,-1.0,0.0,0.0,106.40424,0.105047785,-0.4031494
1588602336810,-0.05626374,-0.021547815,9.791088,-61.4,-260.2,-108.899994,-0.07452556,0.034208454,0.014049901,-1.0,0.0,0.0,106.40424,0.105047785,-0.4031494
1588602336821,-0.06464344,-0.01436521,9.800665,-61.4,-260.2,-108.899994,-0.07452556,0.03481932,0.015271631,-1.0,0.0,0.0,106.40424,0.105047785,-0.4031494
1588602336832,-0.06464344,-0.01436521,9.800665,-61.5,-260.2,-108.899994,-0.077579886,0.03604105,0.015271631,-1.0,0.0,0.0,106.40424,0.105047785,-0.4031494
1588602336842,-0.07182605,-0.010773907,9.791088,-61.5,-260.2,-108.899994,-0.076358154,0.03481932,0.014660766,-1.0,0.0,0.0,106.40424,0.105047785,-0.4031494
1588602336854,-0.06464344,-0.022744916,9.78989,-61.4,-260.2,-108.899994,-0.076358154,0.034208454,0.012217305,-1.0,0.0,0.0,106.40424,0.105047785,-0.4031494
1588602336864,-0.059855044,-0.025139118,9.785102,-61.4,-260.2,-108.899994,-0.076358154,0.036651913,0.014660766,-1.0,0.0,0.0,106.40424,0.105047785,-0.4031494
1588602336876,-0.05267244,-0.025139118,9.78989,-61.4,-260.2,-108.899994,-0.076358154,0.03604105,0.013439035,-1.0,0.0,0.0,106.40424,0.105047785,-0.4031494
1588602336887,-0.049081136,-0.027533319,9.783905,-61.4,-260.2,-108.899994,-0.076358154,0.036651913,0.014660766,-1.0,0.0,0.0,106.40426,0.10537555,-0.40257722
1588602336897,-0.061052144,-0.027533319,9.781511,-61.4,-260.2,-108.899994,-0.07513642,0.035430185,0.01282817,-1.0,0.0,0.0,106.40427,0.105741985,-0.40202844
1588602336912,-0.055066638,-0.023942016,9.788693,-61.300003,-260.2,-108.799995,-0.07513642,0.035430185,0.014660766,-1.0,0.0,0.0,106.40958,0.10645243,-0.40087345
1588602336921,-0.055066638,-0.023942016,9.788693,-61.300003,-260.2,-108.799995,-0.07574729,0.035430185,0.015271631,-1.0,0.0,0.0,106.40958,0.10645243,-0.40087345
1588602336931,-0.07182605,-0.015562311,9.7863,-61.300003,-260.1,-108.799995,-0.076358154,0.034208454,0.013439035,-1.0,0.0,0.0,106.40958,0.10645243,-0.40087345
1588602336941,-0.05865794,-0.022744916,9.788693,-61.300003,-260.1,-108.799995,-0.07574729,0.035430185,0.015882496,-1.0,0.0,0.0,106.40958,0.10645243,-0.40087345
1588602336953,-0.059855044,-0.023942016,9.7863,-61.300003,-260.2,-108.899994,-0.07513642,0.03604105,0.013439035,-1.0,0.0,0.0,106.40958,0.10645243,-0.40087345
1588602336963,-0.06464344,-0.027533319,9.791088,-61.300003,-260.2,-108.899994,-0.07452556,0.035430185,0.014660766,-1.0,0.0,0.0,106.40958,0.10645243,-0.40087345
1588602336976,-0.06584055,-0.031124622,9.783905,-61.300003,-260.1,-108.899994,-0.07513642,0.037873644,0.014049901,-1.0,0.0,0.0,106.40958,0.10645243,-0.40087345
1588602336987,-0.05746084,-0.03232172,9.792285,-61.300003,-260.1,-108.899994,-0.07819075,0.03726278,0.015271631,-1.0,0.0,0.0,106.40956,0.10691201,-0.4005054
1588602336997,-0.05626374,-0.025139118,9.785102,-61.300003,-260.2,-108.899994,-0.07574729,0.035430185,0.015271631,-1.0,0.0,0.0,106.41333,0.107392274,-0.40005332
1588602337011,-0.059855044,-0.023942016,9.7863,-61.4,-260.2,-108.899994,-0.07574729,0.03604105,0.014049901,-1.0,0.0,0.0,106.41708,0.107392296,-0.40005332
1588602337019,-0.059855044,-0.023942016,9.7863,-61.4,-260.2,-108.899994,-0.07574729,0.03604105,0.014049901,-1.0,0.0,0.0,106.41708,0.107392296,-0.40005332
1588602337032,-0.06703765,-0.023942016,9.791088,-61.4,-260.2,-108.899994,-0.076358154,0.03481932,0.01282817,-1.0,0.0,0.0,106.41708,0.107392296,-0.40005332
1588602337042,-0.06344634,-0.023942016,9.791088,-61.4,-260.2,-108.899994,-0.07513642,0.036651913,0.014660766,-1.0,0.0,0.0,106.41708,0.107392296,-0.40005332
1588602337052,-0.05865794,-0.027533319,9.792285,-61.4,-260.2,-108.899994,-0.077579886,0.035430185,0.014049901,-1.0,0.0,0.0,106.41708,0.107392296,-0.40005332
1588602337064,-0.06823475,-0.017956512,9.792285,-61.4,-260.2,-108.899994,-0.077579886,0.03481932,0.015271631,-1.0,0.0,0.0,106.41708,0.107392296,-0.40005332
1588602337075,-0.06703765,-0.02633622,9.787497,-61.4,-260.3,-108.899994,-0.073303826,0.036651913,0.015882496,-1.0,0.0,0.0,106.41708,0.107392296,-0.40005332
1588602337085,-0.047884032,-0.022744916,9.787497,-61.4,-260.3,-108.899994,-0.077579886,0.034208454,0.014049901,-1.0,0.0,0.0,106.41708,0.107392296,-0.40005332
1588602337097,-0.05865794,-0.021547815,9.787497,-61.4,-260.2,-108.899994,-0.076358154,0.03481932,0.015882496,-1.0,0.0,0.0,106.41708,0.107392296,-0.40005332
1588602337108,-0.062249243,-0.021547815,9.78989,-61.4,-260.3,-108.799995,-0.07452556,0.03604105,0.014049901,-1.0,0.0,0.0,106.41708,0.107392296,-0.40005332
1588602337118,-0.059855044,-0.023942016,9.787497,-61.4,-260.3,-108.799995,-0.07696902,0.036651913,0.015271631,-1.0,0.0,0.0,106.41708,0.107392296,-0.40005332
1588602337132,-0.06584055,-0.023942016,9.788693,-61.4,-260.3,-108.799995,-0.07574729,0.034208454,0.014049901,-1.0,0.0,0.0,106.41708,0.107392296,-0.40005332
1588602337142,-0.06464344,-0.023942016,9.7863,-61.4,-260.3,-108.799995,-0.07696902,0.032986723,0.014660766,-1.0,0.0,0.0,106.41708,0.107392296,-0.40005332
1588602337152,-0.05865794,-0.022744916,9.782708,-61.5,-260.3,-108.799995,-0.07452556,0.03359759,0.015271631,-1.0,0.0,0.0,106.41708,0.107392296,-0.40005332
1588602337161,-0.06464344,-0.027533319,9.794679,-61.5,-260.3,-108.799995,-0.076358154,0.037873644,0.015882496,-1.0,0.0,0.0,106.41708,0.107392296,-0.40005332
1588602337173,-0.06584055,-0.023942016,9.792285,-61.5,-260.3,-108.799995,-0.07513642,0.03604105,0.014660766,-1.0,0.0,0.0,106.41708,0.107392296,-0.40005332
1588602337184,-0.059855044,-0.019153614,9.785102,-61.5,-260.3,-108.799995,-0.07696902,0.035430185,0.013439035,-1.0,0.0,0.0,106.41708,0.107392296,-0.40005332
1588602337196,-0.059855044,-0.02873042,9.782708,-61.5,-260.3,-108.799995,-0.07696902,0.035430185,0.014660766,-1.0,0.0,0.0,106.41708,0.107392296,-0.40005332
1588602337205,-0.06344634,-0.017956512,9.791088,-61.5,-260.3,-108.799995,-0.07574729,0.035430185,0.01282817,-1.0,0.0,0.0,106.41708,0.107392296,-0.40005332
1588602337217,-0.07182605,-0.01436521,9.792285,-61.4,-260.2,-108.899994,-0.076358154,0.03604105,0.015271631,-1.0,0.0,0.0,106.41708,0.107392296,-0.40005332
1588602337224,-0.06584055,-0.016759412,9.7958765,-61.4,-260.2,-108.899994,-0.07574729,0.035430185,0.016493361,-1.0,0.0,0.0,106.41708,0.107392296,-0.40005332
1588602337235,-0.06943185,-0.015562311,9.793482,-61.4,-260.3,-108.799995,-0.07574729,0.035430185,0.014660766,-1.0,0.0,0.0,106.41708,0.107392296,-0.40005332
1588602337246,-0.05746084,-0.021547815,9.792285,-61.4,-260.3,-108.799995,-0.07696902,0.03726278,0.01160644,-1.0,0.0,0.0,106.41708,0.107392296,-0.40005332
1588602337257,-0.05746084,-0.022744916,9.793482,-61.4,-260.3,-108.899994,-0.07574729,0.036651913,0.014660766,-1.0,0.0,0.0,106.41708,0.107392296,-0.40005332
1588602337268,-0.06464344,-0.022744916,9.782708,-61.4,-260.3,-108.899994,-0.07391469,0.03481932,0.014049901,-1.0,0.0,0.0,106.41708,0.107392296,-0.40005332
1588602337280,-0.061052144,-0.023942016,9.78989,-61.4,-260.3,-108.899994,-0.077579886,0.03604105,0.015271631,-1.0,0.0,0.0,106.41708,0.107392296,-0.40005332
1588602337291,-0.05626374,-0.027533319,9.782708,-61.4,-260.3,-109.0,-0.07574729,0.03481932,0.014660766,-1.0,0.0,0.0,106.41708,0.107392296,-0.40005332
1588602337303,-0.06584055,-0.023942016,9.785102,-61.4,-260.3,-109.0,-0.07513642,0.03604105,0.016493361,-1.0,0.0,0.0,106.41708,0.107392296,-0.40005332
1588602337314,-0.05626374,-0.027533319,9.7958765,-61.4,-260.3,-109.0,-0.07391469,0.03481932,0.014049901,-1.0,0.0,0.0,106.41708,0.107392296,-0.40005332
1588602337325,-0.05746084,-0.025139118,9.787497,-61.4,-260.3,-109.0,-0.07513642,0.03726278,0.013439035,-1.0,0.0,0.0,106.41708,0.107392296,-0.40005332
1588602337334,-0.07062895,-0.01436521,9.787497,-61.4,-260.3,-109.0,-0.07574729,0.035430185,0.014660766,-1.0,0.0,0.0,106.41708,0.107392296,-0.40005332
1588602337345,-0.06943185,-0.01316811,9.792285,-61.4,-260.3,-109.0,-0.07696902,0.03481932,0.014660766,-1.0,0.0,0.0,106.41708,0.107392296,-0.40005332
1588602337356,-0.07062895,-0.021547815,9.792285,-61.4,-260.2,-109.0,-0.07574729,0.03359759,0.013439035,-1.0,0.0,0.0,106.41708,0.107392296,-0.40005332
1588602337367,-0.061052144,-0.023942016,9.794679,-61.4,-260.2,-109.0,-0.07574729,0.03604105,0.012217305,-1.0,0.0,0.0,106.41708,0.107392296,-0.40005332
1588602337379,-0.05865794,-0.023942016,9.78989,-61.4,-260.2,-109.0,-0.07696902,0.03604105,0.015271631,-1.0,0.0,0.0,106.41708,0.107392296,-0.40005332
1588602337390,-0.06584055,-0.022744916,9.78989,-61.4,-260.2,-109.0,-0.076358154,0.03359759,0.014660766,-1.0,0.0,0.0,106.41708,0.107392296,-0.40005332
1588602337401,-0.059855044,-0.022744916,9.793482,-61.4,-260.2,-109.0,-0.076358154,0.036651913,0.014049901,-1.0,0.0,0.0,106.41708,0.107392296,-0.40005332
1588602337412,-0.06584055,-0.019153614,9.794679,-61.4,-260.2,-109.0,-0.07513642,0.03604105,0.015271631,-1.0,0.0,0.0,106.41708,0.107392296,-0.40005332
1588602337423,-0.061052144,-0.025139118,9.787497,-61.4,-260.2,-109.0,-0.07574729,0.036651913,0.01282817,-1.0,0.0,0.0,106.41708,0.107392296,-0.40005332
1588602337434,-0.05746084,-0.02633622,9.7863,-61.4,-260.2,-109.0,-0.07574729,0.035430185,0.015271631,-1.0,0.0,0.0,106.41708,0.107392296,-0.40005332
1588602337444,-0.053869538,-0.025139118,9.785102,-61.4,-260.2,-109.0,-0.076358154,0.03726278,0.013439035,-1.0,0.0,0.0,106.41708,0.107392296,-0.40005332
1588602337455,-0.055066638,-0.01436521,9.782708,-61.4,-260.2,-109.0,-0.07513642,0.03604105,0.015882496,-1.0,0.0,0.0,106.41708,0.107392296,-0.40005332
1588602337466,-0.061052144,-0.022744916,9.785102,-61.4,-260.2,-109.0,-0.07513642,0.035430185,0.014049901,-1.0,0.0,0.0,106.41708,0.107392296,-0.40005332
1588602337479,-0.059855044,-0.020350715,9.7863,-61.4,-260.2,-109.1,-0.07391469,0.03481932,0.016493361,-1.0,0.0,0.0,106.41708,0.107392296,-0.40005332
1588602337488,-0.06823475,-0.020350715,9.787497,-61.4,-260.2,-109.1,-0.07574729,0.036651913,0.014660766,-1.0,0.0,0.0,106.41708,0.107392296,-0.40005332
1588602337498,-0.07182605,-0.0023942017,9.794679,-61.4,-260.2,-109.1,-0.073303826,0.036651913,0.014049901,-1.0,0.0,0.0,106.41708,0.107392296,-0.40005332
1588602337510,-0.06823475,-0.0011971008,9.79827,-61.5,-260.2,-109.1,-0.076358154,0.035430185,0.016493361,-1.0,0.0,0.0,106.41708,0.107392296,-0.40005332
1588602337522,-0.062249243,-0.021547815,9.792285,-61.5,-260.2,-109.1,-0.076358154,0.035430185,0.014049901,-1.0,0.0,0.0,106.41708,0.107392296,-0.40005332
1588602337532,-0.06943185,-0.011971008,9.793482,-61.5,-260.2,-109.1,-0.073303826,0.03604105,0.015882496,-1.0,0.0,0.0,106.41708,0.107392296,-0.40005332
1588602337543,-0.05865794,-0.022744916,9.7863,-61.5,-260.2,-109.1,-0.07819075,0.032986723,0.014660766,-1.0,0.0,0.0,106.41708,0.107392296,-0.40005332
1588602337553,-0.061052144,-0.016759412,9.779117,-61.5,-260.2,-109.1,-0.07696902,0.03604105,0.015882496,-1.0,0.0,0.0,106.41708,0.107392296,-0.40005332
1588602337564,-0.061052144,-0.02633622,9.7863,-61.5,-260.2,-109.1,-0.07574729,0.036651913,0.014660766,-1.0,0.0,0.0,106.41708,0.107392296,-0.40005332
1588602337576,-0.053869538,-0.03232172,9.7958765,-61.5,-260.2,-109.1,-0.07696902,0.03726278,0.013439035,-1.0,0.0,0.0,106.41708,0.107392296,-0.40005332
1588602337588,-0.06464344,-0.025139118,9.791088,-61.5,-260.2,-109.1,-0.076358154,0.03481932,0.015271631,-1.0,0.0,0.0,106.41708,0.107392296,-0.40005332
1588602337597,-0.062249243,-0.017956512,9.79827,-61.5,-260.2,-109.1,-0.076358154,0.03481932,0.015271631,-1.0,0.0,0.0,106.41708,0.107392296,-0.40005332
1588602337609,-0.05626374,-0.023942016,9.788693,-61.4,-260.2,-109.1,-0.07513642,0.03481932,0.01282817,-1.0,0.0,0.0,106.41708,0.107392296,-0.40005332
1588602337619,-0.061052144,0.0035913025,9.794679,-61.4,-260.2,-109.1,-0.07574729,0.035430185,0.012217305,-1.0,0.0,0.0,106.41708,0.107392296,-0.40005332
1588602337630,-0.07182605,-0.007182605,9.792285,-61.4,-260.1,-109.2,-0.07574729,0.036651913,0.014049901,-1.0,0.0,0.0,106.41708,0.107392296,-0.40005332
1588602337642,-0.06584055,-0.022744916,9.7863,-61.4,-260.1,-109.2,-0.07513642,0.03481932,0.014660766,-1.0,0.0,0.0,106.41708,0.107392296,-0.40005332
1588602337654,-0.059855044,-0.02873042,9.787497,-61.4,-260.1,-109.299995,-0.07696902,0.03604105,0.014049901,-1.0,0.0,0.0,106.41708,0.107392296,-0.40005332
1588602337662,-0.06344634,-0.031124622,9.791088,-61.4,-260.1,-109.299995,-0.07696902,0.03481932,0.015271631,-1.0,0.0,0.0,106.41708,0.107392296,-0.40005332
1588602337673,-0.05865794,-0.025139118,9.782708,-61.4,-260.1,-109.299995,-0.07513642,0.03604105,0.015271631,-1.0,0.0,0.0,106.41708,0.107392296,-0.40005332
1588602337684,-0.061052144,-0.027533319,9.78989,-61.4,-260.1,-109.299995,-0.07513642,0.03481932,0.014049901,-1.0,0.0,0.0,106.41708,0.107392296,-0.40005332
1588602337695,-0.059855044,-0.022744916,9.791088,-61.4,-260.1,-109.299995,-0.07574729,0.035430185,0.015882496,-1.0,0.0,0.0,106.41708,0.107392296,-0.40005332
1588602337706,-0.06703765,-0.01316811,9.793482,-61.4,-260.1,-109.299995,-0.07452556,0.03481932,0.014049901,-1.0,0.0,0.0,106.41708,0.107392296,-0.40005332
1588602337718,-0.062249243,-0.01316811,9.78989,-61.4,-260.1,-109.299995,-0.07513642,0.03359759,0.014049901,-1.0,0.0,0.0,106.41708,0.107392296,-0.40005332
1588602337729,-0.07062895,0.0035913025,9.791088,-61.4,-260.1,-109.399994,-0.07574729,0.036651913,0.014660766,-1.0,0.0,0.0,106.41708,0.107392296,-0.40005332
1588602337741,-0.059855044,-0.023942016,9.793482,-61.4,-260.1,-109.399994,-0.07696902,0.034208454,0.014049901,-1.0,0.0,0.0,106.41708,0.107392296,-0.40005332
1588602337750,-0.061052144,-0.020350715,9.785102,-61.4,-260.1,-109.399994,-0.07696902,0.036651913,0.014660766,-1.0,0.0,0.0,106.41708,0.107392296,-0.40005332
1588602337762,-0.06703765,-0.03232172,9.781511,-61.4,-260.1,-109.399994,-0.07696902,0.03604105,0.015271631,-1.0,0.0,0.0,106.41708,0.107392296,-0.40005332
1588602337770,-0.06703765,-0.03232172,9.781511,-61.4,-260.1,-109.399994,-0.07452556,0.03604105,0.015271631,-1.0,0.0,0.0,106.41708,0.107392296,-0.40005332
1588602337781,-0.062249243,-0.033518825,9.7719345,-61.4,-260.1,-109.399994,-0.07696902,0.032986723,0.016493361,-1.0,0.0,0.0,106.41708,0.107392296,-0.40005332
1588602337792,-0.055066638,-0.029927522,9.783905,-61.4,-260.1,-109.399994,-0.07452556,0.03604105,0.014660766,-1.0,0.0,0.0,106.41708,0.107392296,-0.40005332
1588602337808,-0.051475335,-0.025139118,9.791088,-61.4,-260.1,-109.399994,-0.07452556,0.035430185,0.015271631,-1.0,0.0,0.0,106.41708,0.1077768,-0.3995173
1588602337817,-0.06584055,0.0035913025,9.8042555,-61.4,-260.1,-109.399994,-0.07819075,0.03604105,0.016493361,-1.0,0.0,0.0,106.41708,0.1077768,-0.3995173
1588602337827,-0.06584055,0.0035913025,9.8042555,-61.4,-260.1,-109.399994,-0.07819075,0.03604105,0.016493361,-1.0,0.0,0.0,106.41708,0.1077768,-0.3995173
1588602337837,-0.06823475,0.0023942017,9.797073,-61.4,-260.1,-109.399994,-0.077579886,0.035430185,0.015882496,-1.0,0.0,0.0,106.41708,0.1077768,-0.3995173
1588602337848,-0.06823475,-0.005985504,9.800665,-61.4,-260.1,-109.399994,-0.07574729,0.035430185,0.01282817,-1.0,0.0,0.0,106.41708,0.1077768,-0.3995173
1588602337859,-0.06943185,-0.021547815,9.79827,-61.4,-260.1,-109.399994,-0.07513642,0.03604105,0.013439035,-1.0,0.0,0.0,106.41708,0.1077768,-0.3995173
1588602337870,-0.05865794,-0.027533319,9.783905,-61.4,-260.1,-109.399994,-0.07452556,0.03481932,0.01282817,-1.0,0.0,0.0,106.41708,0.1077768,-0.3995173
1588602337879,-0.05865794,-0.027533319,9.783905,-61.4,-260.1,-109.399994,-0.076358154,0.032986723,0.015271631,-1.0,0.0,0.0,106.41708,0.1077768,-0.3995173
1588602337892,-0.05865794,-0.029927522,9.7863,-61.4,-260.1,-109.399994,-0.07391469,0.035430185,0.015882496,-1.0,0.0,0.0,106.41708,0.1077768,-0.3995173
1588602337901,-0.06943185,-0.008379706,9.791088,-61.4,-260.1,-109.399994,-0.077579886,0.03604105,0.014660766,-1.0,0.0,0.0,106.41708,0.1077768,-0.3995173
1588602337912,-0.06584055,-0.01316811,9.800665,-61.4,-260.1,-109.399994,-0.07513642,0.036651913,0.014660766,-1.0,0.0,0.0,106.41708,0.1077768,-0.3995173
1588602337923,-0.06703765,-0.010773907,9.79827,-61.4,-260.1,-109.399994,-0.07391469,0.036651913,0.013439035,-1.0,0.0,0.0,106.41708,0.1077768,-0.3995173
1588602337934,-0.07062895,-0.0011971008,9.794679,-61.4,-260.1,-109.399994,-0.07574729,0.034208454,0.015271631,-1.0,0.0,0.0,106.41708,0.1077768,-0.3995173
1588602337945,-0.07062895,0.0023942017,9.78989,-61.4,-260.1,-109.399994,-0.07391469,0.036651913,0.015882496,-1.0,0.0,0.0,106.41708,0.1077768,-0.3995173
1588602337956,-0.06703765,-0.022744916,9.785102,-61.300003,-260.1,-109.399994,-0.07574729,0.03848451,0.015882496,-1.0,0.0,0.0,106.41708,0.1077768,-0.3995173
1588602337968,-0.06344634,-0.025139118,9.783905,-61.300003,-260.1,-109.399994,-0.07696902,0.03604105,0.014660766,-1.0,0.0,0.0,106.41708,0.1077768,-0.3995173
1588602337978,-0.062249243,-0.037110128,9.787497,-61.300003,-260.1,-109.399994,-0.07513642,0.036651913,0.015271631,-1.0,0.0,0.0,106.41708,0.1077768,-0.3995173
1588602337989,-0.06584055,-0.037110128,9.7863,-61.300003,-260.1,-109.399994,-0.07696902,0.037873644,0.01282817,-1.0,0.0,0.0,106.41708,0.1077768,-0.3995173
1588602338004,-0.051475335,-0.02633622,9.785102,-61.300003,-260.1,-109.399994,-0.07574729,0.03481932,0.015882496,-1.0,0.0,0.0,106.41708,0.1077768,-0.3995173
1588602338012,-0.053869538,-0.025139118,9.7863,-61.300003,-260.1,-109.399994,-0.077579886,0.03604105,0.014660766,-1.0,0.0,0.0,106.41708,0.1077768,-0.3995173
1588602338021,-0.05626374,-0.021547815,9.793482,-61.300003,-260.1,-109.399994,-0.076358154,0.03604105,0.015882496,-1.0,0.0,0.0,106.41708,0.1077768,-0.3995173
1588602338032,-0.06464344,-0.005985504,9.800665,-61.300003,-260.2,-109.399994,-0.07574729,0.036651913,0.014049901,-1.0,0.0,0.0,106.41708,0.1077768,-0.3995173
1588602338043,-0.06464344,-0.007182605,9.794679,-61.300003,-260.2,-109.399994,-0.07452556,0.034208454,0.016493361,-1.0,0.0,0.0,106.41708,0.1077768,-0.3995173
1588602338054,-0.06584055,-0.01436521,9.793482,-61.4,-260.2,-109.399994,-0.076358154,0.03604105,0.014049901,-1.0,0.0,0.0,106.41708,0.1077768,-0.3995173
1588602338065,-0.074220255,-0.017956512,9.787497,-61.4,-260.2,-109.399994,-0.07696902,0.03604105,0.013439035,-1.0,0.0,0.0,106.41708,0.1077768,-0.3995173
1588602338076,-0.06344634,-0.025139118,9.791088,-61.300003,-260.2,-109.299995,-0.07574729,0.03481932,0.015271631,-1.0,0.0,0.0,106.41708,0.1077768,-0.3995173
1588602338088,-0.062249243,-0.025139118,9.794679,-61.300003,-260.2,-109.299995,-0.076358154,0.03481932,0.01282817,-1.0,0.0,0.0,106.41708,0.1077768,-0.3995173
1588602338095,-0.059855044,-0.031124622,9.787497,-61.300003,-260.2,-109.299995,-0.076358154,0.03481932,0.01282817,-1.0,0.0,0.0,106.41708,0.1077768,-0.3995173
1588602338106,-0.06584055,-0.033518825,9.774328,-61.300003,-260.2,-109.299995,-0.07513642,0.035430185,0.016493361,-1.0,0.0,0.0,106.41708,0.1077768,-0.3995173
1588602338117,-0.06344634,-0.025139118,9.781511,-61.300003,-260.2,-109.2,-0.07696902,0.03481932,0.014049901,-1.0,0.0,0.0,106.41708,0.1077768,-0.3995173
1588602338129,-0.06943185,-0.016759412,9.797073,-61.300003,-260.2,-109.2,-0.07452556,0.03481932,0.014049901,-1.0,0.0,0.0,106.41708,0.1077768,-0.3995173
1588602338140,-0.061052144,-0.019153614,9.78989,-61.300003,-260.2,-109.2,-0.07513642,0.03481932,0.017104227,-1.0,0.0,0.0,106.41708,0.1077768,-0.3995173
1588602338151,-0.06943185,-0.017956512,9.794679,-61.300003,-260.2,-109.299995,-0.07452556,0.036651913,0.014049901,-1.0,0.0,0.0,106.41708,0.1077768,-0.3995173
1588602338161,-0.074220255,-0.019153614,9.792285,-61.300003,-260.2,-109.299995,-0.07391469,0.036651913,0.015271631,-1.0,0.0,0.0,106.41708,0.1077768,-0.3995173
1588602338172,-0.062249243,-0.02633622,9.793482,-61.300003,-260.2,-109.299995,-0.076358154,0.036651913,0.015271631,-1.0,0.0,0.0,106.41708,0.1077768,-0.3995173
1588602338183,-0.055066638,-0.02633622,9.7863,-61.300003,-260.2,-109.299995,-0.07696902,0.034208454,0.013439035,-1.0,0.0,0.0,106.41708,0.1077768,-0.3995173
1588602338194,-0.051475335,-0.025139118,9.787497,-61.4,-260.2,-109.299995,-0.07696902,0.03481932,0.010995574,-1.0,0.0,0.0,106.41708,0.1077768,-0.3995173
1588602338203,-0.049081136,-0.02633622,9.788693,-61.4,-260.2,-109.299995,-0.07574729,0.034208454,0.014049901,-1.0,0.0,0.0,106.41708,0.1077768,-0.3995173
1588602338214,-0.062249243,-0.015562311,9.787497,-61.4,-260.2,-109.299995,-0.07391469,0.034208454,0.012217305,-1.0,0.0,0.0,106.41708,0.1077768,-0.3995173
1588602338226,-0.05626374,-0.020350715,9.793482,-61.4,-260.2,-109.299995,-0.07452556,0.034208454,0.015271631,-1.0,0.0,0.0,106.41708,0.1077768,-0.3995173
1588602338238,-0.05626374,-0.025139118,9.793482,-61.4,-260.3,-109.299995,-0.076358154,0.032986723,0.014660766,-1.0,0.0,0.0,106.41708,0.1077768,-0.3995173
1588602338250,-0.059855044,-0.025139118,9.78989,-61.4,-260.3,-109.299995,-0.07819075,0.035430185,0.015271631,-1.0,0.0,0.0,106.41708,0.1077768,-0.3995173
1588602338261,-0.07062895,-0.01316811,9.7958765,-61.4,-260.3,-109.299995,-0.07574729,0.03481932,0.015882496,-1.0,0.0,0.0,106.41708,0.1077768,-0.3995173
1588602338271,-0.06344634,-0.025139118,9.78989,-61.4,-260.2,-109.399994,-0.07696902,0.03481932,0.015271631,-1.0,0.0,0.0,106.41708,0.1077768,-0.3995173
1588602338281,-0.05746084,-0.025139118,9.78989,-61.4,-260.2,-109.399994,-0.07391469,0.036651913,0.016493361,-1.0,0.0,0.0,106.41708,0.1077768,-0.3995173
1588602338296,-0.053869538,-0.023942016,9.788693,-61.4,-260.3,-109.399994,-0.07391469,0.034208454,0.015882496,-1.0,0.0,0.0,106.41708,0.1077768,-0.3995173
1588602338306,-0.059855044,-0.029927522,9.791088,-61.4,-260.3,-109.399994,-0.07696902,0.035430185,0.014660766,-1.0,0.0,0.0,106.41708,0.1077768,-0.3995173
1588602338318,-0.059855044,-0.025139118,9.793482,-61.4,-260.3,-109.5,-0.07513642,0.034208454,0.014049901,-1.0,0.0,0.0,106.41708,0.1077768,-0.3995173
1588602338328,-0.05865794,-0.023942016,9.792285,-61.4,-260.3,-109.5,-0.07574729,0.03604105,0.014049901,-1.0,0.0,0.0,106.41708,0.1077768,-0.3995173
1588602338341,-0.06344634,-0.021547815,9.787497,-61.4,-260.3,-109.5,-0.07696902,0.03481932,0.014049901,-1.0,0.0,0.0,106.41708,0.1077768,-0.3995173
1588602338353,-0.05746084,-0.031124622,9.788693,-61.5,-260.3,-109.399994,-0.073303826,0.03481932,0.014049901,-1.0,0.0,0.0,106.41708,0.108135104,-0.39904964
1588602338363,-0.06464344,-0.029927522,9.79827,-61.5,-260.3,-109.399994,-0.07513642,0.03359759,0.015271631,-1.0,0.0,0.0,106.42085,0.10854598,-0.39862147
1588602338374,-0.05865794,-0.02633622,9.803059,-61.4,-260.2,-109.399994,-0.07513642,0.035430185,0.01282817,-1.0,0.0,0.0,106.420845,0.108995095,-0.39813852
1588602338385,-0.061052144,-0.022744916,9.793482,-61.4,-260.2,-109.399994,-0.07513642,0.03848451,0.01282817,-1.0,0.0,0.0,106.420845,0.108995095,-0.39813852
1588602338395,-0.06464344,-0.023942016,9.7863,-61.4,-260.3,-109.5,-0.07513642,0.035430185,0.015271631,-1.0,0.0,0.0,106.420845,0.108995095,-0.39813852
1588602338405,-0.06943185,-0.01436521,9.793482,-61.4,-260.3,-109.5,-0.076358154,0.035430185,0.013439035,-1.0,0.0,0.0,106.420845,0.108995095,-0.39813852
1588602338416,-0.06943185,-0.0011971008,9.80665,-61.4,-260.3,-109.5,-0.07513642,0.03604105,0.015271631,-1.0,0.0,0.0,106.420845,0.108995095,-0.39813852
1588602338428,-0.06584055,-0.0035913025,9.80665,-61.4,-260.3,-109.5,-0.07696902,0.03726278,0.01282817,-1.0,0.0,0.0,106.420845,0.108995095,-0.39813852
1588602338441,-0.06823475,-0.007182605,9.791088,-61.4,-260.3,-109.5,-0.07452556,0.03604105,0.013439035,-1.0,0.0,0.0,106.420845,0.108995095,-0.39813852
1588602338449,-0.06823475,-0.007182605,9.791088,-61.4,-260.3,-109.5,-0.07513642,0.03726278,0.014049901,-1.0,0.0,0.0,106.420845,0.108995095,-0.39813852
1588602338458,-0.059855044,-0.025139118,9.7863,-61.4,-260.3,-109.5,-0.07696902,0.03481932,0.015882496,-1.0,0.0,0.0,106.420845,0.108995095,-0.39813852
1588602338470,-0.06344634,-0.02633622,9.787497,-61.5,-260.3,-109.5,-0.07696902,0.03481932,0.015882496,-1.0,0.0,0.0,106.420845,0.108995095,-0.39813852
1588602338481,-0.06943185,-0.027533319,9.7863,-61.5,-260.3,-109.5,-0.07696902,0.03604105,0.01282817,-1.0,0.0,0.0,106.420845,0.108995095,-0.39813852
1588602338493,-0.06584055,-0.025139118,9.78989,-61.5,-260.3,-109.5,-0.07696902,0.03481932,0.015882496,-1.0,0.0,0.0,106.420845,0.108995095,-0.39813852
1588602338503,-0.061052144,-0.023942016,9.791088,-61.5,-260.3,-109.5,-0.07452556,0.035430185,0.014660766,-1.0,0.0,0.0,106.420845,0.108995095,-0.39813852
1588602338514,-0.07182605,-0.019153614,9.794679,-61.5,-260.3,-109.5,-0.07452556,0.03481932,0.015271631,-1.0,0.0,0.0,106.420845,0.108995095,-0.39813852
1588602338526,-0.059855044,-0.015562311,9.788693,-61.5,-260.3,-109.5,-0.07452556,0.035430185,0.013439035,-1.0,0.0,0.0,106.420845,0.108995095,-0.39813852
1588602338534,-0.06464344,-0.021547815,9.792285,-61.5,-260.4,-109.5,-0.07819075,0.035430185,0.014660766,-1.0,0.0,0.0,106.420845,0.108995095,-0.39813852
1588602338545,-0.062249243,-0.017956512,9.791088,-61.5,-260.4,-109.5,-0.07269296,0.035430185,0.014049901,-1.0,0.0,0.0,106.420845,0.108995095,-0.39813852
1588602338556,-0.06703765,-0.019153614,9.788693,-61.5,-260.4,-109.5,-0.076358154,0.035430185,0.015271631,-1.0,0.0,0.0,106.420845,0.108995095,-0.39813852
1588602338569,-0.061052144,-0.025139118,9.7863,-61.5,-260.4,-109.5,-0.07452556,0.03604105,0.013439035,-1.0,0.0,0.0,106.420845,0.108995095,-0.39813852
1588602338580,-0.05865794,-0.02633622,9.781511,-61.5,-260.4,-109.5,-0.07452556,0.035430185,0.015882496,-1.0,0.0,0.0,106.420845,0.108995095,-0.39813852
1588602338593,-0.06943185,-0.022744916,9.79827,-61.5,-260.4,-109.5,-0.07574729,0.034208454,0.016493361,-1.0,0.0,0.0,106.420845,0.108995095,-0.39813852
1588602338603,-0.059855044,-0.022744916,9.79827,-61.5,-260.4,-109.5,-0.07513642,0.03604105,0.015882496,-1.0,0.0,0.0,106.420845,0.108995095,-0.39813852
1588602338612,-0.06464344,-0.01316811,9.803059,-61.600002,-260.4,-109.5,-0.07696902,0.035430185,0.01282817,-1.0,0.0,0.0,106.420845,0.108995095,-0.39813852
1588602338625,-0.07062895,-0.007182605,9.788693,-61.600002,-260.4,-109.5,-0.077579886,0.03481932,0.015882496,-1.0,0.0,0.0,106.420845,0.108995095,-0.39813852
1588602338636,-0.075417355,-0.016759412,9.792285,-61.5,-260.3,-109.5,-0.076358154,0.03604105,0.014049901,-1.0,0.0,0.0,106.420845,0.108995095,-0.39813852
1588602338646,-0.06703765,-0.021547815,9.797073,-61.5,-260.3,-109.5,-0.076358154,0.03481932,0.014049901,-1.0,0.0,0.0,106.420845,0.108995095,-0.39813852
1588602338658,-0.06823475,-0.022744916,9.788693,-61.5,-260.3,-109.5,-0.076358154,0.03604105,0.015271631,-1.0,0.0,0.0,106.420845,0.108995095,-0.39813852
1588602338667,-0.05746084,-0.025139118,9.785102,-61.600002,-260.3,-109.5,-0.076358154,0.036651913,0.015271631,-1.0,0.0,0.0,106.420845,0.108995095,-0.39813852
1588602338678,-0.061052144,-0.022744916,9.785102,-61.600002,-260.3,-109.5,-0.07452556,0.03481932,0.014660766,-1.0,0.0,0.0,106.420845,0.108995095,-0.39813852
1588602338689,-0.062249243,-0.023942016,9.788693,-61.600002,-260.3,-109.5,-0.077579886,0.035430185,0.014660766,-1.0,0.0,0.0,106.420845,0.108995095,-0.39813852
1588602338700,-0.06344634,-0.025139118,9.793482,-61.600002,-260.3,-109.5,-0.073303826,0.032986723,0.013439035,-1.0,0.0,0.0,106.420845,0.108995095,-0.39813852
1588602338711,-0.059855044,-0.025139118,9.791088,-61.600002,-260.3,-109.6,-0.07513642,0.03481932,0.015271631,-1.0,0.0,0.0,106.420845,0.108995095,-0.39813852
1588602338722,-0.06823475,-0.01436521,9.792285,-61.600002,-260.3,-109.6,-0.07574729,0.03604105,0.015271631,-1.0,0.0,0.0,106.420845,0.108995095,-0.39813852
1588602338735,-0.059855044,-0.022744916,9.799467,-61.7,-260.3,-109.7,-0.07819075,0.03604105,0.013439035,-1.0,0.0,0.0,106.420845,0.108995095,-0.39813852
1588602338745,-0.06344634,-0.020350715,9.78989,-61.7,-260.3,-109.7,-0.07513642,0.034208454,0.013439035,-1.0,0.0,0.0,106.420845,0.108995095,-0.39813852
1588602338759,-0.06823475,-0.022744916,9.800665,-61.7,-260.3,-109.7,-0.07574729,0.03359759,0.015271631,-1.0,0.0,0.0,106.420845,0.108995095,-0.39813852
1588602338768,-0.06943185,-0.025139118,9.788693,-61.600002,-260.3,-109.7,-0.076358154,0.03481932,0.014660766,-1.0,0.0,0.0,106.420845,0.108995095,-0.39813852
1588602338779,-0.06344634,-0.02633622,9.791088,-61.600002,-260.3,-109.7,-0.07452556,0.036651913,0.014660766,-1.0,0.0,0.0,106.420845,0.108995095,-0.39813852
1588602338790,-0.05746084,-0.023942016,9.791088,-61.600002,-260.3,-109.7,-0.07452556,0.036651913,0.013439035,-1.0,0.0,0.0,106.420845,0.108995095,-0.39813852
1588602338801,-0.053869538,-0.025139118,9.8042555,-61.600002,-260.3,-109.7,-0.07513642,0.03726278,0.014660766,-1.0,0.0,0.0,106.420845,0.108995095,-0.39813852
1588602338811,-0.06823475,-0.020350715,9.801862,-61.600002,-260.3,-109.7,-0.07574729,0.034208454,0.015882496,-1.0,0.0,0.0,106.420845,0.108995095,-0.39813852
1588602338823,-0.06703765,-0.022744916,9.78989,-61.600002,-260.3,-109.7,-0.07696902,0.03359759,0.014049901,-1.0,0.0,0.0,106.420845,0.108995095,-0.39813852
1588602338833,-0.059855044,-0.025139118,9.787497,-61.600002,-260.3,-109.7,-0.077579886,0.03604105,0.015271631,-1.0,0.0,0.0,106.420845,0.108995095,-0.39813852
1588602338846,-0.06344634,-0.02633622,9.79827,-61.600002,-260.3,-109.7,-0.07513642,0.03604105,0.014660766,-1.0,0.0,0.0,106.420845,0.108995095,-0.39813852
1588602338857,-0.059855044,-0.025139118,9.791088,-61.600002,-260.3,-109.6,-0.07452556,0.035430185,0.015271631,-1.0,0.0,0.0,106.420845,0.108995095,-0.39813852
1588602338868,-0.06344634,-0.017956512,9.797073,-61.600002,-260.3,-109.6,-0.07696902,0.034208454,0.017104227,-1.0,0.0,0.0,106.420845,0.108995095,-0.39813852
1588602338878,-0.05267244,-0.023942016,9.7863,-61.600002,-260.3,-109.6,-0.07574729,0.03359759,0.014660766,-1.0,0.0,0.0,106.420845,0.108995095,-0.39813852
1588602338891,-0.05865794,-0.015562311,9.781511,-61.5,-260.3,-109.6,-0.07513642,0.034208454,0.014049901,-1.0,0.0,0.0,106.420845,0.108995095,-0.39813852
1588602338901,-0.053869538,-0.025139118,9.793482,-61.5,-260.3,-109.6,-0.076358154,0.036651913,0.015271631,-1.0,0.0,0.0,106.420845,0.10924985,-0.39760768
1588602338911,-0.062249243,-0.023942016,9.78989,-61.5,-260.3,-109.6,-0.07574729,0.03481932,0.01282817,-1.0,0.0,0.0,106.420845,0.10924985,-0.39760768
1588602338924,-0.062249243,-0.025139118,9.791088,-61.5,-260.3,-109.6,-0.07574729,0.03604105,0.01282817,-1.0,0.0,0.0,106.420845,0.10924985,-0.39760768
1588602338935,-0.059855044,-0.025139118,9.788693,-61.5,-260.3,-109.6,-0.07513642,0.035430185,0.015271631,-1.0,0.0,0.0,106.420845,0.10924985,-0.39760768
1588602338945,-0.05865794,-0.025139118,9.797073,-61.5,-260.3,-109.6,-0.07452556,0.03604105,0.014660766,-1.0,0.0,0.0,106.420845,0.10924985,-0.39760768
1588602338955,-0.062249243,-0.022744916,9.787497,-61.5,-260.3,-109.6,-0.07574729,0.03726278,0.013439035,-1.0,0.0,0.0,106.420845,0.10924985,-0.39760768
1588602338969,-0.053869538,-0.025139118,9.791088,-61.5,-260.3,-109.6,-0.07513642,0.035430185,0.015882496,-1.0,0.0,0.0,106.420845,0.10959004,-0.39704278
1588602338973,-0.06703765,-0.020350715,9.787497,-61.5,-260.3,-109.6,-0.07513642,0.035430185,0.015882496,-1.0,0.0,0.0,106.420845,0.10959004,-0.39704278
1588602338988,-0.06943185,-0.016759412,9.793482,-61.5,-260.3,-109.6,-0.07452556,0.03604105,0.013439035,-1.0,0.0,0.0,106.424614,0.10959005,-0.39704284
1588602338999,-0.061052144,-0.023942016,9.78989,-61.5,-260.3,-109.6,-0.076358154,0.03604105,0.014049901,-1.0,0.0,0.0,106.424614,0.10959005,-0.39704284
1588602339009,-0.051475335,-0.025139118,9.797073,-61.5,-260.3,-109.6,-0.077579886,0.035430185,0.016493361,-1.0,0.0,0.0,106.429924,0.10959004,-0.39704284
1588602339022,-0.061052144,-0.023942016,9.793482,-61.5,-260.3,-109.6,-0.07574729,0.03359759,0.014049901,-1.0,0.0,0.0,106.429924,0.10959004,-0.39704284
1588602339032,-0.059855044,-0.025139118,9.792285,-61.5,-260.3,-109.6,-0.076358154,0.036651913,0.014049901,-1.0,0.0,0.0,106.429924,0.10959004,-0.39704284
1588602339043,-0.06344634,-0.025139118,9.793482,-61.5,-260.3,-109.6,-0.07513642,0.035430185,0.014049901,-1.0,0.0,0.0,106.429924,0.10959004,-0.39704284
1588602339053,-0.05865794,-0.025139118,9.788693,-61.5,-260.3,-109.6,-0.07452556,0.035430185,0.014049901,-1.0,0.0,0.0,106.429924,0.10959004,-0.39704284
1588602339065,-0.06823475,-0.019153614,9.7958765,-61.5,-260.3,-109.6,-0.07574729,0.037873644,0.014049901,-1.0,0.0,0.0,106.429924,0.10959004,-0.39704284
1588602339077,-0.07062895,-0.020350715,9.7863,-61.4,-260.3,-109.6,-0.07696902,0.034208454,0.014049901,-1.0,0.0,0.0,106.429924,0.10959004,-0.39704284
1588602339087,-0.06584055,-0.022744916,9.783905,-61.4,-260.3,-109.6,-0.07574729,0.035430185,0.01282817,-1.0,0.0,0.0,106.429924,0.10959004,-0.39704284
1588602339100,-0.06464344,-0.022744916,9.788693,-61.4,-260.3,-109.5,-0.07452556,0.035430185,0.014660766,-1.0,0.0,0.0,106.429924,0.10959004,-0.39704284
1588602339111,-0.079008654,-0.017956512,9.7863,-61.4,-260.3,-109.5,-0.07513642,0.035430185,0.015271631,-1.0,0.0,0.0,106.429924,0.10959004,-0.39704284
1588602339123,-0.062249243,-0.023942016,9.794679,-61.4,-260.3,-109.5,-0.07574729,0.035430185,0.01282817,-1.0,0.0,0.0,106.429924,0.10959004,-0.39704284
1588602339133,-0.059855044,-0.022744916,9.7958765,-61.4,-260.3,-109.5,-0.07574729,0.034208454,0.014049901,-1.0,0.0,0.0,106.429924,0.10959004,-0.39704284
1588602339143,-0.062249243,-0.017956512,9.77792,-61.4,-260.3,-109.5,-0.07819075,0.03726278,0.014049901,-1.0,0.0,0.0,106.429924,0.10959004,-0.39704284
1588602339154,-0.07062895,-0.005985504,9.781511,-61.4,-260.3,-109.5,-0.077579886,0.03726278,0.014660766,-1.0,0.0,0.0,106.429924,0.10959004,-0.39704284
1588602339164,-0.05267244,-0.027533319,9.788693,-61.4,-260.3,-109.5,-0.07574729,0.036651913,0.015271631,-1.0,0.0,0.0,106.429924,0.10959004,-0.39704284
1588602339174,-0.061052144,-0.02633622,9.781511,-61.4,-260.3,-109.5,-0.076358154,0.034208454,0.014660766,-1.0,0.0,0.0,106.429924,0.10959004,-0.39704284
1588602339187,-0.059855044,-0.025139118,9.792285,-61.4,-260.3,-109.5,-0.07513642,0.035430185,0.015271631,-1.0,0.0,0.0,106.429924,0.10959004,-0.39704284
1588602339194,-0.05746084,-0.031124622,9.799467,-61.4,-260.3,-109.6,-0.07513642,0.03604105,0.014049901,-1.0,0.0,0.0,106.429924,0.10959004,-0.39704284
1588602339206,-0.050278235,-0.02633622,9.794679,-61.4,-260.3,-109.6,-0.07452556,0.03359759,0.017104227,-1.0,0.0,0.0,106.429924,0.10959004,-0.39704284
1588602339220,-0.07182605,-0.0047884034,9.788693,-61.4,-260.3,-109.6,-0.07513642,0.03604105,0.015882496,-1.0,0.0,0.0,106.429924,0.10959004,-0.39704284
1588602339231,-0.05746084,-0.02633622,9.792285,-61.4,-260.3,-109.6,-0.07574729,0.035430185,0.014660766,-1.0,0.0,0.0,106.429924,0.10959004,-0.39704284
1588602339242,-0.07062895,-0.025139118,9.78989,-61.4,-260.3,-109.6,-0.07452556,0.036651913,0.014660766,-1.0,0.0,0.0,106.429924,0.10959004,-0.39704284
1588602339251,-0.06464344,-0.025139118,9.788693,-61.4,-260.3,-109.6,-0.076358154,0.03481932,0.013439035,-1.0,0.0,0.0,106.429924,0.10959004,-0.39704284
1588602339260,-0.055066638,-0.025139118,9.785102,-61.4,-260.3,-109.6,-0.077579886,0.036651913,0.016493361,-1.0,0.0,0.0,106.429924,0.10959004,-0.39704284
1588602339274,-0.05626374,-0.025139118,9.787497,-61.4,-260.3,-109.7,-0.07880162,0.035430185,0.014049901,-1.0,0.0,0.0,106.429924,0.10959004,-0.39704284
1588602339283,-0.053869538,-0.021547815,9.799467,-61.4,-260.3,-109.7,-0.07574729,0.03726278,0.016493361,-1.0,0.0,0.0,106.429924,0.10959004,-0.39704284
1588602339294,-0.06344634,-0.010773907,9.78989,-61.300003,-260.3,-109.6,-0.076358154,0.03481932,0.014660766,-1.0,0.0,0.0,106.429924,0.10959004,-0.39704284
1588602339304,-0.06943185,-0.007182605,9.801862,-61.300003,-260.3,-109.6,-0.07696902,0.03604105,0.015882496,-1.0,0.0,0.0,106.429924,0.10959004,-0.39704284
1588602339315,-0.06464344,-0.022744916,9.794679,-61.300003,-260.4,-109.6,-0.07574729,0.035430185,0.01282817,-1.0,0.0,0.0,106.429924,0.10959004,-0.39704284
1588602339326,-0.07062895,-0.008379706,9.787497,-61.300003,-260.4,-109.6,-0.07819075,0.035430185,0.015882496,-1.0,0.0,0.0,106.429924,0.10959004,-0.39704284
1588602339337,-0.07062895,-0.01316811,9.792285,-61.300003,-260.3,-109.6,-0.07574729,0.03604105,0.015271631,-1.0,0.0,0.0,106.429924,0.10959004,-0.39704284
1588602339348,-0.06344634,-0.023942016,9.800665,-61.2,-260.3,-109.6,-0.076358154,0.032986723,0.015882496,-1.0,0.0,0.0,106.429924,0.10959004,-0.39704284
1588602339359,-0.053869538,-0.031124622,9.79827,-61.2,-260.3,-109.6,-0.076358154,0.03481932,0.014660766,-1.0,0.0,0.0,106.429924,0.10959004,-0.39704284
1588602339370,-0.050278235,-0.027533319,9.785102,-61.300003,-260.3,-109.6,-0.07513642,0.035430185,0.015271631,-1.0,0.0,0.0,106.429924,0.10959004,-0.39704284
1588602339381,-0.06464344,-0.034715924,9.794679,-61.300003,-260.3,-109.6,-0.07513642,0.035430185,0.015882496,-1.0,0.0,0.0,106.429924,0.10959004,-0.39704284
1588602339392,-0.06703765,-0.015562311,9.788693,-61.300003,-260.3,-109.6,-0.077579886,0.036651913,0.015882496,-1.0,0.0,0.0,106.429924,0.10959004,-0.39704284
1588602339403,-0.062249243,-0.021547815,9.79827,-61.300003,-260.3,-109.6,-0.073303826,0.035430185,0.014660766,-1.0,0.0,0.0,106.429924,0.10959004,-0.39704284
1588602339413,-0.06584055,-0.020350715,9.807847,-61.300003,-260.3,-109.6,-0.07696902,0.035430185,0.014049901,-1.0,0.0,0.0,106.429924,0.10959004,-0.39704284
1588602339425,-0.06464344,-0.022744916,9.794679,-61.300003,-260.3,-109.6,-0.07696902,0.03726278,0.015882496,-1.0,0.0,0.0,106.429924,0.10959004,-0.39704284
1588602339437,-0.06344634,-0.021547815,9.794679,-61.300003,-260.3,-109.6,-0.07819075,0.03359759,0.013439035,-1.0,0.0,0.0,106.429924,0.10959004,-0.39704284
1588602339449,-0.05746084,-0.025139118,9.791088,-61.300003,-260.3,-109.7,-0.07452556,0.036651913,0.014049901,-1.0,0.0,0.0,106.429924,0.10959004,-0.39704284
1588602339459,-0.06703765,-0.02633622,9.792285,-61.300003,-260.3,-109.7,-0.07880162,0.03481932,0.014660766,-1.0,0.0,0.0,106.429924,0.10959004,-0.39704284
1588602339470,-0.061052144,-0.02633622,9.788693,-61.300003,-260.3,-109.6,-0.07452556,0.035430185,0.014660766,-1.0,0.0,0.0,106.429924,0.10959004,-0.39704284
1588602339481,-0.05865794,-0.027533319,9.793482,-61.300003,-260.3,-109.6,-0.07391469,0.036651913,0.014049901,-1.0,0.0,0.0,106.429924,0.10959004,-0.39704284
1588602339491,-0.055066638,-0.02633622,9.791088,-61.300003,-260.3,-109.6,-0.07391469,0.036651913,0.014660766,-1.0,0.0,0.0,106.429924,0.10999256,-0.3965203
1588602339501,-0.06823475,-0.020350715,9.800665,-61.300003,-260.3,-109.6,-0.07574729,0.03359759,0.014660766,-1.0,0.0,0.0,106.429924,0.10999256,-0.3965203
1588602339513,-0.062249243,-0.023942016,9.797073,-61.300003,-260.3,-109.6,-0.07513642,0.035430185,0.014660766,-1.0,0.0,0.0,106.429924,0.10999256,-0.3965203
1588602339522,-0.08140286,-0.01316811,9.787497,-61.300003,-260.3,-109.6,-0.07513642,0.034208454,0.014049901,-1.0,0.0,0.0,106.429924,0.10999256,-0.3965203
1588602339535,-0.074220255,-0.015562311,9.788693,-61.300003,-260.3,-109.6,-0.077579886,0.03481932,0.015882496,-1.0,0.0,0.0,106.429924,0.10999256,-0.3965203
1588602339545,-0.06703765,-0.025139118,9.793482,-61.300003,-260.3,-109.6,-0.07574729,0.03726278,0.01160644,-1.0,0.0,0.0,106.429924,0.10999256,-0.3965203
1588602339556,-0.059855044,-0.025139118,9.78989,-61.300003,-260.3,-109.6,-0.07819075,0.036651913,0.015271631,-1.0,0.0,0.0,106.429924,0.10999256,-0.3965203
1588602339567,-0.07062895,-0.023942016,9.793482,-61.300003,-260.3,-109.6,-0.076358154,0.03604105,0.013439035,-1.0,0.0,0.0,106.429924,0.10999256,-0.3965203
1588602339578,-0.059855044,-0.02633622,9.788693,-61.300003,-260.2,-109.5,-0.07513642,0.03848451,0.014660766,-1.0,0.0,0.0,106.429924,0.10999256,-0.3965203
1588602339588,-0.05626374,-0.025139118,9.794679,-61.4,-260.2,-109.6,-0.076358154,0.03481932,0.014660766,-1.0,0.0,0.0,106.429924,0.10999256,-0.3965203
1588602339601,-0.055066638,-0.02873042,9.793482,-61.4,-260.2,-109.6,-0.076358154,0.036651913,0.017104227,-1.0,0.0,0.0,106.429924,0.10999256,-0.3965203
1588602339612,-0.06703765,-0.019153614,9.788693,-61.4,-260.2,-109.6,-0.07574729,0.036651913,0.014660766,-1.0,0.0,0.0,106.429924,0.10999256,-0.3965203
1588602339622,-0.06823475,-0.021547815,9.7958765,-61.4,-260.2,-109.6,-0.077579886,0.03726278,0.014660766,-1.0,0.0,0.0,106.429924,0.10999256,-0.3965203
1588602339634,-0.05865794,-0.025139118,9.791088,-61.4,-260.2,-109.6,-0.07513642,0.03359759,0.014660766,-1.0,0.0,0.0,106.429924,0.10999256,-0.3965203
1588602339645,-0.061052144,-0.02633622,9.792285,-61.4,-260.2,-109.6,-0.076358154,0.036651913,0.014660766,-1.0,0.0,0.0,106.429924,0.10999256,-0.3965203
1588602339656,-0.06344634,-0.033518825,9.788693,-61.4,-260.2,-109.5,-0.07574729,0.036651913,0.014660766,-1.0,0.0,0.0,106.429924,0.10999256,-0.3965203
1588602339666,-0.06344634,-0.029927522,9.7863,-61.4,-260.2,-109.5,-0.07513642,0.036651913,0.014660766,-1.0,0.0,0.0,106.429924,0.10999256,-0.3965203
1588602339678,-0.051475335,-0.02633622,9.788693,-61.4,-260.2,-109.5,-0.07696902,0.036651913,0.014049901,-1.0,0.0,0.0,106.429924,0.11047359,-0.3960691
1588602339688,-0.05626374,-0.025139118,9.78989,-61.4,-260.2,-109.5,-0.07696902,0.03481932,0.01282817,-1.0,0.0,0.0,106.429924,0.11092662,-0.3955888
1588602339701,-0.06584055,-0.021547815,9.788693,-61.5,-260.2,-109.5,-0.07574729,0.03604105,0.014049901,-1.0,0.0,0.0,106.43369,0.110926665,-0.3955888
1588602339711,-0.06703765,-0.011971008,9.794679,-61.5,-260.2,-109.5,-0.07574729,0.035430185,0.015271631,-1.0,0.0,0.0,106.43369,0.110926665,-0.3955888
1588602339721,-0.06703765,-0.02873042,9.791088,-61.5,-260.2,-109.5,-0.07269296,0.035430185,0.013439035,-1.0,0.0,0.0,106.43369,0.110926665,-0.3955888
1588602339733,-0.062249243,-0.025139118,9.785102,-61.5,-260.2,-109.5,-0.07391469,0.03604105,0.014660766,-1.0,0.0,0.0,106.43369,0.110926665,-0.3955888
1588602339741,-0.06703765,-0.027533319,9.794679,-61.5,-260.2,-109.5,-0.07513642,0.03481932,0.013439035,-1.0,0.0,0.0,106.43369,0.110926665,-0.3955888
1588602339754,-0.05626374,-0.02633622,9.791088,-61.5,-260.2,-109.5,-0.07880162,0.035430185,0.01282817,-1.0,0.0,0.0,106.43369,0.110926665,-0.3955888
1588602339764,-0.061052144,-0.023942016,9.797073,-61.5,-260.2,-109.5,-0.07574729,0.03604105,0.014049901,-1.0,0.0,0.0,106.43369,0.110926665,-0.3955888
1588602339776,-0.059855044,-0.023942016,9.794679,-61.5,-260.2,-109.5,-0.07696902,0.037873644,0.014049901,-1.0,0.0,0.0,106.43369,0.110926665,-0.3955888
1588602339787,-0.05746084,-0.025139118,9.788693,-61.5,-260.2,-109.5,-0.077579886,0.035430185,0.012217305,-1.0,0.0,0.0,106.43369,0.110926665,-0.3955888
1588602339797,-0.07062895,-0.010773907,9.792285,-61.5,-260.2,-109.399994,-0.07452556,0.035430185,0.014049901,-1.0,0.0,0.0,106.43369,0.110926665,-0.3955888
1588602339809,-0.053869538,-0.023942016,9.791088,-61.5,-260.2,-109.399994,-0.07696902,0.03604105,0.013439035,-1.0,0.0,0.0,106.43369,0.110926665,-0.3955888
1588602339821,-0.06703765,-0.01436521,9.792285,-61.5,-260.2,-109.399994,-0.076358154,0.035430185,0.014049901,-1.0,0.0,0.0,106.43369,0.110926665,-0.3955888
1588602339832,-0.061052144,-0.025139118,9.791088,-61.5,-260.2,-109.399994,-0.07452556,0.03848451,0.014049901,-1.0,0.0,0.0,106.43369,0.110926665,-0.3955888
1588602339842,-0.06344634,-0.02873042,9.7863,-61.5,-260.2,-109.399994,-0.07513642,0.035430185,0.014049901,-1.0,0.0,0.0,106.43369,0.110926665,-0.3955888
1588602339854,-0.06823475,-0.023942016,9.78989,-61.5,-260.2,-109.399994,-0.07513642,0.035430185,0.015882496,-1.0,0.0,0.0,106.43369,0.110926665,-0.3955888
1588602339864,-0.05746084,-0.025139118,9.7958765,-61.5,-260.2,-109.399994,-0.07819075,0.035430185,0.014049901,-1.0,0.0,0.0,106.43369,0.110926665,-0.3955888
1588602339876,-0.06344634,-0.023942016,9.793482,-61.5,-260.1,-109.399994,-0.07452556,0.03604105,0.015271631,-1.0,0.0,0.0,106.43369,0.110926665,-0.3955888
1588602339887,-0.05865794,-0.022744916,9.792285,-61.5,-260.1,-109.399994,-0.076358154,0.036651913,0.014660766,-1.0,0.0,0.0,106.43369,0.110926665,-0.3955888
1588602339898,-0.06464344,-0.020350715,9.792285,-61.5,-260.1,-109.399994,-0.07513642,0.03481932,0.015882496,-1.0,0.0,0.0,106.43369,0.110926665,-0.3955888
1588602339908,-0.06464344,-0.015562311,9.799467,-61.5,-260.1,-109.399994,-0.07513642,0.03726278,0.016493361,-1.0,0.0,0.0,106.43369,0.110926665,-0.3955888
1588602339921,-0.06943185,-0.007182605,9.810242,-61.5,-260.1,-109.399994,-0.07574729,0.036651913,0.015882496,-1.0,0.0,0.0,106.43369,0.110926665,-0.3955888
1588602339931,-0.062249243,-0.020350715,9.779117,-61.5,-260.1,-109.399994,-0.077579886,0.036651913,0.017104227,-1.0,0.0,0.0,106.43369,0.110926665,-0.3955888
1588602339941,-0.06464344,-0.023942016,9.788693,-61.5,-260.1,-109.399994,-0.076358154,0.036651913,0.014049901,-1.0,0.0,0.0,106.43369,0.110926665,-0.3955888
1588602339954,-0.05626374,-0.027533319,9.788693,-61.5,-260.2,-109.299995,-0.07696902,0.037873644,0.014049901,-1.0,0.0,0.0,106.43369,0.110926665,-0.3955888
1588602339961,-0.05626374,-0.027533319,9.788693,-61.5,-260.2,-109.299995,-0.07696902,0.037873644,0.014049901,-1.0,0.0,0.0,106.43369,0.110926665,-0.3955888
1588602339974,-0.055066638,-0.023942016,9.788693,-61.5,-260.2,-109.299995,-0.07391469,0.03481932,0.014660766,-1.0,0.0,0.0,106.43369,0.110926665,-0.3955888
1588602339984,-0.05865794,-0.023942016,9.78989,-61.5,-260.2,-109.299995,-0.07819075,0.03604105,0.014660766,-1.0,0.0,0.0,106.43369,0.110926665,-0.3955888
1588602339996,-0.073023155,-0.01316811,9.794679,-61.5,-260.2,-109.299995,-0.076358154,0.034208454,0.01282817,-1.0,0.0,0.0,106.43369,0.110926665,-0.3955888
1588602340005,-0.06344634,-0.020350715,9.791088,-61.5,-260.2,-109.299995,-0.07696902,0.035430185,0.017104227,-1.0,0.0,0.0,106.43369,0.110926665,-0.3955888
1588602340018,-0.075417355,-0.015562311,9.797073,-61.4,-260.2,-109.299995,-0.076358154,0.03726278,0.01282817,-1.0,0.0,0.0,106.43369,0.110926665,-0.3955888
1588602340028,-0.07062895,-0.007182605,9.791088,-61.4,-260.2,-109.299995,-0.076358154,0.03481932,0.013439035,-1.0,0.0,0.0,106.43369,0.110926665,-0.3955888
1588602340039,-0.06464344,-0.019153614,9.79827,-61.4,-260.2,-109.299995,-0.07574729,0.03604105,0.015882496,-1.0,0.0,0.0,106.43369,0.110926665,-0.3955888
1588602340050,-0.059855044,-0.025139118,9.78989,-61.5,-260.2,-109.2,-0.07819075,0.03481932,0.015882496,-1.0,0.0,0.0,106.43369,0.110926665,-0.3955888
1588602340061,-0.05746084,-0.02633622,9.788693,-61.5,-260.2,-109.2,-0.076358154,0.03604105,0.014049901,-1.0,0.0,0.0,106.43369,0.110926665,-0.3955888
1588602340070,-0.05865794,-0.025139118,9.78989,-61.5,-260.2,-109.2,-0.077579886,0.035430185,0.014049901,-1.0,0.0,0.0,106.43369,0.110926665,-0.3955888
1588602340081,-0.055066638,-0.025139118,9.788693,-61.5,-260.2,-109.2,-0.07452556,0.03604105,0.014049901,-1.0,0.0,0.0,106.43369,0.110926665,-0.3955888
1588602340093,-0.061052144,-0.016759412,9.788693,-61.5,-260.3,-109.2,-0.076358154,0.03604105,0.015271631,-1.0,0.0,0.0,106.43369,0.110926665,-0.3955888
1588602340106,-0.061052144,-0.025139118,9.791088,-61.5,-260.3,-109.2,-0.076358154,0.03604105,0.014049901,-1.0,0.0,0.0,106.43369,0.110926665,-0.3955888
1588602340116,-0.05865794,-0.023942016,9.785102,-61.5,-260.3,-109.2,-0.07391469,0.034208454,0.015271631,-1.0,0.0,0.0,106.43369,0.110926665,-0.3955888
1588602340127,-0.061052144,-0.023942016,9.788693,-61.5,-260.3,-109.2,-0.073303826,0.036651913,0.015271631,-1.0,0.0,0.0,106.43369,0.110926665,-0.3955888
1588602340138,-0.059855044,-0.025139118,9.793482,-61.5,-260.2,-109.1,-0.07452556,0.03604105,0.01282817,-1.0,0.0,0.0,106.43369,0.110926665,-0.3955888
1588602340148,-0.05865794,-0.031124622,9.791088,-61.4,-260.2,-109.2,-0.07696902,0.037873644,0.013439035,-1.0,0.0,0.0,106.43369,0.110926665,-0.3955888
1588602340161,-0.06344634,-0.025139118,9.793482,-61.4,-260.2,-109.2,-0.07513642,0.03481932,0.015271631,-1.0,0.0,0.0,106.43369,0.110926665,-0.3955888
1588602340171,-0.059855044,-0.008379706,9.7958765,-61.4,-260.2,-109.1,-0.07513642,0.03604105,0.015882496,-1.0,0.0,0.0,106.43369,0.110926665,-0.3955888
1588602340183,-0.07182605,-0.020350715,9.793482,-61.4,-260.2,-109.1,-0.076358154,0.03726278,0.017104227,-1.0,0.0,0.0,106.43369,0.110926665,-0.3955888
1588602340193,-0.073023155,-0.019153614,9.792285,-61.4,-260.2,-109.1,-0.076358154,0.03481932,0.015271631,-1.0,0.0,0.0,106.43369,0.110926665,-0.3955888
1588602340206,-0.06464344,-0.022744916,9.787497,-61.4,-260.2,-109.1,-0.07819075,0.037873644,0.014660766,-1.0,0.0,0.0,106.43369,0.110926665,-0.3955888
1588602340217,-0.049081136,-0.025139118,9.792285,-61.4,-260.2,-109.1,-0.07513642,0.03481932,0.014660766,-1.0,0.0,0.0,106.43369,0.110926665,-0.3955888
1588602340228,-0.06584055,-0.017956512,9.78989,-61.4,-260.2,-109.1,-0.07696902,0.036651913,0.017104227,-1.0,0.0,0.0,106.43369,0.110926665,-0.3955888
1588602340239,-0.059855044,-0.02633622,9.7958765,-61.4,-260.2,-109.1,-0.07696902,0.035430185,0.015271631,-1.0,0.0,0.0,106.43369,0.110926665,-0.3955888
1588602340250,-0.05746084,-0.027533319,9.78989,-61.300003,-260.2,-109.2,-0.07391469,0.03481932,0.015271631,-1.0,0.0,0.0,106.43369,0.110926665,-0.3955888
1588602340261,-0.05746084,-0.023942016,9.793482,-61.300003,-260.2,-109.2,-0.077579886,0.03726278,0.014049901,-1.0,0.0,0.0,106.43369,0.110926665,-0.3955888
1588602340271,-0.05746084,-0.023942016,9.793482,-61.300003,-260.2,-109.2,-0.076358154,0.03604105,0.015882496,-1.0,0.0,0.0,106.43369,0.110926665,-0.3955888
1588602340281,-0.062249243,-0.023942016,9.792285,-61.300003,-260.2,-109.2,-0.07452556,0.035430185,0.014660766,-1.0,0.0,0.0,106.43369,0.110926665,-0.3955888
1588602340293,-0.06823475,-0.023942016,9.792285,-61.300003,-260.3,-109.299995,-0.07513642,0.035430185,0.014049901,-1.0,0.0,0.0,106.43369,0.110926665,-0.3955888
1588602340304,-0.05626374,-0.025139118,9.788693,-61.300003,-260.3,-109.299995,-0.076358154,0.03481932,0.015271631,-1.0,0.0,0.0,106.43369,0.110926665,-0.3955888
1588602340314,-0.05865794,-0.02633622,9.793482,-61.300003,-260.2,-109.299995,-0.07696902,0.035430185,0.015271631,-1.0,0.0,0.0,106.43369,0.110926665,-0.3955888
1588602340326,-0.05626374,-0.025139118,9.788693,-61.300003,-260.2,-109.299995,-0.07391469,0.03481932,0.014660766,-1.0,0.0,0.0,106.43369,0.110926665,-0.3955888
1588602340338,-0.06703765,-0.023942016,9.78989,-61.2,-260.3,-109.299995,-0.07452556,0.034208454,0.015882496,-1.0,0.0,0.0,106.43369,0.110926665,-0.3955888
1588602340349,-0.050278235,-0.023942016,9.7958765,-61.2,-260.3,-109.299995,-0.07452556,0.035430185,0.01160644,-1.0,0.0,0.0,106.43368,0.11125451,-0.39509985
1588602340361,-0.062249243,-0.021547815,9.799467,-61.2,-260.3,-109.299995,-0.07574729,0.03481932,0.014660766,-1.0,0.0,0.0,106.43368,0.11125451,-0.39509985
1588602340371,-0.061052144,-0.022744916,9.793482,-61.2,-260.3,-109.299995,-0.07452556,0.036651913,0.014049901,-1.0,0.0,0.0,106.43744,0.11125453,-0.39509985
1588602340381,-0.06703765,-0.007182605,9.792285,-61.2,-260.3,-109.299995,-0.07513642,0.03481932,0.015271631,-1.0,0.0,0.0,106.43744,0.11125453,-0.39509985
1588602340391,-0.07062895,-0.007182605,9.793482,-61.2,-260.3,-109.299995,-0.07696902,0.03604105,0.014660766,-1.0,0.0,0.0,106.43744,0.11125453,-0.39509985
1588602340404,-0.06703765,-0.023942016,9.7958765,-61.2,-260.3,-109.299995,-0.07391469,0.03359759,0.015271631,-1.0,0.0,0.0,106.43744,0.11125453,-0.39509985
1588602340414,-0.06464344,-0.025139118,9.79827,-61.2,-260.3,-109.299995,-0.07696902,0.035430185,0.013439035,-1.0,0.0,0.0,106.43744,0.11125453,-0.39509985
1588602340424,-0.055066638,-0.029927522,9.78989,-61.2,-260.3,-109.299995,-0.07696902,0.035430185,0.014049901,-1.0,0.0,0.0,106.43744,0.11125453,-0.39509985
1588602340436,-0.06823475,-0.027533319,9.787497,-61.300003,-260.3,-109.299995,-0.07574729,0.036651913,0.015271631,-1.0,0.0,0.0,106.43744,0.11125453,-0.39509985
1588602340447,-0.05865794,-0.02873042,9.792285,-61.300003,-260.3,-109.299995,-0.07574729,0.03481932,0.013439035,-1.0,0.0,0.0,106.43744,0.11125453,-0.39509985
1588602340457,-0.06344634,-0.027533319,9.791088,-61.300003,-260.3,-109.299995,-0.07513642,0.035430185,0.014049901,-1.0,0.0,0.0,106.43744,0.11125453,-0.39509985
1588602340470,-0.061052144,-0.023942016,9.785102,-61.300003,-260.3,-109.299995,-0.07513642,0.03604105,0.014660766,-1.0,0.0,0.0,106.43744,0.11125453,-0.39509985
1588602340481,-0.05626374,-0.025139118,9.792285,-61.300003,-260.3,-109.299995,-0.07574729,0.034208454,0.014049901,-1.0,0.0,0.0,106.43744,0.11125453,-0.39509985
1588602340490,-0.061052144,-0.023942016,9.793482,-61.2,-260.3,-109.299995,-0.076358154,0.035430185,0.013439035,-1.0,0.0,0.0,106.43744,0.11125453,-0.39509985
1588602340502,-0.053869538,-0.025139118,9.7863,-61.2,-260.3,-109.299995,-0.07574729,0.036651913,0.014660766,-1.0,0.0,0.0,106.43744,0.111580156,-0.3946095
1588602340510,-0.053869538,-0.025139118,9.7863,-61.2,-260.3,-109.299995,-0.07391469,0.032375857,0.014049901,-1.0,0.0,0.0,106.43744,0.111580156,-0.3946095
1588602340521,-0.05746084,-0.02633622,9.78989,-61.2,-260.3,-109.299995,-0.07452556,0.03481932,0.014660766,-1.0,0.0,0.0,106.43743,0.112277746,-0.39348736
1588602340533,-0.059855044,-0.025139118,9.794679,-61.300003,-260.3,-109.399994,-0.07696902,0.035430185,0.015271631,-1.0,0.0,0.0,106.43743,0.11263945,-0.3929352
1588602340545,-0.06943185,-0.021547815,9.792285,-61.300003,-260.3,-109.399994,-0.07513642,0.034208454,0.013439035,-1.0,0.0,0.0,106.4412,0.11263948,-0.3929352
1588602340556,-0.059855044,-0.023942016,9.791088,-61.300003,-260.3,-109.299995,-0.076358154,0.03604105,0.013439035,-1.0,0.0,0.0,106.4412,0.11263948,-0.3929352
1588602340567,-0.05746084,-0.025139118,9.787497,-61.300003,-260.3,-109.299995,-0.07696902,0.03481932,0.015271631,-1.0,0.0,0.0,106.44495,0.11263948,-0.3929352
1588602340578,-0.053869538,-0.025139118,9.7863,-61.300003,-260.3,-109.299995,-0.07513642,0.035430185,0.014660766,-1.0,0.0,0.0,106.44496,0.112955764,-0.39243862
1588602340588,-0.06943185,-0.015562311,9.799467,-61.300003,-260.3,-109.299995,-0.07574729,0.03481932,0.012217305,-1.0,0.0,0.0,106.44496,0.112955764,-0.39243862
1588602340601,-0.062249243,-0.020350715,9.8042555,-61.300003,-260.3,-109.299995,-0.07513642,0.036651913,0.013439035,-1.0,0.0,0.0,106.44496,0.112955764,-0.39243862
1588602340612,-0.07062895,-0.023942016,9.78989,-61.300003,-260.3,-109.299995,-0.07452556,0.034208454,0.013439035,-1.0,0.0,0.0,106.44496,0.112955764,-0.39243862
1588602340622,-0.05865794,-0.023942016,9.787497,-61.300003,-260.3,-109.299995,-0.073303826,0.03726278,0.01282817,-1.0,0.0,0.0,106.44496,0.112955764,-0.39243862
1588602340634,-0.06344634,-0.023942016,9.7863,-61.300003,-260.3,-109.299995,-0.07574729,0.034208454,0.015271631,-1.0,0.0,0.0,106.44496,0.112955764,-0.39243862
1588602340645,-0.06344634,-0.027533319,9.788693,-61.300003,-260.3,-109.299995,-0.07696902,0.03726278,0.014660766,-1.0,0.0,0.0,106.44496,0.112955764,-0.39243862
1588602340655,-0.05626374,-0.025139118,9.791088,-61.300003,-260.2,-109.399994,-0.07269296,0.035430185,0.015882496,-1.0,0.0,0.0,106.44496,0.112955764,-0.39243862
1588602340669,-0.05626374,-0.023942016,9.793482,-61.300003,-260.2,-109.399994,-0.076358154,0.03604105,0.014660766,-1.0,0.0,0.0,106.44496,0.112955764,-0.39243862
1588602340681,-0.05267244,-0.023942016,9.794679,-61.300003,-260.2,-109.399994,-0.077579886,0.03481932,0.015271631,-1.0,0.0,0.0,106.44496,0.112955764,-0.39243862
1588602340690,-0.06344634,-0.020350715,9.78989,-61.2,-260.2,-109.399994,-0.076358154,0.035430185,0.014049901,-1.0,0.0,0.0,106.44496,0.112955764,-0.39243862
1588602340700,-0.06344634,-0.020350715,9.78989,-61.2,-260.2,-109.399994,-0.07574729,0.036651913,0.014049901,-1.0,0.0,0.0,106.44496,0.112955764,-0.39243862
1588602340710,-0.06464344,-0.023942016,9.7863,-61.2,-260.2,-109.5,-0.076358154,0.03481932,0.014660766,-1.0,0.0,0.0,106.44496,0.112955764,-0.39243862
1588602340721,-0.062249243,-0.022744916,9.781511,-61.2,-260.2,-109.5,-0.07696902,0.037873644,0.014049901,-1.0,0.0,0.0,106.44496,0.112955764,-0.39243862
1588602340731,-0.061052144,-0.025139118,9.794679,-61.2,-260.2,-109.6,-0.07452556,0.035430185,0.014049901,-1.0,0.0,0.0,106.44496,0.112955764,-0.39243862
1588602340742,-0.053869538,-0.023942016,9.7958765,-61.2,-260.2,-109.6,-0.07513642,0.035430185,0.015882496,-1.0,0.0,0.0,106.44496,0.112955764,-0.39243862
1588602340753,-0.06943185,-0.01436521,9.787497,-61.300003,-260.2,-109.5,-0.07696902,0.03481932,0.014049901,-1.0,0.0,0.0,106.44496,0.112955764,-0.39243862
1588602340764,-0.059855044,-0.023942016,9.787497,-61.300003,-260.2,-109.5,-0.07696902,0.036651913,0.014049901,-1.0,0.0,0.0,106.44496,0.112955764,-0.39243862
1588602340775,-0.062249243,-0.023942016,9.791088,-61.300003,-260.2,-109.5,-0.076358154,0.03481932,0.014660766,-1.0,0.0,0.0,106.44496,0.112955764,-0.39243862
1588602340786,-0.05746084,-0.025139118,9.787497,-61.300003,-260.2,-109.5,-0.07696902,0.036651913,0.013439035,-1.0,0.0,0.0,106.44496,0.112955764,-0.39243862
