@ HyperIMU -ianovir - 2018
@ Date:Mon May 04 16:32:42 GMT+02:00 2020, Sampling Rate:10ms

timestamp,K6DS3TR_Accelerometer.x,K6DS3TR_Accelerometer.y,K6DS3TR_Accelerometer.z,YAS537_Uncalibrated_Magnetometer.x,YAS537_Uncalibrated_Magnetometer.y,YAS537_Uncalibrated_Magnetometer.z,K6DS3TR_Uncalibrated_Gyroscope.x,K6DS3TR_Uncalibrated_Gyroscope.y,K6DS3TR_Uncalibrated_Gyroscope.z,Screen_Orientation_Sensor.x,Screen_Orientation_Sensor.y,Screen_Orientation_Sensor.z,Samsung_Orientation_Sensor.x,Samsung_Orientation_Sensor.y,Samsung_Orientation_Sensor.z
1588602762361,0.142455,0.35314476,10.448297,0.0,0.0,0.0,0.0,0.0,0.0,-1.0,0.0,0.0,359.98682,-1.9356937,0.78116053
1588602762372,0.142455,0.35314476,10.448297,-30.900002,-254.7,-142.4,0.0,0.0,0.0,-1.0,0.0,0.0,359.98682,-1.9356937,0.78116053
1588602762384,-0.009576807,-0.008379706,9.829395,-30.900002,-254.7,-142.4,0.0,0.0,0.0,-1.0,0.0,0.0,6.3964224E-4,0.042047393,-0.056039236
1588602762393,0.007182605,-0.005985504,9.834184,-30.900002,-254.7,-142.4,0.0,0.0,0.0,-1.0,0.0,0.0,7.045977E-4,0.034962974,0.040614802
1588602762404,0.007182605,-0.005985504,9.834184,-30.900002,-254.7,-142.4,0.0,0.0,0.0,-1.0,0.0,0.0,7.045977E-4,0.034962974,0.040614802
1588602762415,-0.009576807,-0.017956512,9.78989,-30.900002,-254.7,-142.4,-0.076358154,0.03726278,0.012217305,-1.0,0.0,0.0,0.0020375978,0.105323404,-0.056354485
1588602762426,-0.01316811,-0.023942016,9.792285,-30.7,-253.4,-142.9,-0.076358154,0.039095376,0.013439035,-1.0,0.0,0.0,0.0017335565,0.10486811,-0.06146518
1588602762438,-0.01316811,-0.023942016,9.792285,-30.7,-253.4,-142.9,-0.076358154,0.039095376,0.013439035,-1.0,0.0,0.0,0.0017335565,0.10486811,-0.06146518
1588602762449,-0.009576807,-0.029927522,9.7958765,-31.2,-253.3,-143.4,-0.07513642,0.039095376,0.01282817,-1.0,0.0,0.0,0.0036149076,0.16533293,-0.05597852
1588602762460,0.007182605,-0.03232172,9.821015,-31.2,-253.5,-143.5,-0.07391469,0.03848451,0.013439035,-1.0,0.0,0.0,0.0043878676,0.18883413,0.043060638
1588602762471,0.008379706,-0.020350715,9.8437605,-31.2,-253.5,-143.5,-0.07391469,0.040317107,0.014049901,-1.0,0.0,0.0,0.0048158164,0.11783839,0.04888488
1588602762480,0.0023942017,-0.0047884034,9.830592,-31.300001,-253.4,-143.4,-0.07513642,0.03726278,0.015271631,-1.0,0.0,0.0,0.0044732923,0.027692853,0.0138826305
1588602762492,-0.009576807,0.0011971008,9.836577,-31.300001,-253.4,-143.4,-0.073303826,0.03848451,0.013439035,-1.0,0.0,0.0,0.0052079908,-0.0066079698,-0.055087432
1588602762503,-0.017956512,0.019153614,9.824607,-31.300001,-253.5,-143.4,-0.076358154,0.035430185,0.014049901,-1.0,0.0,0.0,0.0056513674,-0.11193861,-0.104822285
1588602762514,-0.015562311,-0.0035913025,9.794679,-31.300001,-253.4,-143.4,-0.07513642,0.039095376,0.01282817,-1.0,0.0,0.0,0.0067288554,0.02064773,-0.09108851
1588602762526,0.0023942017,-0.015562311,9.812635,-31.300001,-253.4,-143.4,-0.07391469,0.039095376,0.012217305,-1.0,0.0,0.0,0.0061779576,0.08962419,0.012021302
1588602762535,0.0023942017,-0.023942016,9.809045,-31.600002,-253.5,-143.3,-0.07391469,0.039095376,0.012217305,-1.0,0.0,0.0,0.0076211095,0.08882022,0.005873025
1588602762546,0.0047884034,-0.02633622,9.810242,-31.600002,-253.5,-143.3,-0.073303826,0.03848451,0.014660766,-1.0,0.0,0.0,0.008424346,0.15368487,0.027911548
1588602762557,0.007182605,-0.029927522,9.8198185,-31.600002,-253.6,-143.2,-0.076358154,0.03970624,0.015271631,-1.0,0.0,0.0,0.008469376,0.15252903,0.022097396
1588602762567,0.0047884034,-0.025139118,9.827001,-31.600002,-253.6,-143.2,-0.073303826,0.03726278,0.014049901,-1.0,0.0,0.0,0.0081641795,0.15312588,0.01556758
1588602762579,-0.01316811,-0.017956512,9.811439,-31.600002,-253.5,-143.09999,-0.07513642,0.03848451,0.014660766,-1.0,0.0,0.0,0.008366392,0.105975315,-0.074829936
1588602762586,-0.005985504,-0.0035913025,9.80665,-31.600002,-253.5,-143.09999,-0.07513642,0.03848451,0.014660766,-1.0,0.0,0.0,0.008462622,0.020521782,-0.034722835
1588602762597,-0.015562311,-0.0011971008,9.829395,-31.400002,-253.5,-143.2,-0.07513642,0.03726278,0.015271631,-1.0,0.0,0.0,0.008859302,0.019365853,-0.04123951
1588602762608,-0.0047884034,0.0011971008,9.825804,-31.400002,-253.5,-143.2,-0.076358154,0.037873644,0.014660766,-1.0,0.0,0.0,0.0085546365,0.01926055,-0.046353724
1588602762619,-0.007182605,-0.017956512,9.816227,-31.500002,-253.6,-143.2,-0.07452556,0.039095376,0.015882496,-1.0,0.0,0.0,0.007978748,0.08534723,-0.018993516
1588602762630,0.0011971008,-0.022744916,9.821015,-31.500002,-253.6,-143.2,-0.07513642,0.037873644,0.014049901,-1.0,0.0,0.0,0.008373011,0.0852427,-0.024435325
1588602762641,0.0011971008,-0.02633622,9.799467,-31.500002,-253.6,-143.3,-0.073303826,0.037873644,0.014660766,-1.0,0.0,0.0,0.0084958,0.15406814,0.0070442106
1588602762652,-0.0011971008,-0.02633622,9.8042555,-31.500002,-253.6,-143.3,-0.07452556,0.039095376,0.015271631,-1.0,0.0,0.0,0.008191004,0.15361278,8.7810785E-4
1588602762664,-0.0011971008,-0.025139118,9.803059,-31.500002,-253.6,-143.3,-0.07269296,0.03726278,0.015271631,-1.0,0.0,0.0,0.007886684,0.15210846,-0.0042304033
1588602762675,-0.0023942017,-0.010773907,9.8198185,-31.400002,-253.5,-143.3,-0.077579886,0.037873644,0.014049901,-1.0,0.0,0.0,0.00786831,0.06198939,-0.01406476
1588602762686,0.0011971008,-0.007182605,9.8198185,-31.400002,-253.5,-143.3,-0.07391469,0.03726278,0.013439035,-1.0,0.0,0.0,0.00786831,0.06198939,-0.01406476
1588602762695,-0.005985504,-0.0035913025,9.828198,-31.400002,-253.5,-143.2,-0.07391469,0.03726278,0.013439035,-1.0,0.0,0.0,0.00786831,0.06198939,-0.01406476
1588602762707,-0.011971008,0.009576807,9.825804,-31.400002,-253.5,-143.2,-0.07391469,0.03970624,0.014660766,-1.0,0.0,0.0,0.0086128665,-0.056147624,-0.06993361
1588602762718,-0.020350715,0.0023942017,9.81503,-31.400002,-253.6,-143.09999,-0.07391469,0.03726278,0.014049901,-1.0,0.0,0.0,0.008685922,-0.012399862,-0.120352134
1588602762729,-0.023942016,0.0023942017,9.810242,-31.400002,-253.6,-143.09999,-0.073303826,0.03848451,0.014049901,-1.0,0.0,0.0,0.009083174,-0.013204049,-0.12546255
1588602762741,-0.0023942017,-0.021547815,9.809045,-31.400002,-253.6,-143.2,-0.07391469,0.039095376,0.014049901,-1.0,0.0,0.0,0.009951413,0.09664597,-0.034527257
1588602762750,-0.0011971008,-0.029927522,9.8042555,-31.400002,-253.6,-143.2,-0.07452556,0.039095376,0.015882496,-1.0,0.0,0.0,0.009374256,0.17334473,-0.007659597
1588602762762,0.0047884034,-0.023942016,9.800665,-31.400002,-253.6,-143.2,-0.07391469,0.03848451,0.013439035,-1.0,0.0,0.0,0.010119498,0.17254034,-0.013464152
1588602762773,-0.0047884034,-0.023942016,9.812635,-31.400002,-253.6,-143.2,-0.07391469,0.03726278,0.013439035,-1.0,0.0,0.0,0.010865963,0.17173475,-0.018576957
1588602762784,-0.0047884034,0.0047884034,9.818622,-31.400002,-253.6,-143.2,-0.07452556,0.036651913,0.01282817,-1.0,0.0,0.0,0.010854229,-0.02881372,-0.027983213
1588602762799,-0.0011971008,-0.0023942017,9.813833,-31.400002,-253.6,-143.2,-0.07391469,0.03848451,0.013439035,-1.0,0.0,0.0,0.010854229,-0.02881372,-0.027983213
1588602762812,-0.0047884034,-0.008379706,9.818622,-31.400002,-253.6,-143.2,-0.07513642,0.03726278,0.014660766,-1.0,0.0,0.0,0.010854237,0.04780295,-0.027942918
1588602762816,-0.0047884034,-0.008379706,9.818622,-31.400002,-253.6,-143.09999,-0.07513642,0.03726278,0.014660766,-1.0,0.0,0.0,0.010854237,0.04780295,-0.027942918
1588602762827,-0.0011971008,-0.01436521,9.81503,-31.400002,-253.6,-143.09999,-0.07513642,0.03726278,0.014049901,-1.0,0.0,0.0,0.010854237,0.04780295,-0.027942918
1588602762838,-0.005985504,-0.015562311,9.822212,-31.400002,-253.6,-143.09999,-0.07513642,0.037873644,0.014049901,-1.0,0.0,0.0,0.010854237,0.04780295,-0.027942918
1588602762850,-0.0023942017,-0.021547815,9.803059,-31.400002,-253.6,-143.09999,-0.07452556,0.03726278,0.013439035,-1.0,0.0,0.0,0.010915595,0.1264265,-0.014371604
1588602762859,-0.009576807,-0.011971008,9.807847,-31.400002,-253.6,-143.09999,-0.07452556,0.039095376,0.014049901,-1.0,0.0,0.0,0.010843505,0.06897928,-0.05664758
1588602762870,-0.009576807,-0.007182605,9.817424,-31.400002,-253.6,-143.09999,-0.073303826,0.039095376,0.014660766,-1.0,0.0,0.0,0.010843505,0.06897928,-0.05664758
1588602762881,-0.0023942017,-0.0011971008,9.818622,-31.400002,-253.6,-143.2,-0.07269296,0.03848451,0.015271631,-1.0,0.0,0.0,0.010871881,0.0058704093,-0.013203485
1588602762892,-0.010773907,-0.007182605,9.811439,-31.400002,-253.6,-143.2,-0.07452556,0.037873644,0.014049901,-1.0,0.0,0.0,0.010850462,0.042610858,-0.06383503
1588602762903,-0.015562311,-0.010773907,9.805453,-31.300001,-253.6,-143.09999,-0.07574729,0.040927973,0.013439035,-1.0,0.0,0.0,0.011596227,0.042856935,-0.07104983
1588602762912,-0.011971008,-0.010773907,9.801862,-31.300001,-253.6,-143.09999,-0.07269296,0.03848451,0.014660766,-1.0,0.0,0.0,0.011596227,0.042856935,-0.07104983
1588602762923,-0.0035913025,-0.017956512,9.801862,-31.400002,-253.6,-143.09999,-0.07574729,0.03848451,0.012217305,-1.0,0.0,0.0,0.0131139755,0.10539195,-0.02060506
1588602762935,-0.0023942017,-0.020350715,9.800665,-31.400002,-253.6,-143.09999,-0.07391469,0.039095376,0.01282817,-1.0,0.0,0.0,0.014210259,0.10458709,-0.026765566
1588602762947,-0.007182605,-0.021547815,9.803059,-31.400002,-253.6,-143.09999,-0.07269296,0.037873644,0.013439035,-1.0,0.0,0.0,0.015310301,0.10553702,-0.032248624
1588602762956,0.0047884034,-0.023942016,9.801862,-31.400002,-253.6,-143.09999,-0.07452556,0.03604105,0.013439035,-1.0,0.0,0.0,0.015431417,0.13808276,0.02472104
1588602762967,-0.0023942017,-0.016759412,9.809045,-31.400002,-253.6,-143.09999,-0.07574729,0.036651913,0.014660766,-1.0,0.0,0.0,0.015431417,0.13808276,0.02472104
1588602762978,-0.0047884034,-0.025139118,9.821015,-31.400002,-253.6,-143.09999,-0.07391469,0.036651913,0.014660766,-1.0,0.0,0.0,0.015431417,0.13808276,0.02472104
1588602762990,-0.008379706,-0.0047884034,9.800665,-31.400002,-253.6,-143.09999,-0.07391469,0.039095376,0.015271631,-1.0,0.0,0.0,0.015271838,0.030654494,-0.04947176
1588602763001,0.0047884034,-0.019153614,9.8042555,-31.400002,-253.6,-143.09999,-0.07452556,0.037873644,0.014660766,-1.0,0.0,0.0,0.015370065,0.11292247,0.02892623
1588602763013,-0.015562311,-0.0047884034,9.809045,-31.400002,-253.6,-143.09999,-0.07452556,0.037873644,0.014660766,-1.0,0.0,0.0,0.015222806,0.028071655,-0.09075724
1588602763020,-0.016759412,-0.01316811,9.811439,-31.400002,-253.6,-143.09999,-0.076358154,0.03726278,0.015882496,-1.0,0.0,0.0,0.015222806,0.028071655,-0.09075724
1588602763032,0.0011971008,-0.016759412,9.811439,-31.400002,-253.6,-143.09999,-0.07391469,0.03970624,0.014660766,-1.0,0.0,0.0,0.015332803,0.09893698,0.00848533
1588602763043,0.007182605,-0.023942016,9.79827,-31.400002,-253.6,-143.09999,-0.073303826,0.03970624,0.014660766,-1.0,0.0,0.0,0.015457719,0.13837394,0.040456742
1588602763055,-0.0011971008,-0.021547815,9.812635,-31.400002,-253.5,-143.09999,-0.073303826,0.040927973,0.014660766,-1.0,0.0,0.0,0.015503121,0.13720228,0.033142805
1588602763066,-0.0047884034,-0.017956512,9.80665,-31.400002,-253.5,-143.09999,-0.07513642,0.03970624,0.017715093,-1.0,0.0,0.0,0.015427475,0.10413869,-0.029344501
1588602763078,-0.017956512,-0.01316811,9.8042555,-31.400002,-253.5,-143.09999,-0.07452556,0.039095376,0.014049901,-1.0,0.0,0.0,0.01360792,0.07606687,-0.10719964
1588602763087,-0.010773907,-0.015562311,9.80665,-31.400002,-253.5,-143.09999,-0.073303826,0.03848451,0.014049901,-1.0,0.0,0.0,0.014003267,0.07561383,-0.11334315
1588602763099,-0.0047884034,-0.01436521,9.810242,-31.300001,-253.5,-143.09999,-0.076358154,0.03726278,0.014049901,-1.0,0.0,0.0,0.014930001,0.08391694,-0.027766168
1588602763110,0.0011971008,-0.016759412,9.80665,-31.300001,-253.5,-143.09999,-0.07391469,0.037873644,0.014660766,-1.0,0.0,0.0,0.014975895,0.08311262,-0.033221792
1588602763122,-0.0011971008,-0.020350715,9.80665,-31.400002,-253.6,-143.09999,-0.07391469,0.036651913,0.014049901,-1.0,0.0,0.0,0.014975895,0.08311262,-0.033221792
1588602763129,-0.0011971008,-0.02633622,9.803059,-31.400002,-253.6,-143.09999,-0.07513642,0.03848451,0.015271631,-1.0,0.0,0.0,0.015031176,0.1549606,-0.0066137253
1588602763141,-0.0011971008,-0.010773907,9.809045,-31.300001,-253.6,-143.09999,-0.07452556,0.03726278,0.015882496,-1.0,0.0,0.0,0.015030459,0.06430727,-0.0069867456
1588602763153,-0.0011971008,-0.017956512,9.794679,-31.300001,-253.6,-143.09999,-0.07513642,0.03848451,0.014660766,-1.0,0.0,0.0,0.015030461,0.06430729,-0.006986747
1588602763166,-0.0047884034,-0.015562311,9.791088,-31.300001,-253.5,-143.09999,-0.073303826,0.037873644,0.013439035,-1.0,0.0,0.0,0.015758611,0.0631796,-0.012317458
1588602763176,-0.0023942017,-0.019153614,9.810242,-31.300001,-253.5,-143.09999,-0.07452556,0.039095376,0.015271631,-1.0,0.0,0.0,0.015454044,0.06272425,-0.018481655
1588602763186,0.0023942017,-0.0023942017,9.812635,-31.300001,-253.5,-143.09999,-0.07574729,0.037873644,0.013439035,-1.0,0.0,0.0,0.016233006,0.013162288,0.01466137
1588602763198,-0.008379706,-0.010773907,9.807847,-31.400002,-253.5,-143.0,-0.07574729,0.039095376,0.015271631,-1.0,0.0,0.0,0.016932426,0.06305952,-0.049094077
1588602763209,-0.010773907,-0.020350715,9.797073,-31.400002,-253.5,-143.0,-0.07574729,0.03848451,0.015271631,-1.0,0.0,0.0,0.016323177,0.06354879,-0.061062474
1588602763219,-0.005985504,-0.023942016,9.792285,-31.400002,-253.5,-143.0,-0.07391469,0.037873644,0.013439035,-1.0,0.0,0.0,0.017126972,0.14047019,-0.03486581
1588602763231,-0.007182605,-0.019153614,9.791088,-31.400002,-253.5,-143.0,-0.073303826,0.037873644,0.013439035,-1.0,0.0,0.0,0.017873805,0.13931485,-0.040328156
1588602763239,0.0011971008,-0.016759412,9.80665,-31.400002,-253.5,-142.9,-0.07574729,0.037873644,0.015271631,-1.0,0.0,0.0,0.017676676,0.098918356,0.005725671
1588602763256,-0.0011971008,-0.009576807,9.809045,-31.400002,-253.6,-142.9,-0.076358154,0.03604105,0.015271631,-1.0,0.0,0.0,0.017676676,0.098918356,0.005725671
1588602763264,-0.011971008,0.0047884034,9.81503,-31.400002,-253.6,-142.9,-0.07452556,0.03726278,0.015882496,-1.0,0.0,0.0,0.017629607,-0.027109638,-0.06937908
1588602763281,-0.010773907,0.009576807,9.813833,-31.400002,-253.6,-142.9,-0.07574729,0.037873644,0.015271631,-1.0,0.0,0.0,0.017629607,-0.027109638,-0.06937908
1588602763292,-0.011971008,-0.007182605,9.807847,-31.400002,-253.6,-143.0,-0.07696902,0.040317107,0.015271631,-1.0,0.0,0.0,0.017629558,0.038498867,-0.06990484
1588602763300,-0.01316811,-0.023942016,9.7958765,-31.400002,-253.6,-143.0,-0.076358154,0.03848451,0.014049901,-1.0,0.0,0.0,0.017617974,0.14292115,-0.07722202
1588602763309,-0.0035913025,-0.025139118,9.791088,-31.400002,-253.6,-143.0,-0.07574729,0.037873644,0.013439035,-1.0,0.0,0.0,0.017617974,0.14292115,-0.07722202
1588602763319,-0.0035913025,-0.033518825,9.7958765,-31.400002,-253.6,-143.09999,-0.07452556,0.03726278,0.015271631,-1.0,0.0,0.0,0.017788706,0.19727239,-0.01971177
1588602763329,0.009576807,-0.025139118,9.799467,-31.400002,-253.6,-143.09999,-0.07391469,0.037873644,0.015882496,-1.0,0.0,0.0,0.017788706,0.19727239,-0.01971177
1588602763338,-0.0023942017,-0.023942016,9.810242,-31.400002,-253.5,-143.0,-0.07513642,0.03481932,0.014660766,-1.0,0.0,0.0,0.017788706,0.19727239,-0.01971177
1588602763351,0.0023942017,-0.021547815,9.811439,-31.400002,-253.5,-143.0,-0.07513642,0.03726278,0.015271631,-1.0,0.0,0.0,0.017788706,0.19727239,-0.01971177
1588602763361,0.0023942017,-0.010773907,9.811439,-31.400002,-253.5,-143.0,-0.07391469,0.03970624,0.01282817,-1.0,0.0,0.0,0.017788706,0.19727239,-0.01971177
1588602763372,-0.0023942017,0.010773907,9.82341,-31.400002,-253.5,-143.0,-0.07452556,0.037873644,0.015882496,-1.0,0.0,0.0,0.017789269,0.19644077,-0.019548012
1588602763384,-0.011971008,0.008379706,9.807847,-31.500002,-253.5,-143.0,-0.07391469,0.03726278,0.014049901,-1.0,0.0,0.0,0.017789442,0.19529739,-0.019496318
1588602763393,-0.010773907,-0.010773907,9.801862,-31.500002,-253.5,-143.0,-0.07452556,0.039095376,0.015271631,-1.0,0.0,0.0,0.017789332,0.19412959,-0.01952922
1588602763404,-0.0023942017,-0.021547815,9.8042555,-31.500002,-253.5,-143.0,-0.07574729,0.037873644,0.014049901,-1.0,0.0,0.0,0.017789273,0.19307321,-0.019546457
1588602763416,-0.0047884034,-0.02633622,9.799467,-31.500002,-253.6,-143.0,-0.07513642,0.03604105,0.014660766,-1.0,0.0,0.0,0.017789178,0.19209401,-0.019576024
1588602763427,-0.0023942017,-0.025139118,9.8042555,-31.500002,-253.6,-143.0,-0.07086037,0.03604105,0.014660766,-1.0,0.0,0.0,0.01778913,0.19124456,-0.019590177
1588602763439,0.0023942017,-0.029927522,9.797073,-31.500002,-253.5,-143.0,-0.07391469,0.03970624,0.016493361,-1.0,0.0,0.0,0.0177893,0.18982682,-0.01953834
1588602763448,0.0023942017,-0.029927522,9.797073,-31.500002,-253.5,-143.0,-0.07391469,0.03848451,0.015271631,-1.0,0.0,0.0,0.0177893,0.18982682,-0.01953834
1588602763462,-0.010773907,-0.0023942017,9.810242,-31.500002,-253.5,-143.0,-0.073303826,0.039095376,0.014660766,-1.0,0.0,0.0,0.01778969,0.18835638,-0.01942214
1588602763472,-0.009576807,-0.010773907,9.800665,-31.500002,-253.5,-143.0,-0.07391469,0.037873644,0.015271631,-1.0,0.0,0.0,0.017789515,0.18745689,-0.019474415
1588602763482,-0.011971008,0.01316811,9.812635,-31.500002,-253.5,-142.9,-0.073303826,0.03726278,0.014049901,-1.0,0.0,0.0,0.017789077,0.18621446,-0.019608255
1588602763494,-0.016759412,-0.0035913025,9.800665,-31.500002,-253.5,-142.9,-0.07269296,0.03848451,0.015271631,-1.0,0.0,0.0,0.017788267,0.18488546,-0.019858249
1588602763505,-0.010773907,-0.020350715,9.79827,-31.500002,-253.6,-142.9,-0.0720821,0.03726278,0.015882496,-1.0,0.0,0.0,0.017787354,0.18366615,-0.020141734
1588602763516,0.0023942017,-0.023942016,9.79827,-31.500002,-253.6,-143.0,-0.07452556,0.03848451,0.013439035,-1.0,0.0,0.0,0.017786818,0.18262331,-0.020309681
1588602763526,-0.005985504,-0.027533319,9.791088,-31.500002,-253.6,-143.0,-0.07452556,0.037873644,0.015271631,-1.0,0.0,0.0,0.01778628,0.18168463,-0.020480508
1588602763539,-0.005985504,-0.023942016,9.801862,-31.500002,-253.6,-143.0,-0.07452556,0.03726278,0.015882496,-1.0,0.0,0.0,0.017785465,0.18009768,-0.02073735
1588602763549,-0.005985504,-0.023942016,9.801862,-31.500002,-253.6,-143.0,-0.07513642,0.037873644,0.013439035,-1.0,0.0,0.0,0.017785465,0.18009768,-0.02073735
1588602763559,0.0023942017,-0.023942016,9.807847,-31.500002,-253.6,-143.0,-0.07269296,0.039095376,0.014049901,-1.0,0.0,0.0,0.017785314,0.17940424,-0.020786263
1588602763571,-0.01436521,-0.008379706,9.80665,-31.500002,-253.6,-143.0,-0.07574729,0.037873644,0.014660766,-1.0,0.0,0.0,0.017785214,0.17789556,-0.02081868
1588602763581,-0.017956512,0.0011971008,9.8042555,-31.500002,-253.5,-143.09999,-0.07513642,0.036651913,0.013439035,-1.0,0.0,0.0,0.017784568,0.17688787,-0.021027459
1588602763593,-0.01436521,-0.005985504,9.80665,-31.500002,-253.5,-143.09999,-0.07391469,0.036651913,0.012217305,-1.0,0.0,0.0,0.017783679,0.17578144,-0.021316228
1588602763604,-0.0023942017,-0.022744916,9.7958765,-31.500002,-253.6,-143.09999,-0.07574729,0.037873644,0.012217305,-1.0,0.0,0.0,0.017783012,0.17482461,-0.021534467
1588602763615,-0.0035913025,-0.023942016,9.78989,-31.500002,-253.6,-143.09999,-0.07269296,0.03848451,0.014660766,-1.0,0.0,0.0,0.017782478,0.17399333,-0.02171011
1588602763625,-0.0023942017,-0.02873042,9.803059,-31.500002,-253.6,-143.0,-0.07391469,0.039095376,0.015271631,-1.0,0.0,0.0,0.01778209,0.1733089,-0.021840211
1588602763638,-0.0011971008,-0.025139118,9.794679,-31.600002,-253.6,-143.0,-0.07574729,0.039095376,0.014660766,-1.0,0.0,0.0,0.017781816,0.17265508,-0.021930296
1588602763649,-0.0023942017,-0.017956512,9.792285,-31.600002,-253.6,-143.0,-0.07269296,0.036651913,0.013439035,-1.0,0.0,0.0,0.017781816,0.17265508,-0.021930296
1588602763660,-0.0023942017,-0.017956512,9.792285,-31.600002,-253.6,-142.9,-0.07391469,0.03726278,0.015271631,-1.0,0.0,0.0,0.017781816,0.17265508,-0.021930296
1588602763671,-0.0011971008,0.0011971008,9.792285,-31.600002,-253.6,-142.9,-0.0720821,0.037873644,0.015271631,-1.0,0.0,0.0,0.017781898,0.17183697,-0.021902632
1588602763682,-0.008379706,0.0011971008,9.803059,-31.600002,-253.6,-142.9,-0.07574729,0.039095376,0.013439035,-1.0,0.0,0.0,0.017781831,0.17085586,-0.021926003
1588602763692,-0.015562311,-0.01316811,9.8042555,-31.600002,-253.6,-142.9,-0.076358154,0.036651913,0.012217305,-1.0,0.0,0.0,0.017781422,0.1698838,-0.022062598
1588602763704,-0.009576807,-0.015562311,9.801862,-31.600002,-253.6,-143.0,-0.076358154,0.03848451,0.01282817,-1.0,0.0,0.0,0.017780906,0.1689197,-0.022237701
1588602763715,-0.0011971008,-0.023942016,9.78989,-31.600002,-253.6,-143.0,-0.07391469,0.03726278,0.014049901,-1.0,0.0,0.0,0.01778056,0.16808036,-0.022355203
1588602763726,-0.0011971008,-0.027533319,9.79827,-31.600002,-253.6,-143.0,-0.07269296,0.03726278,0.014660766,-1.0,0.0,0.0,0.017780354,0.16738854,-0.022424867
1588602763736,-0.005985504,-0.025139118,9.7958765,-31.600002,-253.6,-143.0,-0.076358154,0.03970624,0.014660766,-1.0,0.0,0.0,0.017780133,0.16680424,-0.022500485
1588602763748,0.0023942017,-0.023942016,9.794679,-31.600002,-253.6,-143.0,-0.073303826,0.040927973,0.015271631,-1.0,0.0,0.0,0.017780133,0.16680424,-0.022500485
1588602763759,0.0047884034,-0.01316811,9.807847,-31.600002,-253.6,-143.09999,-0.07269296,0.03726278,0.014660766,-1.0,0.0,0.0,0.01778038,0.16615067,-0.022415586
1588602763771,-0.016759412,-0.008379706,9.8042555,-31.600002,-253.6,-143.09999,-0.07452556,0.03726278,0.01282817,-1.0,0.0,0.0,0.017779805,0.16468804,-0.022614006
1588602763782,-0.0047884034,-0.017956512,9.801862,-31.600002,-253.6,-143.09999,-0.07452556,0.03726278,0.014660766,-1.0,0.0,0.0,0.017779404,0.16394201,-0.022754768
1588602763792,-0.0047884034,-0.022744916,9.7958765,-31.600002,-253.6,-143.09999,-0.07391469,0.037873644,0.014660766,-1.0,0.0,0.0,0.017779058,0.16329128,-0.022876589
1588602763804,-0.0047884034,-0.023942016,9.79827,-31.500002,-253.6,-143.09999,-0.0720821,0.03848451,0.012217305,-1.0,0.0,0.0,0.017779058,0.16329128,-0.022876589
1588602763814,-0.0011971008,-0.022744916,9.78989,-31.500002,-253.6,-143.09999,-0.07452556,0.03970624,0.013439035,-1.0,0.0,0.0,0.017779058,0.16329128,-0.022876589
1588602763826,0.0011971008,-0.023942016,9.792285,-31.500002,-253.5,-143.2,-0.07391469,0.037873644,0.015271631,-1.0,0.0,0.0,0.017779058,0.16329128,-0.022876589
1588602763837,-0.0011971008,-0.023942016,9.79827,-31.500002,-253.5,-143.2,-0.07391469,0.03726278,0.014660766,-1.0,0.0,0.0,0.017779058,0.16329128,-0.022876589
1588602763848,0.0035913025,-0.020350715,9.801862,-31.500002,-253.5,-143.2,-0.07147124,0.036651913,0.015882496,-1.0,0.0,0.0,0.017779058,0.16329128,-0.022876589
1588602763859,0.0035913025,-0.015562311,9.807847,-31.500002,-253.5,-143.2,-0.07391469,0.03970624,0.010995574,-1.0,0.0,0.0,0.017779058,0.16329128,-0.022876589
1588602763870,0.0011971008,-0.017956512,9.79827,-31.500002,-253.5,-143.2,-0.07269296,0.039095376,0.015271631,-1.0,0.0,0.0,0.017779058,0.16329128,-0.022876589
1588602763880,-0.011971008,-0.011971008,9.800665,-31.500002,-253.5,-143.2,-0.07574729,0.039095376,0.014049901,-1.0,0.0,0.0,0.017779337,0.16271016,-0.022777772
1588602763892,0.0047884034,-0.021547815,9.8042555,-31.500002,-253.5,-143.2,-0.07574729,0.03726278,0.014049901,-1.0,0.0,0.0,0.017779337,0.16271016,-0.022777772
1588602763900,-0.0035913025,-0.025139118,9.800665,-31.500002,-253.5,-143.3,-0.07452556,0.039095376,0.014049901,-1.0,0.0,0.0,0.017779337,0.16271016,-0.022777772
1588602763911,-0.0023942017,-0.023942016,9.799467,-31.500002,-253.5,-143.3,-0.07513642,0.03848451,0.015271631,-1.0,0.0,0.0,0.017779337,0.16271016,-0.022777772
1588602763923,-0.0011971008,-0.02633622,9.79827,-31.500002,-253.5,-143.2,-0.073303826,0.040317107,0.014660766,-1.0,0.0,0.0,0.017779337,0.16271016,-0.022777772
1588602763934,0.0023942017,-0.027533319,9.793482,-31.600002,-253.5,-143.2,-0.07391469,0.039095376,0.014660766,-1.0,0.0,0.0,0.017779337,0.16271016,-0.022777772
1588602763947,0.0023942017,-0.023942016,9.800665,-31.600002,-253.5,-143.2,-0.073303826,0.039095376,0.014660766,-1.0,0.0,0.0,0.017779337,0.16271016,-0.022777772
1588602763957,-0.011971008,-0.010773907,9.791088,-31.600002,-253.5,-143.2,-0.07391469,0.03970624,0.014049901,-1.0,0.0,0.0,0.017779337,0.16271016,-0.022777772
1588602763968,-0.008379706,-0.0023942017,9.8042555,-31.600002,-253.5,-143.2,-0.07452556,0.03970624,0.013439035,-1.0,0.0,0.0,0.01777945,0.16212201,-0.022738338
1588602763978,-0.0023942017,-0.01436521,9.8042555,-31.600002,-253.5,-143.2,-0.07513642,0.037873644,0.014660766,-1.0,0.0,0.0,0.01777959,0.16146344,-0.022688225
1588602763990,0.0035913025,-0.020350715,9.811439,-31.600002,-253.5,-143.2,-0.07452556,0.03848451,0.01282817,-1.0,0.0,0.0,0.01777959,0.16146344,-0.022688225
1588602764001,-0.0011971008,-0.017956512,9.79827,-31.600002,-253.5,-143.2,-0.076358154,0.036651913,0.01282817,-1.0,0.0,0.0,0.01777959,0.16146344,-0.022688225
1588602764011,-0.007182605,-0.021547815,9.79827,-31.600002,-253.5,-143.2,-0.07574729,0.03726278,0.015882496,-1.0,0.0,0.0,0.01777959,0.16146344,-0.022688225
1588602764026,0.0035913025,-0.022744916,9.799467,-31.600002,-253.5,-143.2,-0.073303826,0.03604105,0.01282817,-1.0,0.0,0.0,0.01777959,0.16146344,-0.022688225
1588602764035,0.0011971008,-0.016759412,9.807847,-31.600002,-253.5,-143.2,-0.07452556,0.03848451,0.015271631,-1.0,0.0,0.0,0.01777959,0.16146344,-0.022688225
1588602764045,0.0035913025,-0.017956512,9.800665,-31.600002,-253.5,-143.2,-0.07391469,0.039095376,0.014660766,-1.0,0.0,0.0,0.01777959,0.16146344,-0.022688225
1588602764057,0.007182605,-0.022744916,9.7958765,-31.600002,-253.5,-143.2,-0.076358154,0.03848451,0.014049901,-1.0,0.0,0.0,0.01777959,0.16146344,-0.022688225
1588602764066,-0.007182605,-0.019153614,9.792285,-31.600002,-253.5,-143.2,-0.07574729,0.039095376,0.016493361,-1.0,0.0,0.0,0.01777959,0.16146344,-0.022688225
1588602764078,0.0023942017,-0.02633622,9.7958765,-31.600002,-253.5,-143.3,-0.07452556,0.03848451,0.014049901,-1.0,0.0,0.0,0.01777959,0.16146344,-0.022688225
1588602764087,-0.0011971008,-0.025139118,9.801862,-31.600002,-253.5,-143.3,-0.07391469,0.03848451,0.013439035,-1.0,0.0,0.0,0.01777959,0.16146344,-0.022688225
1588602764098,-0.0035913025,-0.023942016,9.799467,-31.600002,-253.5,-143.2,-0.07513642,0.039095376,0.015271631,-1.0,0.0,0.0,0.01777959,0.16146344,-0.022688225
1588602764110,-0.005985504,-0.023942016,9.793482,-31.600002,-253.5,-143.2,-0.07513642,0.03970624,0.014660766,-1.0,0.0,0.0,0.01777959,0.16146344,-0.022688225
1588602764118,-0.005985504,-0.023942016,9.793482,-31.600002,-253.5,-143.2,-0.07452556,0.037873644,0.015882496,-1.0,0.0,0.0,0.01777959,0.16146344,-0.022688225
1588602764131,-0.0035913025,-0.019153614,9.797073,-31.600002,-253.5,-143.2,-0.07452556,0.039095376,0.012217305,-1.0,0.0,0.0,0.01777959,0.16146344,-0.022688225
1588602764141,-0.0035913025,-0.021547815,9.803059,-31.500002,-253.5,-143.09999,-0.07513642,0.036651913,0.015882496,-1.0,0.0,0.0,0.01777959,0.16146344,-0.022688225
1588602764153,-0.01436521,-0.01436521,9.79827,-31.500002,-253.5,-143.09999,-0.07513642,0.03726278,0.014660766,-1.0,0.0,0.0,0.01777959,0.16146344,-0.022688225
1588602764163,-0.01436521,-0.01316811,9.794679,-31.600002,-253.5,-143.09999,-0.073303826,0.037873644,0.016493361,-1.0,0.0,0.0,0.01777959,0.16146344,-0.022688225
1588602764175,-0.0011971008,-0.021547815,9.793482,-31.600002,-253.5,-143.0,-0.07513642,0.03848451,0.015271631,-1.0,0.0,0.0,0.01777959,0.16146344,-0.022688225
1588602764186,-0.005985504,-0.022744916,9.803059,-31.600002,-253.5,-143.0,-0.07513642,0.040927973,0.014660766,-1.0,0.0,0.0,0.01777959,0.16146344,-0.022688225
1588602764196,-0.01316811,-0.025139118,9.801862,-31.600002,-253.5,-143.09999,-0.07513642,0.040927973,0.014660766,-1.0,0.0,0.0,0.01777959,0.16146344,-0.022688225
1588602764210,0.0047884034,-0.025139118,9.801862,-31.600002,-253.5,-143.09999,-0.07391469,0.039095376,0.015882496,-1.0,0.0,0.0,0.01777959,0.16146344,-0.022688225
1588602764220,-0.007182605,-0.023942016,9.799467,-31.500002,-253.5,-143.09999,-0.073303826,0.037873644,0.01282817,-1.0,0.0,0.0,0.01777959,0.16146344,-0.022688225
1588602764232,0.0011971008,-0.025139118,9.7958765,-31.500002,-253.5,-143.09999,-0.07391469,0.037873644,0.013439035,-1.0,0.0,0.0,0.01777959,0.16146344,-0.022688225
1588602764243,0.0047884034,-0.021547815,9.805453,-31.500002,-253.4,-143.09999,-0.07513642,0.039095376,0.012217305,-1.0,0.0,0.0,0.01777959,0.16146344,-0.022688225
1588602764255,0.0011971008,-0.016759412,9.800665,-31.500002,-253.4,-143.09999,-0.07513642,0.03848451,0.013439035,-1.0,0.0,0.0,0.01777959,0.16146344,-0.022688225
1588602764267,0.0035913025,-0.019153614,9.7958765,-31.500002,-253.5,-143.09999,-0.07391469,0.039095376,0.015271631,-1.0,0.0,0.0,0.01777959,0.16146344,-0.022688225
1588602764278,0.007182605,-0.015562311,9.801862,-31.500002,-253.5,-143.09999,-0.076358154,0.040927973,0.01282817,-1.0,0.0,0.0,0.01777959,0.16146344,-0.022688225
1588602764289,-0.0035913025,-0.021547815,9.800665,-31.500002,-253.5,-143.09999,-0.07147124,0.036651913,0.014049901,-1.0,0.0,0.0,0.01777959,0.16146344,-0.022688225
1588602764300,-0.010773907,-0.021547815,9.788693,-31.500002,-253.5,-143.0,-0.07452556,0.03970624,0.01282817,-1.0,0.0,0.0,0.01777959,0.16146344,-0.022688225
1588602764310,0.0023942017,-0.021547815,9.805453,-31.500002,-253.5,-143.0,-0.07696902,0.036651913,0.015271631,-1.0,0.0,0.0,0.01777959,0.16146344,-0.022688225
1588602764320,0.0023942017,-0.02633622,9.793482,-31.500002,-253.5,-143.0,-0.073303826,0.03848451,0.014660766,-1.0,0.0,0.0,0.01777959,0.16146344,-0.022688225
1588602764331,0.0047884034,-0.021547815,9.797073,-31.500002,-253.5,-143.0,-0.07452556,0.03848451,0.014660766,-1.0,0.0,0.0,0.01777959,0.16146344,-0.022688225
1588602764341,0.0047884034,-0.016759412,9.799467,-31.400002,-253.5,-142.9,-0.07513642,0.03848451,0.014660766,-1.0,0.0,0.0,0.01777959,0.16146344,-0.022688225
1588602764353,-0.0023942017,-0.022744916,9.791088,-31.400002,-253.5,-142.9,-0.07574729,0.037873644,0.015271631,-1.0,0.0,0.0,0.01777959,0.16146344,-0.022688225
1588602764364,-0.007182605,-0.020350715,9.797073,-31.400002,-253.5,-142.9,-0.07391469,0.037873644,0.016493361,-1.0,0.0,0.0,0.01777959,0.16146344,-0.022688225
1588602764374,0.0023942017,-0.021547815,9.799467,-31.400002,-253.5,-142.9,-0.073303826,0.03848451,0.015271631,-1.0,0.0,0.0,0.01777959,0.16146344,-0.022688225
1588602764387,-0.0011971008,-0.01436521,9.79827,-31.400002,-253.6,-142.8,-0.07513642,0.03726278,0.014660766,-1.0,0.0,0.0,0.01777959,0.16146344,-0.022688225
1588602764397,-0.007182605,-0.025139118,9.793482,-31.500002,-253.6,-142.8,-0.076358154,0.037873644,0.014660766,-1.0,0.0,0.0,0.01777959,0.16146344,-0.022688225
1588602764407,0.0047884034,-0.020350715,9.8042555,-31.500002,-253.6,-142.8,-0.07269296,0.03848451,0.015882496,-1.0,0.0,0.0,0.01777959,0.16146344,-0.022688225
1588602764420,0.007182605,-0.017956512,9.7958765,-31.500002,-253.6,-142.7,-0.07452556,0.040317107,0.014049901,-1.0,0.0,0.0,0.01777959,0.16146344,-0.022688225
1588602764432,-0.0047884034,-0.019153614,9.807847,-31.500002,-253.6,-142.7,-0.07574729,0.03970624,0.014660766,-1.0,0.0,0.0,0.01777959,0.16146344,-0.022688225
1588602764442,-0.0035913025,-0.016759412,9.797073,-31.500002,-253.6,-142.7,-0.07513642,0.03726278,0.015271631,-1.0,0.0,0.0,0.01777959,0.16146344,-0.022688225
1588602764454,-0.0011971008,-0.021547815,9.791088,-31.500002,-253.6,-142.7,-0.07513642,0.039095376,0.015271631,-1.0,0.0,0.0,0.01777959,0.16146344,-0.022688225
1588602764465,-0.005985504,-0.017956512,9.793482,-31.500002,-253.6,-142.59999,-0.07269296,0.03848451,0.012217305,-1.0,0.0,0.0,0.01777959,0.16146344,-0.022688225
1588602764476,0.0047884034,-0.015562311,9.7863,-31.500002,-253.6,-142.59999,-0.07574729,0.03848451,0.013439035,-1.0,0.0,0.0,0.01777959,0.16146344,-0.022688225
1588602764487,-0.009576807,-0.021547815,9.791088,-31.500002,-253.6,-142.59999,-0.076358154,0.03848451,0.014660766,-1.0,0.0,0.0,0.01777959,0.16146344,-0.022688225
1588602764499,-0.005985504,-0.016759412,9.794679,-31.500002,-253.6,-142.59999,-0.073303826,0.03970624,0.014049901,-1.0,0.0,0.0,0.01777959,0.16146344,-0.022688225
1588602764509,0.0011971008,-0.023942016,9.794679,-31.500002,-253.6,-142.59999,-0.07513642,0.037873644,0.014660766,-1.0,0.0,0.0,0.01777959,0.16146344,-0.022688225
1588602764520,0.0011971008,-0.017956512,9.801862,-31.600002,-253.6,-142.5,-0.07452556,0.03970624,0.014660766,-1.0,0.0,0.0,0.01777959,0.16146344,-0.022688225
1588602764530,-0.0047884034,-0.019153614,9.799467,-31.600002,-253.6,-142.5,-0.07269296,0.039095376,0.015271631,-1.0,0.0,0.0,0.01777959,0.16146344,-0.022688225
1588602764542,0.0011971008,-0.025139118,9.7958765,-31.500002,-253.7,-142.5,-0.07391469,0.03970624,0.014049901,-1.0,0.0,0.0,0.01777959,0.16146344,-0.022688225
1588602764553,-0.0011971008,-0.020350715,9.799467,-31.500002,-253.7,-142.5,-0.07452556,0.037873644,0.014049901,-1.0,0.0,0.0,0.01777959,0.16146344,-0.022688225
1588602764565,-0.0023942017,-0.022744916,9.799467,-31.500002,-253.7,-142.5,-0.07147124,0.037873644,0.015271631,-1.0,0.0,0.0,0.01777959,0.16146344,-0.022688225
1588602764575,-0.0035913025,-0.027533319,9.799467,-31.500002,-253.6,-142.5,-0.07391469,0.03970624,0.015271631,-1.0,0.0,0.0,0.01777959,0.16146344,-0.022688225
1588602764586,0.0047884034,-0.022744916,9.799467,-31.500002,-253.6,-142.5,-0.07269296,0.037873644,0.015271631,-1.0,0.0,0.0,0.01777959,0.16146344,-0.022688225
1588602764596,-0.0047884034,-0.01316811,9.788693,-31.500002,-253.7,-142.4,-0.07269296,0.037873644,0.015271631,-1.0,0.0,0.0,0.01777959,0.16146344,-0.022688225
1588602764609,-0.0047884034,-0.016759412,9.8042555,-31.500002,-253.7,-142.4,-0.07269296,0.037873644,0.014049901,-1.0,0.0,0.0,0.01777959,0.16146344,-0.022688225
1588602764619,-0.0047884034,-0.022744916,9.793482,-31.500002,-253.6,-142.4,-0.07452556,0.040317107,0.014049901,-1.0,0.0,0.0,0.01777959,0.16146344,-0.022688225
1588602764629,-0.0011971008,-0.020350715,9.793482,-31.500002,-253.6,-142.4,-0.073303826,0.03848451,0.015271631,-1.0,0.0,0.0,0.01777959,0.16146344,-0.022688225
1588602764642,-0.009576807,-0.022744916,9.799467,-31.500002,-253.6,-142.4,-0.07452556,0.03970624,0.015882496,-1.0,0.0,0.0,0.01777959,0.16146344,-0.022688225
1588602764652,-0.009576807,-0.019153614,9.794679,-31.500002,-253.6,-142.4,-0.07696902,0.03848451,0.015271631,-1.0,0.0,0.0,0.01777959,0.16146344,-0.022688225
1588602764662,-0.0047884034,-0.027533319,9.78989,-31.500002,-253.6,-142.3,-0.07574729,0.039095376,0.013439035,-1.0,0.0,0.0,0.01777959,0.16146344,-0.022688225
1588602764675,-0.0047884034,-0.025139118,9.793482,-31.500002,-253.6,-142.3,-0.073303826,0.039095376,0.01282817,-1.0,0.0,0.0,0.01777959,0.16146344,-0.022688225
1588602764685,0.0047884034,-0.023942016,9.7958765,-31.500002,-253.6,-142.3,-0.07513642,0.039095376,0.014660766,-1.0,0.0,0.0,0.01777959,0.16146344,-0.022688225
1588602764697,-0.0011971008,-0.021547815,9.793482,-31.500002,-253.6,-142.4,-0.07391469,0.03848451,0.015271631,-1.0,0.0,0.0,0.01777959,0.16146344,-0.022688225
1588602764707,-0.0011971008,-0.025139118,9.792285,-31.500002,-253.6,-142.4,-0.07574729,0.03726278,0.014049901,-1.0,0.0,0.0,0.01777959,0.16146344,-0.022688225
1588602764719,-0.009576807,-0.022744916,9.793482,-31.500002,-253.6,-142.4,-0.07391469,0.03848451,0.015882496,-1.0,0.0,0.0,0.01777959,0.16146344,-0.022688225
1588602764730,0.0035913025,-0.020350715,9.797073,-31.500002,-253.6,-142.4,-0.07452556,0.036651913,0.014660766,-1.0,0.0,0.0,0.01777959,0.16146344,-0.022688225
1588602764743,0.0035913025,-0.017956512,9.800665,-31.600002,-253.7,-142.3,-0.073303826,0.037873644,0.014049901,-1.0,0.0,0.0,0.01777959,0.16146344,-0.022688225
1588602764753,0.0011971008,-0.019153614,9.801862,-31.600002,-253.7,-142.3,-0.07452556,0.03970624,0.015271631,-1.0,0.0,0.0,0.01777959,0.16146344,-0.022688225
1588602764764,-0.0035913025,-0.019153614,9.793482,-31.500002,-253.7,-142.3,-0.076358154,0.03848451,0.016493361,-1.0,0.0,0.0,0.01777959,0.16146344,-0.022688225
1588602764774,-0.005985504,-0.025139118,9.7958765,-31.500002,-253.7,-142.3,-0.07391469,0.037873644,0.014049901,-1.0,0.0,0.0,0.01777959,0.16146344,-0.022688225
1588602764786,0.011971008,-0.023942016,9.792285,-31.600002,-253.7,-142.3,-0.07574729,0.03848451,0.013439035,-1.0,0.0,0.0,0.01777959,0.16146344,-0.022688225
1588602764796,0.0035913025,-0.016759412,9.79827,-31.600002,-253.7,-142.3,-0.073303826,0.039095376,0.015271631,-1.0,0.0,0.0,0.01777959,0.16146344,-0.022688225
1588602764808,-0.010773907,-0.008379706,9.7958765,-31.600002,-253.7,-142.3,-0.073303826,0.037873644,0.014660766,-1.0,0.0,0.0,0.01777959,0.16146344,-0.022688225
1588602764818,-0.019153614,-0.007182605,9.799467,-31.600002,-253.7,-142.3,-0.07452556,0.03726278,0.013439035,-1.0,0.0,0.0,0.017779525,0.1608026,-0.02271129
1588602764830,-0.011971008,-0.019153614,9.800665,-31.600002,-253.7,-142.3,-0.073303826,0.03604105,0.014049901,-1.0,0.0,0.0,0.017778885,0.15964901,-0.022940325
1588602764841,-0.0023942017,-0.022744916,9.800665,-31.600002,-253.7,-142.3,-0.07391469,0.036651913,0.014049901,-1.0,0.0,0.0,0.017778885,0.15964901,-0.022940325
1588602764851,0.008379706,-0.025139118,9.800665,-31.600002,-253.7,-142.3,-0.07513642,0.04153884,0.014049901,-1.0,0.0,0.0,0.017778885,0.15964901,-0.022940325
1588602764863,0.008379706,-0.025139118,9.794679,-31.600002,-253.7,-142.3,-0.07513642,0.03726278,0.013439035,-1.0,0.0,0.0,0.017778885,0.15964901,-0.022940325
1588602764875,0.008379706,-0.023942016,9.793482,-31.600002,-253.7,-142.3,-0.07269296,0.03726278,0.014660766,-1.0,0.0,0.0,0.017778885,0.15964901,-0.022940325
1588602764885,0.008379706,-0.019153614,9.7958765,-31.600002,-253.6,-142.3,-0.073303826,0.03970624,0.01282817,-1.0,0.0,0.0,0.017778885,0.15964901,-0.022940325
1588602764897,-0.0047884034,-0.023942016,9.79827,-31.600002,-253.6,-142.4,-0.07574729,0.037873644,0.014049901,-1.0,0.0,0.0,0.017778885,0.15964901,-0.022940325
1588602764907,-0.007182605,-0.01436521,9.791088,-31.600002,-253.6,-142.4,-0.07452556,0.03848451,0.014660766,-1.0,0.0,0.0,0.017778885,0.15964901,-0.022940325
1588602764920,-0.009576807,-0.020350715,9.8042555,-31.600002,-253.6,-142.3,-0.07452556,0.03970624,0.015882496,-1.0,0.0,0.0,0.017778885,0.15964901,-0.022940325
1588602764930,-0.011971008,-0.01436521,9.7863,-31.600002,-253.6,-142.3,-0.07269296,0.03970624,0.015271631,-1.0,0.0,0.0,0.017778885,0.15964901,-0.022940325
1588602764940,0.0035913025,-0.025139118,9.793482,-31.600002,-253.6,-142.4,-0.07391469,0.039095376,0.013439035,-1.0,0.0,0.0,0.017778885,0.15964901,-0.022940325
1588602764952,0.008379706,-0.023942016,9.793482,-31.600002,-253.6,-142.4,-0.073303826,0.03726278,0.014660766,-1.0,0.0,0.0,0.017778885,0.15964901,-0.022940325
1588602764963,0.0011971008,-0.022744916,9.800665,-31.600002,-253.6,-142.4,-0.07269296,0.03726278,0.014660766,-1.0,0.0,0.0,0.017778885,0.15964901,-0.022940325
1588602764973,0.0023942017,-0.023942016,9.800665,-31.600002,-253.6,-142.4,-0.076358154,0.03848451,0.015271631,-1.0,0.0,0.0,0.017778885,0.15964901,-0.022940325
1588602764987,-0.007182605,-0.020350715,9.794679,-31.600002,-253.6,-142.4,-0.07452556,0.036651913,0.014049901,-1.0,0.0,0.0,0.017778885,0.15964901,-0.022940325
1588602764997,-0.007182605,-0.015562311,9.794679,-31.600002,-253.6,-142.5,-0.07452556,0.03970624,0.014049901,-1.0,0.0,0.0,0.017778885,0.15964901,-0.022940325
1588602765010,-0.01316811,-0.022744916,9.78989,-31.600002,-253.6,-142.5,-0.076358154,0.03726278,0.013439035,-1.0,0.0,0.0,0.017778885,0.15964901,-0.022940325
1588602765021,-0.01316811,-0.010773907,9.801862,-31.600002,-253.6,-142.59999,-0.07452556,0.03848451,0.014049901,-1.0,0.0,0.0,0.017778885,0.15964901,-0.022940325
1588602765031,-0.005985504,-0.020350715,9.7958765,-31.600002,-253.6,-142.59999,-0.073303826,0.039095376,0.013439035,-1.0,0.0,0.0,0.017778885,0.15964901,-0.022940325
1588602765041,-0.0023942017,-0.025139118,9.800665,-31.600002,-253.6,-142.59999,-0.07574729,0.03970624,0.014660766,-1.0,0.0,0.0,0.017778885,0.15964901,-0.022940325
1588602765053,-0.005985504,-0.009576807,9.793482,-31.600002,-253.6,-142.59999,-0.07391469,0.03726278,0.012217305,-1.0,0.0,0.0,0.017778885,0.15964901,-0.022940325
1588602765064,-0.0023942017,-0.020350715,9.788693,-31.600002,-253.6,-142.59999,-0.0720821,0.03848451,0.014049901,-1.0,0.0,0.0,0.017778885,0.15964901,-0.022940325
1588602765074,-0.0047884034,-0.023942016,9.794679,-31.600002,-253.6,-142.59999,-0.073303826,0.03848451,0.01282817,-1.0,0.0,0.0,0.017778885,0.15964901,-0.022940325
1588602765087,-0.0011971008,-0.023942016,9.792285,-31.500002,-253.6,-142.59999,-0.07452556,0.036651913,0.01282817,-1.0,0.0,0.0,0.017778885,0.15964901,-0.022940325
1588602765098,-0.007182605,-0.01316811,9.792285,-31.500002,-253.6,-142.59999,-0.076358154,0.039095376,0.015271631,-1.0,0.0,0.0,0.017778885,0.15964901,-0.022940325
1588602765108,0.0011971008,-0.023942016,9.799467,-31.500002,-253.6,-142.59999,-0.07574729,0.03726278,0.014660766,-1.0,0.0,0.0,0.017778885,0.15964901,-0.022940325
1588602765121,-0.0035913025,-0.021547815,9.7958765,-31.500002,-253.6,-142.59999,-0.07269296,0.037873644,0.013439035,-1.0,0.0,0.0,0.017778885,0.15964901,-0.022940325
1588602765131,0.0023942017,-0.022744916,9.797073,-31.500002,-253.6,-142.59999,-0.07452556,0.037873644,0.015882496,-1.0,0.0,0.0,0.017778885,0.15964901,-0.022940325
1588602765141,-0.0011971008,-0.02633622,9.797073,-31.500002,-253.6,-142.59999,-0.07513642,0.039095376,0.014049901,-1.0,0.0,0.0,0.017778885,0.15964901,-0.022940325
1588602765154,0.0023942017,-0.023942016,9.801862,-31.500002,-253.6,-142.59999,-0.07513642,0.039095376,0.015882496,-1.0,0.0,0.0,0.017778885,0.15964901,-0.022940325
1588602765165,0.007182605,-0.025139118,9.797073,-31.600002,-253.6,-142.59999,-0.07452556,0.036651913,0.014660766,-1.0,0.0,0.0,0.017778885,0.15964901,-0.022940325
1588602765175,-0.0047884034,-0.017956512,9.793482,-31.600002,-253.6,-142.59999,-0.07513642,0.039095376,0.014049901,-1.0,0.0,0.0,0.017778885,0.15964901,-0.022940325
1588602765186,-0.0047884034,-0.023942016,9.800665,-31.600002,-253.6,-142.59999,-0.07574729,0.035430185,0.013439035,-1.0,0.0,0.0,0.017778885,0.15964901,-0.022940325
1588602765196,-0.009576807,-0.021547815,9.78989,-31.600002,-253.6,-142.7,-0.07452556,0.040317107,0.014049901,-1.0,0.0,0.0,0.017778885,0.15964901,-0.022940325
1588602765208,-0.0023942017,-0.021547815,9.793482,-31.600002,-253.6,-142.7,-0.07391469,0.03726278,0.013439035,-1.0,0.0,0.0,0.017778885,0.15964901,-0.022940325
1588602765219,-0.008379706,-0.015562311,9.788693,-31.600002,-253.6,-142.8,-0.07147124,0.03604105,0.014660766,-1.0,0.0,0.0,0.017778885,0.15964901,-0.022940325
1588602765229,-0.0023942017,-0.020350715,9.797073,-31.600002,-253.6,-142.8,-0.076358154,0.036651913,0.015271631,-1.0,0.0,0.0,0.017778885,0.15964901,-0.022940325
1588602765242,-0.0023942017,-0.019153614,9.807847,-31.600002,-253.6,-142.8,-0.07574729,0.037873644,0.013439035,-1.0,0.0,0.0,0.017778885,0.15964901,-0.022940325
1588602765252,-0.0047884034,-0.019153614,9.791088,-31.600002,-253.6,-142.8,-0.073303826,0.039095376,0.015271631,-1.0,0.0,0.0,0.017778885,0.15964901,-0.022940325
1588602765264,-0.010773907,-0.017956512,9.797073,-31.600002,-253.6,-142.8,-0.0720821,0.03726278,0.014049901,-1.0,0.0,0.0,0.017778885,0.15964901,-0.022940325
1588602765274,-0.009576807,-0.01436521,9.791088,-31.600002,-253.6,-142.8,-0.073303826,0.03726278,0.015271631,-1.0,0.0,0.0,0.017778885,0.15964901,-0.022940325
1588602765286,-0.008379706,-0.022744916,9.7958765,-31.600002,-253.6,-142.8,-0.07513642,0.037873644,0.014049901,-1.0,0.0,0.0,0.017778885,0.15964901,-0.022940325
1588602765297,-0.0011971008,-0.023942016,9.794679,-31.600002,-253.7,-142.9,-0.073303826,0.03848451,0.014660766,-1.0,0.0,0.0,0.017778885,0.15964901,-0.022940325
1588602765307,-0.007182605,-0.021547815,9.792285,-31.600002,-253.7,-142.9,-0.07391469,0.03726278,0.014049901,-1.0,0.0,0.0,0.017778885,0.15964901,-0.022940325
1588602765319,-0.0023942017,-0.017956512,9.800665,-31.600002,-253.7,-142.9,-0.07513642,0.03848451,0.015882496,-1.0,0.0,0.0,0.017778885,0.15964901,-0.022940325
1588602765329,0.005985504,-0.022744916,9.791088,-31.600002,-253.7,-142.9,-0.076358154,0.036651913,0.013439035,-1.0,0.0,0.0,0.017778885,0.15964901,-0.022940325
1588602765342,0.005985504,-0.020350715,9.794679,-31.600002,-253.7,-142.9,-0.07452556,0.037873644,0.014049901,-1.0,0.0,0.0,0.017778885,0.15964901,-0.022940325
1588602765352,0.0023942017,-0.022744916,9.794679,-31.600002,-253.7,-142.9,-0.07574729,0.036651913,0.014049901,-1.0,0.0,0.0,0.017778885,0.15964901,-0.022940325
1588602765362,0.0035913025,-0.023942016,9.800665,-31.600002,-253.7,-143.0,-0.07391469,0.039095376,0.014049901,-1.0,0.0,0.0,0.017778885,0.15964901,-0.022940325
1588602765375,0.0035913025,-0.019153614,9.800665,-31.600002,-253.7,-143.0,-0.07513642,0.039095376,0.017104227,-1.0,0.0,0.0,0.017778885,0.15964901,-0.022940325
1588602765385,-0.0035913025,-0.022744916,9.807847,-31.600002,-253.7,-142.9,-0.07269296,0.03970624,0.013439035,-1.0,0.0,0.0,0.017778885,0.15964901,-0.022940325
1588602765396,-0.009576807,-0.022744916,9.792285,-31.600002,-253.7,-142.9,-0.07391469,0.03848451,0.014049901,-1.0,0.0,0.0,0.017778885,0.15964901,-0.022940325
1588602765406,-0.0011971008,-0.01316811,9.788693,-31.600002,-253.7,-142.9,-0.07452556,0.040317107,0.01282817,-1.0,0.0,0.0,0.017778885,0.15964901,-0.022940325
1588602765419,0.0011971008,-0.022744916,9.801862,-31.600002,-253.7,-142.9,-0.07147124,0.036651913,0.015271631,-1.0,0.0,0.0,0.017778885,0.15964901,-0.022940325
1588602765431,-0.0035913025,-0.021547815,9.7958765,-31.600002,-253.7,-142.9,-0.07452556,0.039095376,0.013439035,-1.0,0.0,0.0,0.017778885,0.15964901,-0.022940325
1588602765440,-0.0047884034,-0.016759412,9.79827,-31.600002,-253.8,-142.9,-0.07269296,0.039095376,0.014049901,-1.0,0.0,0.0,0.017778885,0.15964901,-0.022940325
1588602765454,0.0035913025,-0.022744916,9.7958765,-31.600002,-253.8,-142.9,-0.07391469,0.03604105,0.015271631,-1.0,0.0,0.0,0.017778885,0.15964901,-0.022940325
1588602765464,-0.0047884034,-0.023942016,9.799467,-31.500002,-253.7,-143.0,-0.07391469,0.037873644,0.016493361,-1.0,0.0,0.0,0.017778885,0.15964901,-0.022940325
1588602765473,-0.008379706,-0.020350715,9.794679,-31.500002,-253.7,-143.0,-0.07391469,0.03604105,0.015271631,-1.0,0.0,0.0,0.017778885,0.15964901,-0.022940325
1588602765484,-0.005985504,-0.021547815,9.7958765,-31.500002,-253.7,-143.0,-0.07574729,0.039095376,0.015271631,-1.0,0.0,0.0,0.017778885,0.15964901,-0.022940325
1588602765495,-0.01316811,-0.007182605,9.8042555,-31.500002,-253.8,-143.0,-0.07391469,0.03848451,0.015271631,-1.0,0.0,0.0,0.017778885,0.15964901,-0.022940325
1588602765506,-0.008379706,-0.022744916,9.788693,-31.500002,-253.8,-143.0,-0.07391469,0.03726278,0.015882496,-1.0,0.0,0.0,0.017778885,0.15964901,-0.022940325
1588602765517,-0.009576807,-0.015562311,9.805453,-31.500002,-253.8,-143.09999,-0.073303826,0.03726278,0.014049901,-1.0,0.0,0.0,0.017778885,0.15964901,-0.022940325
1588602765528,-0.0023942017,-0.020350715,9.791088,-31.500002,-253.8,-143.09999,-0.07269296,0.037873644,0.014660766,-1.0,0.0,0.0,0.017778885,0.15964901,-0.022940325
1588602765540,-0.0023942017,-0.025139118,9.793482,-31.500002,-253.8,-143.09999,-0.07147124,0.037873644,0.014660766,-1.0,0.0,0.0,0.017778885,0.15964901,-0.022940325
1588602765553,0.0023942017,-0.021547815,9.7958765,-31.500002,-253.8,-143.09999,-0.07452556,0.03970624,0.014049901,-1.0,0.0,0.0,0.017778885,0.15964901,-0.022940325
1588602765560,0.01316811,-0.023942016,9.793482,-31.600002,-253.8,-143.0,-0.07452556,0.03848451,0.015271631,-1.0,0.0,0.0,0.017778885,0.15964901,-0.022940325
1588602765572,-0.0035913025,-0.022744916,9.794679,-31.600002,-253.8,-143.0,-0.07269296,0.039095376,0.014049901,-1.0,0.0,0.0,0.017778885,0.15964901,-0.022940325
1588602765585,-0.0047884034,-0.01436521,9.79827,-31.600002,-253.8,-142.9,-0.07452556,0.037873644,0.015882496,-1.0,0.0,0.0,0.017778885,0.15964901,-0.022940325
1588602765596,-0.005985504,-0.021547815,9.78989,-31.600002,-253.8,-142.9,-0.076358154,0.03726278,0.015882496,-1.0,0.0,0.0,0.017778885,0.15964901,-0.022940325
1588602765606,-0.0035913025,-0.023942016,9.805453,-31.600002,-253.8,-142.9,-0.073303826,0.03726278,0.013439035,-1.0,0.0,0.0,0.017778885,0.15964901,-0.022940325
1588602765616,-0.008379706,-0.01316811,9.787497,-31.600002,-253.8,-142.9,-0.07269296,0.03970624,0.016493361,-1.0,0.0,0.0,0.017778885,0.15964901,-0.022940325
1588602765628,-0.0035913025,-0.023942016,9.78989,-31.600002,-253.8,-142.9,-0.07391469,0.03848451,0.017104227,-1.0,0.0,0.0,0.017778885,0.15964901,-0.022940325
1588602765638,0.0023942017,-0.023942016,9.797073,-31.600002,-253.8,-142.8,-0.073303826,0.039095376,0.014049901,-1.0,0.0,0.0,0.017778885,0.15964901,-0.022940325
1588602765651,0.0047884034,-0.022744916,9.800665,-31.600002,-253.8,-142.8,-0.07391469,0.040317107,0.014049901,-1.0,0.0,0.0,0.017778885,0.15964901,-0.022940325
1588602765661,0.0047884034,-0.019153614,9.79827,-31.600002,-253.8,-142.9,-0.07452556,0.039095376,0.013439035,-1.0,0.0,0.0,0.017778885,0.15964901,-0.022940325
1588602765673,-0.01436521,-0.011971008,9.794679,-31.600002,-253.8,-142.9,-0.073303826,0.040317107,0.014660766,-1.0,0.0,0.0,0.017778885,0.15964901,-0.022940325
1588602765685,-0.0023942017,-0.022744916,9.793482,-31.600002,-253.8,-142.9,-0.07452556,0.037873644,0.013439035,-1.0,0.0,0.0,0.017778885,0.15964901,-0.022940325
1588602765696,-0.0023942017,-0.019153614,9.800665,-31.7,-253.8,-142.9,-0.07574729,0.03848451,0.014660766,-1.0,0.0,0.0,0.017778885,0.15964901,-0.022940325
1588602765706,-0.0011971008,-0.021547815,9.792285,-31.7,-253.8,-142.9,-0.07391469,0.037873644,0.017104227,-1.0,0.0,0.0,0.017778885,0.15964901,-0.022940325
1588602765716,-0.0047884034,-0.020350715,9.797073,-31.600002,-253.7,-142.9,-0.073303826,0.03604105,0.014049901,-1.0,0.0,0.0,0.017778885,0.15964901,-0.022940325
1588602765730,-0.0047884034,-0.01436521,9.788693,-31.600002,-253.7,-142.9,-0.07452556,0.03848451,0.014049901,-1.0,0.0,0.0,0.017778885,0.15964901,-0.022940325
1588602765740,-0.0047884034,-0.022744916,9.797073,-31.600002,-253.7,-143.0,-0.07391469,0.039095376,0.014660766,-1.0,0.0,0.0,0.017778885,0.15964901,-0.022940325
1588602765750,-0.0023942017,-0.023942016,9.792285,-31.600002,-253.7,-143.0,-0.07391469,0.037873644,0.013439035,-1.0,0.0,0.0,0.017778885,0.15964901,-0.022940325
1588602765760,-0.01316811,-0.01316811,9.7958765,-31.600002,-253.7,-143.0,-0.07513642,0.037873644,0.01160644,-1.0,0.0,0.0,0.017778885,0.15964901,-0.022940325
1588602765772,0.0035913025,-0.015562311,9.803059,-31.600002,-253.7,-143.0,-0.076358154,0.03848451,0.015271631,-1.0,0.0,0.0,0.017778885,0.15964901,-0.022940325
1588602765782,-0.0047884034,-0.011971008,9.794679,-31.600002,-253.7,-143.0,-0.07696902,0.03848451,0.016493361,-1.0,0.0,0.0,0.017778885,0.15964901,-0.022940325
1588602765793,-0.0011971008,-0.023942016,9.794679,-31.600002,-253.7,-143.0,-0.07452556,0.03970624,0.014049901,-1.0,0.0,0.0,0.017778885,0.15964901,-0.022940325
1588602765803,-0.0023942017,-0.016759412,9.797073,-31.600002,-253.7,-142.9,-0.076358154,0.03848451,0.015882496,-1.0,0.0,0.0,0.017778885,0.15964901,-0.022940325
1588602765816,-0.0011971008,-0.017956512,9.800665,-31.500002,-253.7,-142.9,-0.07269296,0.037873644,0.014660766,-1.0,0.0,0.0,0.017778885,0.15964901,-0.022940325
1588602765827,-0.0035913025,-0.023942016,9.797073,-31.500002,-253.7,-142.9,-0.07391469,0.039095376,0.014049901,-1.0,0.0,0.0,0.017778885,0.15964901,-0.022940325
1588602765837,-0.0047884034,-0.025139118,9.78989,-31.500002,-253.7,-142.9,-0.07391469,0.03604105,0.014049901,-1.0,0.0,0.0,0.017778885,0.15964901,-0.022940325
1588602765847,-0.0035913025,-0.021547815,9.80665,-31.500002,-253.7,-142.9,-0.07513642,0.03848451,0.014660766,-1.0,0.0,0.0,0.017778885,0.15964901,-0.022940325
1588602765859,-0.0011971008,-0.021547815,9.797073,-31.500002,-253.6,-142.8,-0.076358154,0.03726278,0.013439035,-1.0,0.0,0.0,0.017778885,0.15964901,-0.022940325
1588602765870,0.005985504,-0.022744916,9.803059,-31.500002,-253.6,-142.8,-0.07574729,0.039095376,0.014660766,-1.0,0.0,0.0,0.017778885,0.15964901,-0.022940325
1588602765880,-0.005985504,-0.017956512,9.797073,-31.500002,-253.6,-142.8,-0.07513642,0.03848451,0.012217305,-1.0,0.0,0.0,0.017778885,0.15964901,-0.022940325
1588602765892,-0.007182605,-0.009576807,9.788693,-31.500002,-253.6,-142.8,-0.07391469,0.037873644,0.013439035,-1.0,0.0,0.0,0.017778885,0.15964901,-0.022940325
1588602765902,-0.010773907,-0.02633622,9.794679,-31.500002,-253.6,-142.8,-0.07513642,0.040317107,0.014049901,-1.0,0.0,0.0,0.017778885,0.15964901,-0.022940325
1588602765914,-0.0023942017,-0.021547815,9.801862,-31.500002,-253.6,-142.8,-0.07452556,0.039095376,0.015882496,-1.0,0.0,0.0,0.017778885,0.15964901,-0.022940325
1588602765925,-0.005985504,-0.021547815,9.792285,-31.500002,-253.6,-142.8,-0.073303826,0.039095376,0.014049901,-1.0,0.0,0.0,0.017778885,0.15964901,-0.022940325
1588602765935,-0.0047884034,-0.019153614,9.79827,-31.500002,-253.6,-142.8,-0.07391469,0.037873644,0.014660766,-1.0,0.0,0.0,0.017778885,0.15964901,-0.022940325
1588602765948,-0.01436521,-0.010773907,9.788693,-31.500002,-253.6,-142.9,-0.07452556,0.039095376,0.014660766,-1.0,0.0,0.0,0.017778885,0.15964901,-0.022940325
1588602765959,-0.010773907,-0.020350715,9.793482,-31.500002,-253.6,-142.9,-0.07452556,0.03848451,0.014660766,-1.0,0.0,0.0,0.017778885,0.15964901,-0.022940325
1588602765970,-0.008379706,-0.020350715,9.793482,-31.500002,-253.6,-142.9,-0.07391469,0.037873644,0.014049901,-1.0,0.0,0.0,0.017778885,0.15964901,-0.022940325
1588602765980,-0.007182605,-0.016759412,9.788693,-31.500002,-253.5,-142.9,-0.073303826,0.03726278,0.015882496,-1.0,0.0,0.0,0.017778885,0.15964901,-0.022940325
1588602765990,-0.0035913025,-0.022744916,9.792285,-31.500002,-253.5,-142.9,-0.073303826,0.039095376,0.014049901,-1.0,0.0,0.0,0.017778885,0.15964901,-0.022940325
1588602766002,-0.007182605,-0.019153614,9.787497,-31.500002,-253.5,-142.9,-0.07513642,0.037873644,0.01160644,-1.0,0.0,0.0,0.017778885,0.15964901,-0.022940325
1588602766013,-0.008379706,-0.023942016,9.791088,-31.500002,-253.5,-142.9,-0.07452556,0.039095376,0.013439035,-1.0,0.0,0.0,0.017778885,0.15964901,-0.022940325
1588602766025,-0.007182605,-0.021547815,9.788693,-31.500002,-253.5,-142.8,-0.07452556,0.03848451,0.015271631,-1.0,0.0,0.0,0.017778885,0.15964901,-0.022940325
1588602766034,-0.005985504,-0.022744916,9.8042555,-31.500002,-253.5,-142.8,-0.076358154,0.03970624,0.014660766,-1.0,0.0,0.0,0.017778885,0.15964901,-0.022940325
1588602766046,-0.011971008,-0.020350715,9.794679,-31.500002,-253.5,-142.8,-0.07574729,0.03848451,0.014660766,-1.0,0.0,0.0,0.017778885,0.15964901,-0.022940325
1588602766055,-0.0011971008,-0.017956512,9.797073,-31.500002,-253.5,-142.8,-0.07574729,0.03848451,0.014660766,-1.0,0.0,0.0,0.017778885,0.15964901,-0.022940325
1588602766066,0.0023942017,-0.016759412,9.800665,-31.500002,-253.5,-142.8,-0.07391469,0.037873644,0.014049901,-1.0,0.0,0.0,0.017778885,0.15964901,-0.022940325
1588602766077,0.0023942017,-0.023942016,9.799467,-31.600002,-253.5,-142.8,-0.07452556,0.039095376,0.014049901,-1.0,0.0,0.0,0.017778885,0.15964901,-0.022940325
1588602766090,0.0011971008,-0.023942016,9.794679,-31.600002,-253.5,-142.8,-0.07452556,0.039095376,0.013439035,-1.0,0.0,0.0,0.017778885,0.15964901,-0.022940325
1588602766100,0.0011971008,-0.019153614,9.800665,-31.600002,-253.5,-142.7,-0.07452556,0.03726278,0.013439035,-1.0,0.0,0.0,0.017778885,0.15964901,-0.022940325
1588602766114,0.0047884034,-0.025139118,9.793482,-31.600002,-253.5,-142.7,-0.07269296,0.039095376,0.014660766,-1.0,0.0,0.0,0.017778885,0.15964901,-0.022940325
1588602766123,-0.0047884034,-0.022744916,9.799467,-31.600002,-253.5,-142.7,-0.07269296,0.039095376,0.015271631,-1.0,0.0,0.0,0.017778885,0.15964901,-0.022940325
1588602766133,-0.0023942017,-0.007182605,9.785102,-31.600002,-253.5,-142.7,-0.07452556,0.03726278,0.014049901,-1.0,0.0,0.0,0.017778885,0.15964901,-0.022940325
1588602766148,-0.0011971008,-0.020350715,9.793482,-31.600002,-253.5,-142.7,-0.073303826,0.03726278,0.015882496,-1.0,0.0,0.0,0.017778885,0.15964901,-0.022940325
1588602766158,-0.007182605,-0.011971008,9.7863,-31.500002,-253.5,-142.7,-0.073303826,0.03726278,0.014660766,-1.0,0.0,0.0,0.017778885,0.15964901,-0.022940325
1588602766168,-0.005985504,-0.017956512,9.79827,-31.500002,-253.5,-142.7,-0.07452556,0.040317107,0.013439035,-1.0,0.0,0.0,0.017778885,0.15964901,-0.022940325
1588602766177,-0.005985504,-0.01316811,9.799467,-31.500002,-253.5,-142.7,-0.07391469,0.03848451,0.015271631,-1.0,0.0,0.0,0.017778885,0.15964901,-0.022940325
1588602766188,-0.0035913025,-0.016759412,9.78989,-31.500002,-253.5,-142.7,-0.07391469,0.03848451,0.013439035,-1.0,0.0,0.0,0.01777891,0.15906033,-0.022930808
1588602766199,-0.010773907,-0.01436521,9.799467,-31.500002,-253.4,-142.8,-0.07391469,0.037873644,0.014049901,-1.0,0.0,0.0,0.017778784,0.15847278,-0.02297602
1588602766210,-0.0047884034,-0.025139118,9.78989,-31.500002,-253.4,-142.8,-0.073303826,0.039095376,0.015271631,-1.0,0.0,0.0,0.017778784,0.15847278,-0.02297602
1588602766220,0.007182605,-0.023942016,9.794679,-31.400002,-253.4,-142.8,-0.07452556,0.03726278,0.015271631,-1.0,0.0,0.0,0.017778784,0.15847278,-0.02297602
1588602766233,-0.005985504,-0.023942016,9.7958765,-31.400002,-253.4,-142.8,-0.07452556,0.03848451,0.013439035,-1.0,0.0,0.0,0.017778784,0.15847278,-0.02297602
1588602766245,0.007182605,-0.023942016,9.79827,-31.400002,-253.5,-142.8,-0.07513642,0.03970624,0.014049901,-1.0,0.0,0.0,0.017778784,0.15847278,-0.02297602
1588602766255,0.0023942017,-0.023942016,9.797073,-31.400002,-253.5,-142.8,-0.073303826,0.03726278,0.015882496,-1.0,0.0,0.0,0.017778784,0.15847278,-0.02297602
1588602766265,-0.015562311,-0.011971008,9.78989,-31.400002,-253.5,-142.7,-0.07452556,0.03726278,0.014049901,-1.0,0.0,0.0,0.017778784,0.15847278,-0.02297602
1588602766276,0.0023942017,-0.020350715,9.80665,-31.300001,-253.4,-142.7,-0.07513642,0.039095376,0.013439035,-1.0,0.0,0.0,0.017778784,0.15847278,-0.02297602
1588602766286,-0.008379706,-0.021547815,9.791088,-31.300001,-253.4,-142.7,-0.07513642,0.03726278,0.014660766,-1.0,0.0,0.0,0.017778784,0.15847278,-0.02297602
1588602766299,-0.008379706,-0.023942016,9.791088,-31.300001,-253.4,-142.7,-0.07513642,0.035430185,0.015882496,-1.0,0.0,0.0,0.017778784,0.15847278,-0.02297602
1588602766310,-0.008379706,-0.019153614,9.799467,-31.300001,-253.4,-142.7,-0.07513642,0.037873644,0.014660766,-1.0,0.0,0.0,0.017778784,0.15847278,-0.02297602
1588602766320,-0.008379706,-0.021547815,9.792285,-31.300001,-253.5,-142.7,-0.076358154,0.03848451,0.015271631,-1.0,0.0,0.0,0.017778784,0.15847278,-0.02297602
1588602766332,-0.008379706,-0.015562311,9.801862,-31.300001,-253.5,-142.7,-0.073303826,0.03970624,0.013439035,-1.0,0.0,0.0,0.017778784,0.15847278,-0.02297602
1588602766342,-0.0035913025,-0.023942016,9.79827,-31.300001,-253.5,-142.7,-0.07574729,0.037873644,0.015271631,-1.0,0.0,0.0,0.017778784,0.15847278,-0.02297602
1588602766354,-0.0047884034,-0.023942016,9.803059,-31.300001,-253.5,-142.7,-0.073303826,0.03848451,0.013439035,-1.0,0.0,0.0,0.017778784,0.15847278,-0.02297602
1588602766365,-0.0035913025,-0.020350715,9.801862,-31.300001,-253.5,-142.7,-0.07452556,0.037873644,0.014049901,-1.0,0.0,0.0,0.017778784,0.15847278,-0.02297602
1588602766375,-0.0035913025,-0.016759412,9.794679,-31.300001,-253.5,-142.7,-0.07452556,0.03726278,0.015271631,-1.0,0.0,0.0,0.017778784,0.15847278,-0.02297602
1588602766387,-0.010773907,-0.019153614,9.797073,-31.300001,-253.5,-142.7,-0.07452556,0.039095376,0.016493361,-1.0,0.0,0.0,0.017778784,0.15847278,-0.02297602
1588602766398,-0.0023942017,-0.022744916,9.791088,-31.300001,-253.5,-142.7,-0.07513642,0.037873644,0.015882496,-1.0,0.0,0.0,0.017778784,0.15847278,-0.02297602
1588602766408,0.0035913025,-0.023942016,9.793482,-31.300001,-253.5,-142.7,-0.073303826,0.03848451,0.01282817,-1.0,0.0,0.0,0.017778784,0.15847278,-0.02297602
1588602766421,-0.019153614,-0.010773907,9.791088,-31.300001,-253.5,-142.59999,-0.07452556,0.03970624,0.016493361,-1.0,0.0,0.0,0.017778218,0.15792082,-0.023182027
1588602766431,-0.009576807,-0.011971008,9.79827,-31.300001,-253.5,-142.59999,-0.07269296,0.036651913,0.01282817,-1.0,0.0,0.0,0.017777583,0.15730101,-0.02341337
1588602766443,-0.010773907,-0.020350715,9.791088,-31.300001,-253.5,-142.59999,-0.07513642,0.037873644,0.014049901,-1.0,0.0,0.0,0.017776845,0.1566982,-0.023682011
1588602766453,0.0011971008,-0.021547815,9.792285,-31.300001,-253.5,-142.59999,-0.076358154,0.039095376,0.01282817,-1.0,0.0,0.0,0.017776845,0.1566982,-0.023682011
1588602766468,-0.0047884034,-0.022744916,9.791088,-31.300001,-253.5,-142.59999,-0.07391469,0.037873644,0.015882496,-1.0,0.0,0.0,0.017776845,0.1566982,-0.023682011
1588602766478,0.0011971008,-0.022744916,9.797073,-31.300001,-253.5,-142.5,-0.07574729,0.037873644,0.015271631,-1.0,0.0,0.0,0.017776845,0.1566982,-0.023682011
1588602766488,-0.0047884034,-0.017956512,9.797073,-31.300001,-253.5,-142.5,-0.07513642,0.037873644,0.015271631,-1.0,0.0,0.0,0.017776845,0.1566982,-0.023682011
1588602766499,-0.010773907,-0.016759412,9.793482,-31.400002,-253.5,-142.5,-0.07269296,0.03726278,0.014660766,-1.0,0.0,0.0,0.017776845,0.1566982,-0.023682011
1588602766510,0.0035913025,-0.025139118,9.794679,-31.400002,-253.5,-142.5,-0.07269296,0.037873644,0.01282817,-1.0,0.0,0.0,0.017776845,0.1566982,-0.023682011
1588602766521,0.0035913025,-0.021547815,9.791088,-31.400002,-253.5,-142.5,-0.07574729,0.03726278,0.015271631,-1.0,0.0,0.0,0.017776845,0.1566982,-0.023682011
1588602766531,-0.0035913025,-0.01316811,9.797073,-31.400002,-253.5,-142.5,-0.07513642,0.03726278,0.014049901,-1.0,0.0,0.0,0.017776845,0.1566982,-0.023682011
1588602766542,-0.0011971008,-0.020350715,9.803059,-31.400002,-253.5,-142.4,-0.07452556,0.039095376,0.015271631,-1.0,0.0,0.0,0.017776845,0.1566982,-0.023682011
1588602766552,-0.010773907,-0.015562311,9.78989,-31.400002,-253.5,-142.4,-0.07574729,0.039095376,0.014049901,-1.0,0.0,0.0,0.017776845,0.1566982,-0.023682011
1588602766566,-0.010773907,-0.020350715,9.797073,-31.300001,-253.5,-142.4,-0.07574729,0.04153884,0.01282817,-1.0,0.0,0.0,0.017776845,0.1566982,-0.023682011
1588602766576,-0.0035913025,-0.021547815,9.7958765,-31.300001,-253.6,-142.3,-0.07452556,0.039095376,0.014049901,-1.0,0.0,0.0,0.017776845,0.1566982,-0.023682011
1588602766586,0.0035913025,-0.023942016,9.791088,-31.300001,-253.6,-142.3,-0.07513642,0.03848451,0.013439035,-1.0,0.0,0.0,0.017776845,0.1566982,-0.023682011
1588602766598,0.0023942017,-0.020350715,9.801862,-31.300001,-253.6,-142.3,-0.073303826,0.037873644,0.01282817,-1.0,0.0,0.0,0.017776845,0.1566982,-0.023682011
1588602766609,-0.0023942017,-0.020350715,9.792285,-31.300001,-253.6,-142.3,-0.073303826,0.03970624,0.01282817,-1.0,0.0,0.0,0.017776845,0.1566982,-0.023682011
1588602766620,-0.011971008,-0.020350715,9.791088,-31.300001,-253.6,-142.4,-0.0720821,0.040317107,0.013439035,-1.0,0.0,0.0,0.017776845,0.1566982,-0.023682011
1588602766630,-0.008379706,-0.020350715,9.78989,-31.300001,-253.6,-142.4,-0.07513642,0.040927973,0.012217305,-1.0,0.0,0.0,0.017776845,0.1566982,-0.023682011
1588602766641,-0.021547815,-0.009576807,9.7958765,-31.300001,-253.6,-142.3,-0.073303826,0.03726278,0.014660766,-1.0,0.0,0.0,0.017776845,0.1566982,-0.023682011
1588602766652,-0.005985504,-0.023942016,9.79827,-31.300001,-253.6,-142.3,-0.07696902,0.039095376,0.013439035,-1.0,0.0,0.0,0.017776845,0.1566982,-0.023682011
1588602766662,0.0023942017,-0.023942016,9.787497,-31.300001,-253.6,-142.3,-0.07391469,0.03726278,0.013439035,-1.0,0.0,0.0,0.017776845,0.1566982,-0.023682011
1588602766674,0.0035913025,-0.019153614,9.797073,-31.300001,-253.6,-142.3,-0.073303826,0.039095376,0.013439035,-1.0,0.0,0.0,0.017776845,0.1566982,-0.023682011
1588602766685,-0.0023942017,-0.023942016,9.792285,-31.300001,-253.6,-142.3,-0.07513642,0.03726278,0.014049901,-1.0,0.0,0.0,0.017776845,0.1566982,-0.023682011
1588602766696,-0.005985504,-0.019153614,9.787497,-31.300001,-253.6,-142.3,-0.07452556,0.03970624,0.014049901,-1.0,0.0,0.0,0.017776845,0.1566982,-0.023682011
1588602766706,0.0023942017,-0.025139118,9.792285,-31.300001,-253.6,-142.3,-0.0720821,0.036651913,0.015271631,-1.0,0.0,0.0,0.017776845,0.1566982,-0.023682011
1588602766718,0.005985504,-0.020350715,9.7958765,-31.300001,-253.5,-142.3,-0.07269296,0.03848451,0.014660766,-1.0,0.0,0.0,0.017776845,0.1566982,-0.023682011
1588602766729,-0.0011971008,-0.022744916,9.792285,-31.300001,-253.5,-142.3,-0.0720821,0.039095376,0.013439035,-1.0,0.0,0.0,0.017776845,0.1566982,-0.023682011
1588602766739,-0.009576807,-0.022744916,9.805453,-31.300001,-253.5,-142.3,-0.07574729,0.036651913,0.014660766,-1.0,0.0,0.0,0.017776845,0.1566982,-0.023682011
1588602766752,-0.0023942017,-0.023942016,9.78989,-31.300001,-253.5,-142.3,-0.07513642,0.039095376,0.014049901,-1.0,0.0,0.0,0.017776845,0.1566982,-0.023682011
1588602766762,0.005985504,-0.017956512,9.792285,-31.300001,-253.5,-142.3,-0.073303826,0.03848451,0.013439035,-1.0,0.0,0.0,0.017776845,0.1566982,-0.023682011
1588602766774,-0.010773907,-0.016759412,9.799467,-31.300001,-253.5,-142.3,-0.07452556,0.03848451,0.012217305,-1.0,0.0,0.0,0.017776845,0.1566982,-0.023682011
1588602766785,-0.005985504,-0.022744916,9.803059,-31.300001,-253.5,-142.3,-0.07391469,0.03726278,0.013439035,-1.0,0.0,0.0,0.017776845,0.1566982,-0.023682011
1588602766795,0.0023942017,-0.021547815,9.797073,-31.300001,-253.6,-142.3,-0.07269296,0.039095376,0.014660766,-1.0,0.0,0.0,0.017776845,0.1566982,-0.023682011
1588602766808,0.0011971008,-0.025139118,9.7958765,-31.300001,-253.6,-142.3,-0.076358154,0.03726278,0.015271631,-1.0,0.0,0.0,0.017776845,0.1566982,-0.023682011
1588602766817,0.0047884034,-0.021547815,9.792285,-31.300001,-253.5,-142.3,-0.076358154,0.037873644,0.01282817,-1.0,0.0,0.0,0.017776845,0.1566982,-0.023682011
1588602766829,-0.0035913025,-0.015562311,9.79827,-31.300001,-253.5,-142.3,-0.07696902,0.03848451,0.013439035,-1.0,0.0,0.0,0.017776845,0.1566982,-0.023682011
1588602766839,-0.0035913025,-0.015562311,9.79827,-31.300001,-253.5,-142.2,-0.076358154,0.039095376,0.016493361,-1.0,0.0,0.0,0.017776845,0.1566982,-0.023682011
1588602766850,-0.0035913025,-0.022744916,9.792285,-31.300001,-253.5,-142.2,-0.07391469,0.03970624,0.015271631,-1.0,0.0,0.0,0.017776845,0.1566982,-0.023682011
1588602766861,-0.010773907,-0.020350715,9.801862,-31.300001,-253.5,-142.3,-0.07452556,0.037873644,0.014660766,-1.0,0.0,0.0,0.017776845,0.1566982,-0.023682011
1588602766872,-0.0035913025,-0.025139118,9.797073,-31.300001,-253.5,-142.3,-0.073303826,0.03726278,0.014049901,-1.0,0.0,0.0,0.017776845,0.1566982,-0.023682011
1588602766881,-0.010773907,-0.020350715,9.792285,-31.300001,-253.5,-142.2,-0.07391469,0.037873644,0.01160644,-1.0,0.0,0.0,0.017776845,0.1566982,-0.023682011
1588602766892,-0.0023942017,-0.017956512,9.799467,-31.300001,-253.5,-142.2,-0.07574729,0.036651913,0.014660766,-1.0,0.0,0.0,0.017776845,0.1566982,-0.023682011
1588602766903,-0.0011971008,-0.025139118,9.7958765,-31.300001,-253.5,-142.3,-0.07513642,0.036651913,0.015271631,-1.0,0.0,0.0,0.017776845,0.1566982,-0.023682011
1588602766916,-0.0035913025,-0.022744916,9.793482,-31.300001,-253.5,-142.3,-0.07513642,0.039095376,0.013439035,-1.0,0.0,0.0,0.017776845,0.1566982,-0.023682011
1588602766926,-0.016759412,-0.005985504,9.788693,-31.300001,-253.5,-142.3,-0.07513642,0.03848451,0.014049901,-1.0,0.0,0.0,0.017776845,0.1566982,-0.023682011
1588602766938,-0.007182605,-0.021547815,9.794679,-31.300001,-253.5,-142.3,-0.07391469,0.037873644,0.014660766,-1.0,0.0,0.0,0.017776845,0.1566982,-0.023682011
1588602766949,0.0023942017,-0.019153614,9.801862,-31.300001,-253.5,-142.3,-0.07391469,0.037873644,0.01282817,-1.0,0.0,0.0,0.017776845,0.1566982,-0.023682011
1588602766959,-0.007182605,-0.023942016,9.7958765,-31.300001,-253.5,-142.3,-0.073303826,0.03726278,0.015271631,-1.0,0.0,0.0,0.017776845,0.1566982,-0.023682011
1588602766971,0.005985504,-0.021547815,9.792285,-31.300001,-253.5,-142.3,-0.07452556,0.03848451,0.014049901,-1.0,0.0,0.0,0.017776845,0.1566982,-0.023682011
1588602766981,-0.007182605,-0.015562311,9.794679,-31.2,-253.5,-142.3,-0.07452556,0.036651913,0.015271631,-1.0,0.0,0.0,0.017776845,0.1566982,-0.023682011
1588602766994,0.008379706,-0.025139118,9.797073,-31.2,-253.5,-142.3,-0.07513642,0.037873644,0.014660766,-1.0,0.0,0.0,0.017776845,0.1566982,-0.023682011
1588602767004,-0.005985504,-0.011971008,9.78989,-31.2,-253.5,-142.3,-0.07452556,0.040317107,0.014049901,-1.0,0.0,0.0,0.017776845,0.1566982,-0.023682011
1588602767015,-0.007182605,-0.01316811,9.7863,-31.2,-253.5,-142.3,-0.07452556,0.03970624,0.015271631,-1.0,0.0,0.0,0.017776845,0.1566982,-0.023682011
1588602767027,0.0035913025,-0.022744916,9.794679,-31.300001,-253.5,-142.4,-0.073303826,0.03604105,0.014660766,-1.0,0.0,0.0,0.017776845,0.1566982,-0.023682011
1588602767038,-0.005985504,-0.025139118,9.793482,-31.300001,-253.5,-142.4,-0.073303826,0.03848451,0.015271631,-1.0,0.0,0.0,0.017776845,0.1566982,-0.023682011
1588602767048,0.0011971008,-0.022744916,9.794679,-31.300001,-253.5,-142.4,-0.07391469,0.039095376,0.014049901,-1.0,0.0,0.0,0.017776845,0.1566982,-0.023682011
1588602767058,0.0035913025,-0.019153614,9.78989,-31.300001,-253.5,-142.4,-0.07391469,0.03848451,0.013439035,-1.0,0.0,0.0,0.017776845,0.1566982,-0.023682011
1588602767071,-0.007182605,-0.022744916,9.794679,-31.300001,-253.5,-142.4,-0.07513642,0.03848451,0.013439035,-1.0,0.0,0.0,0.017776845,0.1566982,-0.023682011
1588602767081,-0.0035913025,-0.023942016,9.794679,-31.2,-253.5,-142.5,-0.07391469,0.03726278,0.014660766,-1.0,0.0,0.0,0.017776845,0.1566982,-0.023682011
1588602767091,0.0035913025,-0.021547815,9.78989,-31.2,-253.5,-142.5,-0.07391469,0.036651913,0.016493361,-1.0,0.0,0.0,0.017776845,0.1566982,-0.023682011
1588602767103,-0.0023942017,-0.021547815,9.7958765,-31.2,-253.5,-142.5,-0.07452556,0.03848451,0.013439035,-1.0,0.0,0.0,0.017776845,0.1566982,-0.023682011
1588602767115,-0.011971008,-0.020350715,9.793482,-31.2,-253.5,-142.5,-0.076358154,0.036651913,0.015271631,-1.0,0.0,0.0,0.017776845,0.1566982,-0.023682011
1588602767126,-0.010773907,-0.005985504,9.782708,-31.2,-253.5,-142.5,-0.073303826,0.039095376,0.014049901,-1.0,0.0,0.0,0.017776845,0.1566982,-0.023682011
1588602767136,-0.007182605,-0.016759412,9.78989,-31.2,-253.5,-142.5,-0.07574729,0.036651913,0.014049901,-1.0,0.0,0.0,0.017776845,0.1566982,-0.023682011
1588602767146,-0.007182605,-0.025139118,9.791088,-31.2,-253.5,-142.5,-0.07574729,0.03604105,0.014660766,-1.0,0.0,0.0,0.017776845,0.1566982,-0.023682011
1588602767159,-0.009576807,-0.010773907,9.791088,-31.2,-253.5,-142.5,-0.07574729,0.03848451,0.015882496,-1.0,0.0,0.0,0.017776845,0.1566982,-0.023682011
1588602767169,-0.011971008,-0.007182605,9.788693,-31.2,-253.5,-142.5,-0.07513642,0.037873644,0.01282817,-1.0,0.0,0.0,0.017776579,0.15611725,-0.023779575
1588602767180,0.0023942017,-0.022744916,9.794679,-31.300001,-253.5,-142.59999,-0.07452556,0.03970624,0.014049901,-1.0,0.0,0.0,0.017776579,0.15611725,-0.023779575
1588602767190,-0.0011971008,-0.0023942017,9.794679,-31.300001,-253.5,-142.59999,-0.07452556,0.039095376,0.014049901,-1.0,0.0,0.0,0.017776605,0.15542199,-0.023769801
1588602767202,-0.0011971008,-0.017956512,9.79827,-31.300001,-253.5,-142.59999,-0.07391469,0.039095376,0.015882496,-1.0,0.0,0.0,0.017776702,0.15476158,-0.023733767
1588602767211,-0.0023942017,-0.020350715,9.793482,-31.300001,-253.5,-142.59999,-0.073303826,0.037873644,0.014049901,-1.0,0.0,0.0,0.017776825,0.15417422,-0.023689238
1588602767224,-0.01316811,-0.01436521,9.791088,-31.300001,-253.4,-142.59999,-0.07513642,0.036651913,0.015271631,-1.0,0.0,0.0,0.017776683,0.15351698,-0.023742253
1588602767237,0.0035913025,-0.025139118,9.792285,-31.2,-253.4,-142.59999,-0.07513642,0.03726278,0.013439035,-1.0,0.0,0.0,0.017776683,0.15351698,-0.023742253
1588602767248,0.0047884034,-0.025139118,9.788693,-31.2,-253.4,-142.59999,-0.07574729,0.037873644,0.014049901,-1.0,0.0,0.0,0.017776683,0.15351698,-0.023742253
1588602767257,-0.0035913025,-0.01316811,9.79827,-31.2,-253.4,-142.59999,-0.07452556,0.037873644,0.014660766,-1.0,0.0,0.0,0.017776683,0.15351698,-0.023742253
1588602767267,-0.0047884034,-0.015562311,9.793482,-31.2,-253.4,-142.59999,-0.07574729,0.03726278,0.014660766,-1.0,0.0,0.0,0.017776683,0.15351698,-0.023742253
1588602767276,0.0035913025,-0.015562311,9.799467,-31.2,-253.4,-142.59999,-0.07269296,0.036651913,0.014660766,-1.0,0.0,0.0,0.017776683,0.15351698,-0.023742253
1588602767288,-0.010773907,-0.007182605,9.78989,-31.2,-253.4,-142.59999,-0.07452556,0.03726278,0.014049901,-1.0,0.0,0.0,0.017776823,0.15285826,-0.023689779
1588602767299,-0.0011971008,-0.015562311,9.791088,-31.2,-253.5,-142.59999,-0.076358154,0.037873644,0.014660766,-1.0,0.0,0.0,0.017776823,0.15285826,-0.023689779
1588602767309,0.0011971008,-0.020350715,9.797073,-31.2,-253.5,-142.59999,-0.07452556,0.03848451,0.013439035,-1.0,0.0,0.0,0.017776823,0.15285826,-0.023689779
1588602767320,0.0011971008,-0.02633622,9.791088,-31.2,-253.5,-142.59999,-0.07452556,0.03726278,0.013439035,-1.0,0.0,0.0,0.017776823,0.15285826,-0.023689779
1588602767331,0.0011971008,-0.021547815,9.79827,-31.2,-253.5,-142.59999,-0.07513642,0.03848451,0.014049901,-1.0,0.0,0.0,0.017776823,0.15285826,-0.023689779
1588602767342,0.0047884034,-0.015562311,9.791088,-31.2,-253.5,-142.59999,-0.07452556,0.039095376,0.015271631,-1.0,0.0,0.0,0.017776823,0.15285826,-0.023689779
1588602767353,-0.0035913025,-0.021547815,9.791088,-31.2,-253.5,-142.59999,-0.07452556,0.03848451,0.013439035,-1.0,0.0,0.0,0.017776823,0.15285826,-0.023689779
1588602767364,0.009576807,-0.021547815,9.793482,-31.2,-253.5,-142.59999,-0.07269296,0.037873644,0.01282817,-1.0,0.0,0.0,0.017776823,0.15285826,-0.023689779
1588602767375,-0.0011971008,-0.023942016,9.79827,-31.2,-253.5,-142.59999,-0.07574729,0.037873644,0.015271631,-1.0,0.0,0.0,0.017776823,0.15285826,-0.023689779
1588602767386,-0.008379706,-0.016759412,9.791088,-31.2,-253.5,-142.59999,-0.07574729,0.037873644,0.015271631,-1.0,0.0,0.0,0.017776823,0.15285826,-0.023689779
1588602767397,-0.0047884034,-0.015562311,9.793482,-31.300001,-253.5,-142.5,-0.07391469,0.03604105,0.014049901,-1.0,0.0,0.0,0.017776823,0.15285826,-0.023689779
1588602767407,0.0011971008,-0.020350715,9.793482,-31.300001,-253.5,-142.5,-0.07452556,0.039095376,0.015271631,-1.0,0.0,0.0,0.017776823,0.15285826,-0.023689779
1588602767418,0.0023942017,-0.020350715,9.792285,-31.300001,-253.5,-142.5,-0.073303826,0.03726278,0.014660766,-1.0,0.0,0.0,0.017776823,0.15285826,-0.023689779
1588602767427,0.0023942017,-0.020350715,9.792285,-31.300001,-253.5,-142.5,-0.07452556,0.03726278,0.015271631,-1.0,0.0,0.0,0.017776823,0.15285826,-0.023689779
1588602767439,-0.008379706,-0.020350715,9.799467,-31.400002,-253.5,-142.59999,-0.07391469,0.03604105,0.014049901,-1.0,0.0,0.0,0.017776823,0.15285826,-0.023689779
1588602767449,-0.0035913025,-0.0011971008,9.785102,-31.400002,-253.5,-142.59999,-0.07574729,0.039095376,0.015271631,-1.0,0.0,0.0,0.017776823,0.15285826,-0.023689779
1588602767462,-0.0035913025,-0.021547815,9.79827,-31.400002,-253.5,-142.5,-0.073303826,0.03848451,0.014660766,-1.0,0.0,0.0,0.017776823,0.15285826,-0.023689779
1588602767473,-0.0035913025,-0.020350715,9.78989,-31.400002,-253.5,-142.5,-0.07452556,0.03726278,0.010995574,-1.0,0.0,0.0,0.017776823,0.15285826,-0.023689779
1588602767483,-0.0011971008,-0.017956512,9.794679,-31.400002,-253.5,-142.5,-0.07513642,0.037873644,0.014049901,-1.0,0.0,0.0,0.017776823,0.15285826,-0.023689779
1588602767498,0.0011971008,-0.025139118,9.792285,-31.400002,-253.5,-142.4,-0.077579886,0.03848451,0.014660766,-1.0,0.0,0.0,0.017776823,0.15285826,-0.023689779
1588602767509,0.0011971008,-0.022744916,9.793482,-31.400002,-253.5,-142.4,-0.07147124,0.03848451,0.015271631,-1.0,0.0,0.0,0.017776823,0.15285826,-0.023689779
1588602767518,0.0011971008,-0.022744916,9.793482,-31.400002,-253.5,-142.4,-0.07574729,0.037873644,0.015271631,-1.0,0.0,0.0,0.017776823,0.15285826,-0.023689779
1588602767527,-0.0011971008,-0.017956512,9.791088,-31.400002,-253.5,-142.4,-0.07391469,0.03848451,0.014049901,-1.0,0.0,0.0,0.017776823,0.15285826,-0.023689779
1588602767542,-0.0035913025,-0.019153614,9.794679,-31.400002,-253.5,-142.4,-0.0720821,0.03970624,0.015271631,-1.0,0.0,0.0,0.017776823,0.15285826,-0.023689779
1588602767549,0.007182605,-0.022744916,9.793482,-31.400002,-253.5,-142.4,-0.07452556,0.03726278,0.013439035,-1.0,0.0,0.0,0.017776823,0.15285826,-0.023689779
1588602767561,-0.011971008,-0.01436521,9.797073,-31.400002,-253.5,-142.4,-0.0720821,0.03848451,0.015271631,-1.0,0.0,0.0,0.017776823,0.15285826,-0.023689779
1588602767572,0.0047884034,-0.020350715,9.794679,-31.400002,-253.5,-142.4,-0.07452556,0.039095376,0.015271631,-1.0,0.0,0.0,0.017776823,0.15285826,-0.023689779
1588602767583,0.0023942017,-0.020350715,9.791088,-31.400002,-253.5,-142.5,-0.07452556,0.03726278,0.014049901,-1.0,0.0,0.0,0.017776823,0.15285826,-0.023689779
1588602767594,-0.008379706,-0.023942016,9.792285,-31.400002,-253.5,-142.5,-0.07269296,0.03848451,0.015271631,-1.0,0.0,0.0,0.017776823,0.15285826,-0.023689779
1588602767605,-0.007182605,-0.021547815,9.793482,-31.400002,-253.5,-142.5,-0.07513642,0.03848451,0.014049901,-1.0,0.0,0.0,0.017776823,0.15285826,-0.023689779
1588602767618,-0.0035913025,-0.01436521,9.792285,-31.400002,-253.5,-142.5,-0.07452556,0.03848451,0.01282817,-1.0,0.0,0.0,0.017776823,0.15285826,-0.023689779
1588602767628,-0.0047884034,-0.007182605,9.783905,-31.400002,-253.5,-142.5,-0.073303826,0.039095376,0.014660766,-1.0,0.0,0.0,0.017776823,0.15285826,-0.023689779
1588602767638,0.0035913025,-0.022744916,9.797073,-31.400002,-253.5,-142.5,-0.07391469,0.03848451,0.015271631,-1.0,0.0,0.0,0.017776823,0.15285826,-0.023689779
1588602767650,-0.0035913025,-0.01436521,9.788693,-31.400002,-253.5,-142.5,-0.073303826,0.03604105,0.016493361,-1.0,0.0,0.0,0.017776823,0.15285826,-0.023689779
1588602767661,0.0023942017,-0.023942016,9.78989,-31.400002,-253.5,-142.59999,-0.07513642,0.03848451,0.015882496,-1.0,0.0,0.0,0.017776823,0.15285826,-0.023689779
1588602767671,-0.0011971008,-0.01436521,9.797073,-31.400002,-253.5,-142.59999,-0.07513642,0.036651913,0.014049901,-1.0,0.0,0.0,0.017776823,0.15285826,-0.023689779
1588602767683,0.0023942017,-0.022744916,9.797073,-31.400002,-253.5,-142.59999,-0.076358154,0.03970624,0.013439035,-1.0,0.0,0.0,0.017776823,0.15285826,-0.023689779
1588602767693,0.0035913025,-0.021547815,9.799467,-31.400002,-253.5,-142.59999,-0.073303826,0.03970624,0.013439035,-1.0,0.0,0.0,0.017776823,0.15285826,-0.023689779
1588602767706,-0.008379706,-0.015562311,9.7958765,-31.400002,-253.5,-142.59999,-0.07513642,0.035430185,0.014049901,-1.0,0.0,0.0,0.017776823,0.15285826,-0.023689779
1588602767716,-0.005985504,-0.021547815,9.792285,-31.400002,-253.5,-142.59999,-0.07391469,0.03848451,0.014049901,-1.0,0.0,0.0,0.017776823,0.15285826,-0.023689779
1588602767726,0.0035913025,-0.015562311,9.794679,-31.400002,-253.5,-142.59999,-0.07391469,0.037873644,0.013439035,-1.0,0.0,0.0,0.017776823,0.15285826,-0.023689779
1588602767739,0.0023942017,-0.022744916,9.788693,-31.400002,-253.5,-142.5,-0.07452556,0.039095376,0.016493361,-1.0,0.0,0.0,0.017776823,0.15285826,-0.023689779
1588602767749,0.0023942017,-0.016759412,9.801862,-31.400002,-253.5,-142.5,-0.07574729,0.037873644,0.014660766,-1.0,0.0,0.0,0.017776823,0.15285826,-0.023689779
1588602767761,0.0035913025,-0.01316811,9.79827,-31.400002,-253.5,-142.5,-0.07391469,0.039095376,0.012217305,-1.0,0.0,0.0,0.0177776,0.15226738,-0.023397539
1588602767772,0.007182605,-0.015562311,9.7958765,-31.400002,-253.5,-142.5,-0.07574729,0.037873644,0.015882496,-1.0,0.0,0.0,0.017778499,0.15169978,-0.023058137
1588602767782,-0.0047884034,-0.016759412,9.783905,-31.400002,-253.5,-142.5,-0.07269296,0.03726278,0.013439035,-1.0,0.0,0.0,0.017779263,0.15110728,-0.02276895
1588602767794,-0.005985504,-0.021547815,9.794679,-31.400002,-253.5,-142.5,-0.07513642,0.03848451,0.014660766,-1.0,0.0,0.0,0.017779263,0.15110728,-0.02276895
1588602767805,-0.0035913025,-0.017956512,9.8042555,-31.400002,-253.5,-142.5,-0.07574729,0.03848451,0.014660766,-1.0,0.0,0.0,0.017779263,0.15110728,-0.02276895
1588602767815,-0.0011971008,-0.017956512,9.792285,-31.400002,-253.5,-142.5,-0.07391469,0.040927973,0.014049901,-1.0,0.0,0.0,0.017779263,0.15110728,-0.02276895
1588602767827,-0.0047884034,-0.025139118,9.793482,-31.400002,-253.6,-142.5,-0.073303826,0.037873644,0.013439035,-1.0,0.0,0.0,0.017779263,0.15110728,-0.02276895
1588602767838,-0.0011971008,-0.022744916,9.800665,-31.500002,-253.6,-142.59999,-0.073303826,0.037873644,0.015271631,-1.0,0.0,0.0,0.017779263,0.15110728,-0.02276895
1588602767849,-0.0023942017,-0.01436521,9.788693,-31.500002,-253.6,-142.59999,-0.07574729,0.03848451,0.014049901,-1.0,0.0,0.0,0.017779263,0.15110728,-0.02276895
1588602767860,-0.0047884034,-0.008379706,9.792285,-31.500002,-253.6,-142.59999,-0.07391469,0.03848451,0.01160644,-1.0,0.0,0.0,0.017779263,0.15110728,-0.02276895
1588602767870,-0.0011971008,-0.017956512,9.801862,-31.500002,-253.6,-142.59999,-0.073303826,0.039095376,0.01282817,-1.0,0.0,0.0,0.017779263,0.15110728,-0.02276895
1588602767882,0.0035913025,-0.02633622,9.7958765,-31.500002,-253.6,-142.7,-0.07269296,0.037873644,0.013439035,-1.0,0.0,0.0,0.017779263,0.15110728,-0.02276895
1588602767892,0.0047884034,-0.021547815,9.799467,-31.500002,-253.6,-142.7,-0.07391469,0.037873644,0.013439035,-1.0,0.0,0.0,0.017779263,0.15110728,-0.02276895
1588602767905,0.0035913025,-0.021547815,9.800665,-31.500002,-253.6,-142.59999,-0.07574729,0.039095376,0.015271631,-1.0,0.0,0.0,0.017779263,0.15110728,-0.02276895
1588602767915,0.008379706,-0.025139118,9.792285,-31.500002,-253.6,-142.59999,-0.07391469,0.036651913,0.015271631,-1.0,0.0,0.0,0.017779263,0.15110728,-0.02276895
1588602767925,-0.0047884034,-0.019153614,9.788693,-31.500002,-253.6,-142.59999,-0.07452556,0.040317107,0.015882496,-1.0,0.0,0.0,0.017779263,0.15110728,-0.02276895
1588602767938,0.007182605,-0.023942016,9.791088,-31.500002,-253.6,-142.59999,-0.07513642,0.037873644,0.01282817,-1.0,0.0,0.0,0.017779263,0.15110728,-0.02276895
1588602767948,0.0047884034,-0.025139118,9.7958765,-31.500002,-253.6,-142.59999,-0.07269296,0.03726278,0.010995574,-1.0,0.0,0.0,0.017779263,0.15110728,-0.02276895
1588602767959,0.0047884034,-0.020350715,9.79827,-31.500002,-253.5,-142.59999,-0.07819075,0.03726278,0.01282817,-1.0,0.0,0.0,0.017779263,0.15110728,-0.02276895
1588602767969,-0.0023942017,-0.023942016,9.801862,-31.500002,-253.5,-142.59999,-0.07086037,0.03848451,0.015882496,-1.0,0.0,0.0,0.017779263,0.15110728,-0.02276895
1588602767981,0.0011971008,-0.019153614,9.799467,-31.500002,-253.6,-142.5,-0.07574729,0.037873644,0.015271631,-1.0,0.0,0.0,0.017779263,0.15110728,-0.02276895
1588602767991,0.0023942017,-0.010773907,9.79827,-31.500002,-253.6,-142.5,-0.073303826,0.036651913,0.015882496,-1.0,0.0,0.0,0.017779263,0.15110728,-0.02276895
1588602768003,0.0023942017,-0.0011971008,9.7863,-31.500002,-253.6,-142.59999,-0.07513642,0.037873644,0.014660766,-1.0,0.0,0.0,0.017780248,0.15056261,-0.02239468
1588602768014,-0.010773907,-0.008379706,9.787497,-31.500002,-253.6,-142.59999,-0.07696902,0.039095376,0.017104227,-1.0,0.0,0.0,0.01778088,0.14994664,-0.022154218
1588602768025,0.0023942017,-0.023942016,9.793482,-31.500002,-253.6,-142.59999,-0.07452556,0.03848451,0.014660766,-1.0,0.0,0.0,0.01778088,0.14994664,-0.022154218
1588602768036,0.0035913025,-0.020350715,9.791088,-31.500002,-253.6,-142.59999,-0.07147124,0.03848451,0.013439035,-1.0,0.0,0.0,0.01778088,0.14994664,-0.022154218
1588602768046,0.0035913025,-0.023942016,9.792285,-31.500002,-253.6,-142.59999,-0.07391469,0.03726278,0.012217305,-1.0,0.0,0.0,0.01778088,0.14994664,-0.022154218
1588602768058,-0.0035913025,-0.023942016,9.791088,-31.400002,-253.6,-142.59999,-0.07269296,0.03726278,0.014049901,-1.0,0.0,0.0,0.01778088,0.14994664,-0.022154218
1588602768069,0.005985504,-0.02633622,9.791088,-31.400002,-253.6,-142.59999,-0.07269296,0.03848451,0.013439035,-1.0,0.0,0.0,0.01778088,0.14994664,-0.022154218
1588602768079,0.0023942017,-0.022744916,9.797073,-31.400002,-253.6,-142.59999,-0.07269296,0.03848451,0.01282817,-1.0,0.0,0.0,0.01778088,0.14994664,-0.022154218
1588602768092,0.0023942017,-0.021547815,9.7958765,-31.400002,-253.6,-142.59999,-0.07452556,0.037873644,0.015271631,-1.0,0.0,0.0,0.01778088,0.14994664,-0.022154218
1588602768102,-0.0047884034,-0.016759412,9.793482,-31.400002,-253.6,-142.59999,-0.07513642,0.036651913,0.014049901,-1.0,0.0,0.0,0.01778088,0.14994664,-0.022154218
1588602768113,-0.010773907,-0.015562311,9.799467,-31.400002,-253.6,-142.59999,-0.076358154,0.03726278,0.013439035,-1.0,0.0,0.0,0.01778088,0.14994664,-0.022154218
1588602768123,0.0011971008,-0.025139118,9.791088,-31.500002,-253.6,-142.59999,-0.07391469,0.03726278,0.015271631,-1.0,0.0,0.0,0.01778088,0.14994664,-0.022154218
1588602768135,0.0023942017,-0.025139118,9.788693,-31.500002,-253.5,-142.59999,-0.07391469,0.039095376,0.015271631,-1.0,0.0,0.0,0.01778088,0.14994664,-0.022154218
1588602768145,-0.0047884034,-0.023942016,9.791088,-31.500002,-253.5,-142.59999,-0.077579886,0.039095376,0.014049901,-1.0,0.0,0.0,0.01778088,0.14994664,-0.022154218
1588602768158,-0.010773907,-0.01316811,9.7863,-31.500002,-253.6,-142.7,-0.07513642,0.03726278,0.014049901,-1.0,0.0,0.0,0.01778088,0.14994664,-0.022154218
1588602768170,0.0011971008,-0.016759412,9.794679,-31.500002,-253.6,-142.7,-0.07513642,0.037873644,0.014049901,-1.0,0.0,0.0,0.01778088,0.14994664,-0.022154218
1588602768182,0.011971008,-0.017956512,9.7958765,-31.500002,-253.6,-142.7,-0.07391469,0.037873644,0.01282817,-1.0,0.0,0.0,0.01778088,0.14994664,-0.022154218
1588602768192,0.0011971008,-0.005985504,9.7863,-31.500002,-253.6,-142.7,-0.073303826,0.03970624,0.014660766,-1.0,0.0,0.0,0.017781558,0.14933793,-0.021895133
1588602768205,0.0023942017,-0.023942016,9.794679,-31.500002,-253.6,-142.7,-0.07513642,0.03726278,0.013439035,-1.0,0.0,0.0,0.017781558,0.14933793,-0.021895133
1588602768214,-0.009576807,-0.022744916,9.792285,-31.500002,-253.6,-142.7,-0.073303826,0.03848451,0.014660766,-1.0,0.0,0.0,0.017781558,0.14933793,-0.021895133
1588602768227,0.0035913025,-0.023942016,9.7958765,-31.500002,-253.6,-142.59999,-0.07513642,0.040927973,0.015882496,-1.0,0.0,0.0,0.017781558,0.14933793,-0.021895133
1588602768238,-0.0035913025,-0.022744916,9.793482,-31.600002,-253.6,-142.59999,-0.07452556,0.03726278,0.014049901,-1.0,0.0,0.0,0.017781558,0.14933793,-0.021895133
1588602768247,-0.015562311,-0.020350715,9.788693,-31.600002,-253.6,-142.59999,-0.07391469,0.03726278,0.014660766,-1.0,0.0,0.0,0.017781558,0.14933793,-0.021895133
1588602768258,0.0035913025,-0.02633622,9.797073,-31.600002,-253.6,-142.59999,-0.07391469,0.03604105,0.014660766,-1.0,0.0,0.0,0.017781558,0.14933793,-0.021895133
1588602768269,-0.005985504,-0.01436521,9.788693,-31.600002,-253.6,-142.59999,-0.07452556,0.036651913,0.014660766,-1.0,0.0,0.0,0.017781558,0.14933793,-0.021895133
1588602768280,-0.0035913025,-0.016759412,9.797073,-31.600002,-253.6,-142.59999,-0.07269296,0.03726278,0.014049901,-1.0,0.0,0.0,0.017781558,0.14933793,-0.021895133
1588602768292,0.0035913025,-0.025139118,9.791088,-31.600002,-253.6,-142.59999,-0.07574729,0.03970624,0.013439035,-1.0,0.0,0.0,0.017781558,0.14933793,-0.021895133
1588602768302,0.0011971008,-0.025139118,9.792285,-31.600002,-253.6,-142.59999,-0.07391469,0.03726278,0.01282817,-1.0,0.0,0.0,0.017781558,0.14933793,-0.021895133
1588602768316,-0.0023942017,-0.017956512,9.799467,-31.600002,-253.6,-142.59999,-0.07574729,0.036651913,0.015271631,-1.0,0.0,0.0,0.017781558,0.14933793,-0.021895133
1588602768324,-0.0023942017,-0.022744916,9.793482,-31.600002,-253.6,-142.59999,-0.073303826,0.036651913,0.013439035,-1.0,0.0,0.0,0.017781558,0.14933793,-0.021895133
1588602768337,-0.0023942017,-0.023942016,9.788693,-31.600002,-253.5,-142.59999,-0.07574729,0.037873644,0.015882496,-1.0,0.0,0.0,0.017781558,0.14933793,-0.021895133
1588602768347,-0.005985504,-0.019153614,9.793482,-31.600002,-253.5,-142.59999,-0.07391469,0.036651913,0.01282817,-1.0,0.0,0.0,0.017781558,0.14933793,-0.021895133
1588602768358,0.005985504,-0.01436521,9.800665,-31.600002,-253.5,-142.7,-0.07269296,0.040317107,0.014049901,-1.0,0.0,0.0,0.017781558,0.14933793,-0.021895133
1588602768369,0.0011971008,-0.015562311,9.793482,-31.600002,-253.5,-142.7,-0.07391469,0.035430185,0.014049901,-1.0,0.0,0.0,0.017781558,0.14933793,-0.021895133
1588602768379,-0.0023942017,-0.009576807,9.809045,-31.600002,-253.5,-142.7,-0.07452556,0.03848451,0.013439035,-1.0,0.0,0.0,0.017781558,0.14933793,-0.021895133
1588602768392,-0.007182605,-0.016759412,9.785102,-31.600002,-253.5,-142.7,-0.073303826,0.037873644,0.014049901,-1.0,0.0,0.0,0.017781558,0.14933793,-0.021895133
1588602768402,-0.007182605,-0.019153614,9.797073,-31.600002,-253.5,-142.59999,-0.073303826,0.037873644,0.01282817,-1.0,0.0,0.0,0.017781558,0.14933793,-0.021895133
1588602768413,-0.0023942017,-0.021547815,9.799467,-31.600002,-253.5,-142.59999,-0.07513642,0.037873644,0.014049901,-1.0,0.0,0.0,0.017781558,0.14933793,-0.021895133
1588602768424,-0.005985504,-0.021547815,9.797073,-31.600002,-253.5,-142.7,-0.07452556,0.03848451,0.014049901,-1.0,0.0,0.0,0.017781558,0.14933793,-0.021895133
1588602768435,-0.007182605,-0.020350715,9.788693,-31.600002,-253.5,-142.59999,-0.07391469,0.03848451,0.015882496,-1.0,0.0,0.0,0.017781558,0.14933793,-0.021895133
1588602768446,-0.009576807,-0.010773907,9.791088,-31.600002,-253.5,-142.59999,-0.076358154,0.03970624,0.014049901,-1.0,0.0,0.0,0.017781558,0.14933793,-0.021895133
1588602768456,-0.0035913025,-0.020350715,9.80665,-31.600002,-253.5,-142.59999,-0.07391469,0.03848451,0.014660766,-1.0,0.0,0.0,0.017781558,0.14933793,-0.021895133
1588602768470,0.0011971008,-0.022744916,9.7958765,-31.600002,-253.5,-142.59999,-0.073303826,0.037873644,0.015882496,-1.0,0.0,0.0,0.017781558,0.14933793,-0.021895133
1588602768481,-0.008379706,-0.023942016,9.803059,-31.600002,-253.5,-142.59999,-0.073303826,0.036651913,0.014049901,-1.0,0.0,0.0,0.017781558,0.14933793,-0.021895133
1588602768491,-0.0023942017,-0.021547815,9.799467,-31.600002,-253.5,-142.59999,-0.073303826,0.03848451,0.01282817,-1.0,0.0,0.0,0.017781558,0.14933793,-0.021895133
1588602768503,-0.015562311,-0.010773907,9.7863,-31.600002,-253.6,-142.59999,-0.07269296,0.03848451,0.015882496,-1.0,0.0,0.0,0.017781558,0.14933793,-0.021895133
1588602768513,-0.010773907,-0.021547815,9.793482,-31.600002,-253.6,-142.59999,-0.07513642,0.03848451,0.017104227,-1.0,0.0,0.0,0.017781558,0.14933793,-0.021895133
1588602768522,0.0047884034,-0.025139118,9.799467,-31.600002,-253.6,-142.59999,-0.07391469,0.037873644,0.015271631,-1.0,0.0,0.0,0.017781558,0.14933793,-0.021895133
1588602768536,0.0047884034,-0.022744916,9.794679,-31.600002,-253.6,-142.7,-0.07513642,0.039095376,0.015882496,-1.0,0.0,0.0,0.017781558,0.14933793,-0.021895133
1588602768545,0.0047884034,-0.025139118,9.79827,-31.600002,-253.6,-142.7,-0.07269296,0.039095376,0.015882496,-1.0,0.0,0.0,0.017781558,0.14933793,-0.021895133
1588602768557,-0.0047884034,-0.011971008,9.78989,-31.600002,-253.6,-142.7,-0.07391469,0.039095376,0.013439035,-1.0,0.0,0.0,0.017781558,0.14933793,-0.021895133
1588602768568,-0.0011971008,-0.015562311,9.799467,-31.600002,-253.6,-142.7,-0.07452556,0.040317107,0.014049901,-1.0,0.0,0.0,0.017781558,0.14933793,-0.021895133
1588602768577,-0.0035913025,-0.023942016,9.792285,-31.600002,-253.5,-142.8,-0.073303826,0.039095376,0.016493361,-1.0,0.0,0.0,0.017781558,0.14933793,-0.021895133
1588602768590,-0.0011971008,-0.022744916,9.78989,-31.600002,-253.5,-142.8,-0.07391469,0.03848451,0.014660766,-1.0,0.0,0.0,0.017781558,0.14933793,-0.021895133
1588602768600,-0.0011971008,-0.016759412,9.788693,-31.600002,-253.5,-142.7,-0.07513642,0.036651913,0.014660766,-1.0,0.0,0.0,0.017781558,0.14933793,-0.021895133
1588602768612,0.0011971008,-0.023942016,9.793482,-31.600002,-253.5,-142.7,-0.073303826,0.03726278,0.013439035,-1.0,0.0,0.0,0.017781558,0.14933793,-0.021895133
1588602768623,-0.0011971008,-0.025139118,9.791088,-31.600002,-253.6,-142.7,-0.07391469,0.035430185,0.015271631,-1.0,0.0,0.0,0.017781558,0.14933793,-0.021895133
1588602768634,-0.0035913025,-0.022744916,9.792285,-31.600002,-253.6,-142.7,-0.07391469,0.03848451,0.015271631,-1.0,0.0,0.0,0.017781558,0.14933793,-0.021895133
1588602768645,-0.0023942017,-0.015562311,9.78989,-31.600002,-253.6,-142.7,-0.07269296,0.03848451,0.014660766,-1.0,0.0,0.0,0.017781558,0.14933793,-0.021895133
1588602768655,-0.008379706,-0.021547815,9.791088,-31.600002,-253.5,-142.7,-0.07391469,0.039095376,0.015271631,-1.0,0.0,0.0,0.017781558,0.14933793,-0.021895133
1588602768668,-0.0047884034,-0.01436521,9.797073,-31.600002,-253.5,-142.7,-0.07391469,0.039095376,0.014660766,-1.0,0.0,0.0,0.017781558,0.14933793,-0.021895133
1588602768679,-0.0047884034,-0.020350715,9.801862,-31.7,-253.6,-142.7,-0.07513642,0.037873644,0.016493361,-1.0,0.0,0.0,0.017781558,0.14933793,-0.021895133
1588602768689,0.0023942017,-0.025139118,9.791088,-31.7,-253.6,-142.7,-0.07513642,0.037873644,0.015271631,-1.0,0.0,0.0,0.017781558,0.14933793,-0.021895133
1588602768699,0.0023942017,-0.021547815,9.799467,-31.7,-253.5,-142.7,-0.07574729,0.037873644,0.012217305,-1.0,0.0,0.0,0.017781558,0.14933793,-0.021895133
1588602768712,0.007182605,-0.025139118,9.799467,-31.7,-253.5,-142.7,-0.07452556,0.03848451,0.014049901,-1.0,0.0,0.0,0.017781558,0.14933793,-0.021895133
1588602768722,-0.0023942017,-0.008379706,9.788693,-31.600002,-253.5,-142.7,-0.07452556,0.036651913,0.015882496,-1.0,0.0,0.0,0.017781558,0.14933793,-0.021895133
1588602768734,-0.005985504,-0.019153614,9.792285,-31.600002,-253.5,-142.7,-0.07452556,0.039095376,0.013439035,-1.0,0.0,0.0,0.017781558,0.14933793,-0.021895133
1588602768744,0.005985504,-0.027533319,9.794679,-31.600002,-253.5,-142.7,-0.07513642,0.039095376,0.015271631,-1.0,0.0,0.0,0.017781558,0.14933793,-0.021895133
1588602768756,-0.0023942017,-0.021547815,9.7958765,-31.600002,-253.5,-142.7,-0.07391469,0.037873644,0.012217305,-1.0,0.0,0.0,0.017781558,0.14933793,-0.021895133
1588602768767,-0.010773907,-0.017956512,9.7958765,-31.600002,-253.5,-142.7,-0.076358154,0.03848451,0.015271631,-1.0,0.0,0.0,0.017781558,0.14933793,-0.021895133
1588602768777,-0.0023942017,-0.023942016,9.792285,-31.600002,-253.5,-142.7,-0.07574729,0.03970624,0.014660766,-1.0,0.0,0.0,0.017781558,0.14933793,-0.021895133
1588602768792,-0.0047884034,-0.023942016,9.78989,-31.600002,-253.5,-142.7,-0.076358154,0.03726278,0.014049901,-1.0,0.0,0.0,0.017781558,0.14933793,-0.021895133
1588602768803,0.0035913025,-0.025139118,9.791088,-31.500002,-253.5,-142.7,-0.07452556,0.039095376,0.015882496,-1.0,0.0,0.0,0.017781558,0.14933793,-0.021895133
1588602768814,-0.0011971008,-0.02633622,9.800665,-31.500002,-253.5,-142.7,-0.07452556,0.03848451,0.012217305,-1.0,0.0,0.0,0.017781558,0.14933793,-0.021895133
1588602768825,-0.0047884034,-0.019153614,9.788693,-31.500002,-253.5,-142.7,-0.07574729,0.03848451,0.016493361,-1.0,0.0,0.0,0.017781558,0.14933793,-0.021895133
1588602768836,-0.0035913025,-0.023942016,9.791088,-31.500002,-253.5,-142.7,-0.07452556,0.03604105,0.014049901,-1.0,0.0,0.0,0.017781558,0.14933793,-0.021895133
1588602768846,-0.015562311,-0.011971008,9.791088,-31.500002,-253.5,-142.7,-0.07452556,0.03604105,0.014049901,-1.0,0.0,0.0,0.017781558,0.14933793,-0.021895133
1588602768859,-0.0047884034,-0.022744916,9.800665,-31.500002,-253.6,-142.7,-0.073303826,0.03848451,0.016493361,-1.0,0.0,0.0,0.017781558,0.14933793,-0.021895133
1588602768876,-0.0047884034,-0.017956512,9.79827,-31.500002,-253.6,-142.7,-0.07574729,0.03848451,0.014660766,-1.0,0.0,0.0,0.017781558,0.14933793,-0.021895133
1588602768890,0.0047884034,-0.022744916,9.78989,-31.500002,-253.5,-142.7,-0.07452556,0.035430185,0.013439035,-1.0,0.0,0.0,0.017781558,0.14933793,-0.021895133
1588602768893,0.0047884034,-0.022744916,9.78989,-31.500002,-253.5,-142.7,-0.07452556,0.035430185,0.013439035,-1.0,0.0,0.0,0.017781558,0.14933793,-0.021895133
1588602768903,-0.005985504,-0.01436521,9.794679,-31.500002,-253.5,-142.59999,-0.07452556,0.039095376,0.013439035,-1.0,0.0,0.0,0.017781558,0.14933793,-0.021895133
1588602768913,-0.021547815,-0.016759412,9.794679,-31.500002,-253.5,-142.59999,-0.07452556,0.039095376,0.013439035,-1.0,0.0,0.0,0.017781558,0.14933793,-0.021895133
1588602768922,0.01436521,-0.023942016,9.791088,-31.500002,-253.5,-142.7,-0.073303826,0.03726278,0.014660766,-1.0,0.0,0.0,0.017781558,0.14933793,-0.021895133
1588602768934,0.008379706,-0.022744916,9.799467,-31.500002,-253.5,-142.7,-0.076358154,0.03848451,0.014049901,-1.0,0.0,0.0,0.017781558,0.14933793,-0.021895133
1588602768943,-0.0047884034,-0.025139118,9.78989,-31.500002,-253.6,-142.59999,-0.07513642,0.03848451,0.014660766,-1.0,0.0,0.0,0.017781558,0.14933793,-0.021895133
1588602768954,-0.0011971008,-0.023942016,9.797073,-31.500002,-253.6,-142.59999,-0.073303826,0.036651913,0.013439035,-1.0,0.0,0.0,0.017781558,0.14933793,-0.021895133
1588602768965,-0.016759412,-0.009576807,9.7958765,-31.500002,-253.6,-142.59999,-0.07574729,0.039095376,0.014660766,-1.0,0.0,0.0,0.017781558,0.14933793,-0.021895133
1588602768974,-0.009576807,-0.025139118,9.79827,-31.500002,-253.6,-142.59999,-0.07574729,0.03848451,0.014660766,-1.0,0.0,0.0,0.017781558,0.14933793,-0.021895133
1588602768985,-0.008379706,-0.023942016,9.792285,-31.500002,-253.5,-142.5,-0.07513642,0.040317107,0.014660766,-1.0,0.0,0.0,0.017781558,0.14933793,-0.021895133
1588602768997,-0.009576807,-0.023942016,9.787497,-31.500002,-253.5,-142.59999,-0.07452556,0.037873644,0.013439035,-1.0,0.0,0.0,0.017781558,0.14933793,-0.021895133
1588602769010,-0.008379706,-0.01316811,9.788693,-31.500002,-253.5,-142.59999,-0.07452556,0.037873644,0.013439035,-1.0,0.0,0.0,0.017781558,0.14933793,-0.021895133
1588602769021,-0.008379706,-0.022744916,9.788693,-31.500002,-253.5,-142.59999,-0.0720821,0.037873644,0.015882496,-1.0,0.0,0.0,0.017781558,0.14933793,-0.021895133
1588602769031,0.0011971008,-0.020350715,9.797073,-31.500002,-253.5,-142.59999,-0.07452556,0.035430185,0.014049901,-1.0,0.0,0.0,0.017781558,0.14933793,-0.021895133
1588602769041,-0.0023942017,-0.007182605,9.783905,-31.500002,-253.5,-142.59999,-0.07452556,0.03848451,0.014660766,-1.0,0.0,0.0,0.017781558,0.14933793,-0.021895133
1588602769053,0.0023942017,-0.010773907,9.79827,-31.500002,-253.5,-142.59999,-0.07269296,0.03726278,0.014660766,-1.0,0.0,0.0,0.017781558,0.14933793,-0.021895133
1588602769064,-0.007182605,-0.021547815,9.788693,-31.500002,-253.5,-142.59999,-0.07452556,0.039095376,0.012217305,-1.0,0.0,0.0,0.017781558,0.14933793,-0.021895133
1588602769077,-0.01436521,-0.011971008,9.793482,-31.500002,-253.5,-142.59999,-0.07452556,0.03970624,0.012217305,-1.0,0.0,0.0,0.017781558,0.14933793,-0.021895133
1588602769086,-0.01436521,-0.017956512,9.78989,-31.500002,-253.5,-142.5,-0.073303826,0.03726278,0.016493361,-1.0,0.0,0.0,0.017781558,0.14933793,-0.021895133
1588602769096,-0.0047884034,-0.020350715,9.793482,-31.500002,-253.5,-142.59999,-0.073303826,0.03848451,0.014049901,-1.0,0.0,0.0,0.017781558,0.14933793,-0.021895133
1588602769109,-0.005985504,-0.023942016,9.7958765,-31.500002,-253.5,-142.59999,-0.07574729,0.03726278,0.013439035,-1.0,0.0,0.0,0.017781558,0.14933793,-0.021895133
1588602769119,0.0011971008,-0.015562311,9.78989,-31.500002,-253.5,-142.59999,-0.07452556,0.03848451,0.015882496,-1.0,0.0,0.0,0.017781558,0.14933793,-0.021895133
1588602769129,-0.0047884034,-0.01436521,9.788693,-31.500002,-253.5,-142.59999,-0.0720821,0.03848451,0.01282817,-1.0,0.0,0.0,0.017781558,0.14933793,-0.021895133
1588602769141,-0.0035913025,-0.016759412,9.793482,-31.500002,-253.5,-142.5,-0.07452556,0.03970624,0.016493361,-1.0,0.0,0.0,0.017781558,0.14933793,-0.021895133
1588602769151,0.0023942017,-0.021547815,9.792285,-31.500002,-253.5,-142.5,-0.07269296,0.03848451,0.015271631,-1.0,0.0,0.0,0.017781558,0.14933793,-0.021895133
1588602769163,-0.005985504,-0.022744916,9.797073,-31.500002,-253.5,-142.5,-0.07452556,0.039095376,0.015882496,-1.0,0.0,0.0,0.017781558,0.14933793,-0.021895133
1588602769174,-0.005985504,-0.022744916,9.799467,-31.500002,-253.5,-142.5,-0.07452556,0.03726278,0.01282817,-1.0,0.0,0.0,0.017781558,0.14933793,-0.021895133
1588602769185,-0.0023942017,-0.023942016,9.7958765,-31.600002,-253.5,-142.5,-0.07513642,0.036651913,0.015271631,-1.0,0.0,0.0,0.017781558,0.14933793,-0.021895133
1588602769195,-0.0035913025,-0.019153614,9.793482,-31.600002,-253.5,-142.5,-0.07513642,0.037873644,0.014660766,-1.0,0.0,0.0,0.017781558,0.14933793,-0.021895133
1588602769208,-0.011971008,-0.01436521,9.793482,-31.600002,-253.5,-142.5,-0.07513642,0.037873644,0.014660766,-1.0,0.0,0.0,0.017781558,0.14933793,-0.021895133
1588602769218,-0.011971008,-0.025139118,9.794679,-31.600002,-253.5,-142.59999,-0.07391469,0.03726278,0.014660766,-1.0,0.0,0.0,0.017781558,0.14933793,-0.021895133
1588602769229,0.009576807,-0.02633622,9.800665,-31.600002,-253.5,-142.59999,-0.073303826,0.039095376,0.014049901,-1.0,0.0,0.0,0.017781558,0.14933793,-0.021895133
1588602769238,0.009576807,-0.02633622,9.800665,-31.600002,-253.5,-142.59999,-0.07452556,0.039095376,0.014660766,-1.0,0.0,0.0,0.017781558,0.14933793,-0.021895133
1588602769250,-0.0011971008,-0.019153614,9.794679,-31.600002,-253.5,-142.59999,-0.07391469,0.039095376,0.01282817,-1.0,0.0,0.0,0.017781558,0.14933793,-0.021895133
1588602769261,-0.005985504,-0.007182605,9.788693,-31.600002,-253.5,-142.59999,-0.073303826,0.03970624,0.014049901,-1.0,0.0,0.0,0.017781558,0.14933793,-0.021895133
1588602769273,-0.0011971008,-0.025139118,9.7958765,-31.600002,-253.5,-142.59999,-0.073303826,0.037873644,0.016493361,-1.0,0.0,0.0,0.017781558,0.14933793,-0.021895133
1588602769282,-0.009576807,-0.023942016,9.792285,-31.600002,-253.5,-142.59999,-0.07391469,0.03970624,0.01160644,-1.0,0.0,0.0,0.017781558,0.14933793,-0.021895133
1588602769294,-0.0011971008,-0.016759412,9.78989,-31.600002,-253.5,-142.59999,-0.07391469,0.037873644,0.015271631,-1.0,0.0,0.0,0.017781558,0.14933793,-0.021895133
1588602769303,-0.011971008,-0.017956512,9.785102,-31.600002,-253.5,-142.59999,-0.073303826,0.03726278,0.015882496,-1.0,0.0,0.0,0.017781558,0.14933793,-0.021895133
1588602769314,-0.010773907,-0.010773907,9.787497,-31.600002,-253.6,-142.59999,-0.07452556,0.03848451,0.015271631,-1.0,0.0,0.0,0.017781558,0.14933793,-0.021895133
1588602769326,-0.0011971008,-0.021547815,9.797073,-31.600002,-253.6,-142.59999,-0.07391469,0.036651913,0.013439035,-1.0,0.0,0.0,0.017781558,0.14933793,-0.021895133
1588602769337,-0.007182605,-0.022744916,9.793482,-31.600002,-253.6,-142.59999,-0.07513642,0.036651913,0.014660766,-1.0,0.0,0.0,0.017781558,0.14933793,-0.021895133
1588602769350,0.0035913025,-0.023942016,9.7958765,-31.600002,-253.6,-142.59999,-0.07696902,0.039095376,0.01282817,-1.0,0.0,0.0,0.017781558,0.14933793,-0.021895133
1588602769360,-0.0035913025,-0.020350715,9.791088,-31.600002,-253.6,-142.59999,-0.07513642,0.03848451,0.01282817,-1.0,0.0,0.0,0.017781558,0.14933793,-0.021895133
1588602769370,-0.016759412,-0.015562311,9.785102,-31.600002,-253.6,-142.59999,-0.07513642,0.037873644,0.014049901,-1.0,0.0,0.0,0.017781558,0.14933793,-0.021895133
1588602769381,-0.0023942017,-0.017956512,9.794679,-31.600002,-253.5,-142.59999,-0.07513642,0.03848451,0.017104227,-1.0,0.0,0.0,0.017781558,0.14933793,-0.021895133
1588602769391,-0.007182605,-0.020350715,9.792285,-31.600002,-253.5,-142.59999,-0.07391469,0.039095376,0.014660766,-1.0,0.0,0.0,0.017781558,0.14933793,-0.021895133
1588602769403,-0.007182605,-0.022744916,9.792285,-31.600002,-253.6,-142.59999,-0.073303826,0.03970624,0.01282817,-1.0,0.0,0.0,0.017781558,0.14933793,-0.021895133
1588602769413,-0.0011971008,-0.015562311,9.792285,-31.600002,-253.6,-142.59999,-0.07574729,0.039095376,0.013439035,-1.0,0.0,0.0,0.017781558,0.14933793,-0.021895133
1588602769424,-0.0035913025,-0.021547815,9.793482,-31.600002,-253.6,-142.59999,-0.07147124,0.037873644,0.016493361,-1.0,0.0,0.0,0.017781558,0.14933793,-0.021895133
1588602769434,-0.01316811,-0.022744916,9.792285,-31.600002,-253.6,-142.59999,-0.07452556,0.03604105,0.015271631,-1.0,0.0,0.0,0.017781558,0.14933793,-0.021895133
1588602769447,-0.0011971008,-0.025139118,9.793482,-31.600002,-253.6,-142.59999,-0.073303826,0.037873644,0.014660766,-1.0,0.0,0.0,0.017781558,0.14933793,-0.021895133
1588602769457,-0.0047884034,-0.022744916,9.792285,-31.600002,-253.6,-142.59999,-0.07391469,0.040927973,0.014660766,-1.0,0.0,0.0,0.017781558,0.14933793,-0.021895133
1588602769468,-0.0047884034,-0.021547815,9.787497,-31.600002,-253.6,-142.59999,-0.07513642,0.037873644,0.01160644,-1.0,0.0,0.0,0.017781558,0.14933793,-0.021895133
1588602769479,0.0023942017,-0.021547815,9.793482,-31.7,-253.6,-142.7,-0.07513642,0.039095376,0.016493361,-1.0,0.0,0.0,0.017781558,0.14933793,-0.021895133
1588602769489,0.0011971008,-0.023942016,9.794679,-31.7,-253.6,-142.7,-0.07574729,0.039095376,0.014660766,-1.0,0.0,0.0,0.017781558,0.14933793,-0.021895133
1588602769502,0.007182605,-0.016759412,9.801862,-31.7,-253.6,-142.8,-0.07391469,0.037873644,0.014049901,-1.0,0.0,0.0,0.017781558,0.14933793,-0.021895133
1588602769512,-0.008379706,-0.021547815,9.797073,-31.7,-253.6,-142.8,-0.07574729,0.03970624,0.014660766,-1.0,0.0,0.0,0.017781558,0.14933793,-0.021895133
1588602769530,0.0047884034,-0.023942016,9.793482,-31.7,-253.6,-142.7,-0.07513642,0.036651913,0.015271631,-1.0,0.0,0.0,0.017781558,0.14933793,-0.021895133
1588602769534,0.0047884034,-0.023942016,9.793482,-31.7,-253.6,-142.7,-0.07513642,0.036651913,0.015271631,-1.0,0.0,0.0,0.017781558,0.14933793,-0.021895133
1588602769547,0.0035913025,-0.015562311,9.800665,-31.7,-253.6,-142.8,-0.07574729,0.03848451,0.016493361,-1.0,0.0,0.0,0.017781558,0.14933793,-0.021895133
1588602769559,-0.0047884034,-0.021547815,9.785102,-31.7,-253.6,-142.7,-0.07269296,0.03848451,0.013439035,-1.0,0.0,0.0,0.017781558,0.14933793,-0.021895133
1588602769569,-0.005985504,-0.023942016,9.800665,-31.7,-253.6,-142.7,-0.07452556,0.039095376,0.014049901,-1.0,0.0,0.0,0.017781558,0.14933793,-0.021895133
1588602769580,-0.0011971008,-0.016759412,9.79827,-31.7,-253.7,-142.8,-0.07452556,0.037873644,0.014660766,-1.0,0.0,0.0,0.017781558,0.14933793,-0.021895133
1588602769590,-0.0011971008,-0.015562311,9.791088,-31.7,-253.7,-142.8,-0.0720821,0.03848451,0.012217305,-1.0,0.0,0.0,0.017781558,0.14933793,-0.021895133
1588602769600,0.0023942017,-0.016759412,9.799467,-31.7,-253.7,-142.8,-0.07513642,0.03970624,0.014660766,-1.0,0.0,0.0,0.017781558,0.14933793,-0.021895133
1588602769611,0.0023942017,-0.017956512,9.803059,-31.7,-253.7,-142.8,-0.07452556,0.03848451,0.013439035,-1.0,0.0,0.0,0.017781558,0.14933793,-0.021895133
1588602769623,-0.0023942017,-0.01436521,9.781511,-31.7,-253.6,-142.8,-0.07513642,0.036651913,0.014049901,-1.0,0.0,0.0,0.017781558,0.14933793,-0.021895133
1588602769630,-0.020350715,-0.015562311,9.785102,-31.7,-253.6,-142.8,-0.073303826,0.03604105,0.014660766,-1.0,0.0,0.0,0.017781558,0.14933793,-0.021895133
1588602769641,-0.010773907,-0.009576807,9.793482,-31.7,-253.6,-142.8,-0.07574729,0.03848451,0.013439035,-1.0,0.0,0.0,0.017781558,0.14933793,-0.021895133
1588602769652,0.005985504,-0.023942016,9.794679,-31.7,-253.6,-142.8,-0.07513642,0.03848451,0.015271631,-1.0,0.0,0.0,0.017781558,0.14933793,-0.021895133
1588602769663,0.009576807,-0.023942016,9.793482,-31.7,-253.6,-142.8,-0.07696902,0.03848451,0.015271631,-1.0,0.0,0.0,0.017781558,0.14933793,-0.021895133
1588602769673,-0.0023942017,-0.025139118,9.792285,-31.7,-253.6,-142.8,-0.07513642,0.03604105,0.015882496,-1.0,0.0,0.0,0.017781558,0.14933793,-0.021895133
1588602769685,-0.007182605,-0.020350715,9.792285,-31.7,-253.6,-142.9,-0.07269296,0.03726278,0.013439035,-1.0,0.0,0.0,0.017781558,0.14933793,-0.021895133
1588602769697,-0.0047884034,-0.016759412,9.787497,-31.7,-253.6,-142.9,-0.07696902,0.03970624,0.015271631,-1.0,0.0,0.0,0.017781558,0.14933793,-0.021895133
1588602769710,-0.0047884034,-0.023942016,9.788693,-31.7,-253.6,-142.9,-0.07452556,0.03848451,0.015882496,-1.0,0.0,0.0,0.017781558,0.14933793,-0.021895133
1588602769720,0.0047884034,-0.021547815,9.7958765,-31.7,-253.6,-142.9,-0.07452556,0.03848451,0.013439035,-1.0,0.0,0.0,0.017781558,0.14933793,-0.021895133
1588602769732,-0.009576807,-0.020350715,9.801862,-31.7,-253.6,-142.9,-0.07391469,0.03970624,0.014049901,-1.0,0.0,0.0,0.017781558,0.14933793,-0.021895133
1588602769741,-0.0035913025,-0.019153614,9.792285,-31.600002,-253.6,-142.9,-0.07391469,0.040317107,0.012217305,-1.0,0.0,0.0,0.017781558,0.14933793,-0.021895133
1588602769753,0.010773907,-0.021547815,9.792285,-31.600002,-253.6,-142.9,-0.07452556,0.03726278,0.015271631,-1.0,0.0,0.0,0.017781558,0.14933793,-0.021895133
1588602769766,-0.005985504,-0.021547815,9.791088,-31.600002,-253.6,-143.0,-0.07452556,0.039095376,0.014049901,-1.0,0.0,0.0,0.017781558,0.14933793,-0.021895133
1588602769777,0.0047884034,-0.022744916,9.791088,-31.600002,-253.6,-143.0,-0.07574729,0.03726278,0.015882496,-1.0,0.0,0.0,0.017781558,0.14933793,-0.021895133
1588602769787,-0.0023942017,-0.021547815,9.792285,-31.600002,-253.6,-143.0,-0.07452556,0.03848451,0.013439035,-1.0,0.0,0.0,0.017781558,0.14933793,-0.021895133
1588602769797,0.0023942017,-0.020350715,9.7958765,-31.600002,-253.6,-143.09999,-0.07452556,0.036651913,0.013439035,-1.0,0.0,0.0,0.017781558,0.14933793,-0.021895133
1588602769807,-0.0011971008,-0.020350715,9.803059,-31.600002,-253.6,-143.09999,-0.07452556,0.036651913,0.013439035,-1.0,0.0,0.0,0.017781558,0.14933793,-0.021895133
1588602769820,-0.007182605,-0.0035913025,9.793482,-31.600002,-253.6,-143.0,-0.07513642,0.036651913,0.014660766,-1.0,0.0,0.0,0.017781558,0.14933793,-0.021895133
1588602769830,-0.005985504,-0.019153614,9.791088,-31.600002,-253.6,-143.0,-0.07819075,0.037873644,0.015271631,-1.0,0.0,0.0,0.017781558,0.14933793,-0.021895133
1588602769840,-0.005985504,-0.023942016,9.794679,-31.600002,-253.6,-143.0,-0.07513642,0.03848451,0.014049901,-1.0,0.0,0.0,0.017781558,0.14933793,-0.021895133
1588602769853,-0.010773907,-0.011971008,9.787497,-31.600002,-253.6,-143.0,-0.07513642,0.037873644,0.014660766,-1.0,0.0,0.0,0.017781558,0.14933793,-0.021895133
1588602769864,-0.01436521,-0.010773907,9.7863,-31.600002,-253.6,-143.0,-0.07269296,0.039095376,0.015882496,-1.0,0.0,0.0,0.017781558,0.14933793,-0.021895133
1588602769874,0.005985504,-0.025139118,9.788693,-31.600002,-253.6,-143.0,-0.07269296,0.03848451,0.014049901,-1.0,0.0,0.0,0.017781558,0.14933793,-0.021895133
1588602769883,0.0011971008,-0.023942016,9.792285,-31.500002,-253.6,-143.0,-0.07513642,0.039095376,0.014049901,-1.0,0.0,0.0,0.017781558,0.14933793,-0.021895133
1588602769895,-0.0023942017,-0.023942016,9.787497,-31.500002,-253.6,-143.0,-0.07452556,0.039095376,0.013439035,-1.0,0.0,0.0,0.017781558,0.14933793,-0.021895133
1588602769906,-0.0023942017,-0.01316811,9.797073,-31.500002,-253.6,-143.0,-0.076358154,0.03726278,0.014049901,-1.0,0.0,0.0,0.017781558,0.14933793,-0.021895133
1588602769918,-0.0023942017,-0.017956512,9.7958765,-31.500002,-253.6,-143.09999,-0.07452556,0.039095376,0.015882496,-1.0,0.0,0.0,0.017781558,0.14933793,-0.021895133
1588602769929,-0.007182605,-0.017956512,9.78989,-31.500002,-253.6,-143.09999,-0.07391469,0.03726278,0.012217305,-1.0,0.0,0.0,0.017781558,0.14933793,-0.021895133
1588602769939,-0.007182605,-0.023942016,9.792285,-31.500002,-253.6,-143.0,-0.073303826,0.03848451,0.015882496,-1.0,0.0,0.0,0.017781558,0.14933793,-0.021895133
1588602769952,-0.0023942017,-0.007182605,9.788693,-31.500002,-253.6,-143.0,-0.07574729,0.03848451,0.014049901,-1.0,0.0,0.0,0.017781558,0.14933793,-0.021895133
1588602769959,-0.0023942017,-0.007182605,9.788693,-31.500002,-253.5,-143.0,-0.07574729,0.03970624,0.014660766,-1.0,0.0,0.0,0.017781558,0.14933793,-0.021895133
1588602769974,-0.01436521,-0.017956512,9.783905,-31.500002,-253.5,-143.0,-0.07391469,0.03970624,0.014049901,-1.0,0.0,0.0,0.017781558,0.14933793,-0.021895133
1588602769984,-0.0023942017,-0.010773907,9.787497,-31.500002,-253.6,-143.0,-0.076358154,0.03848451,0.012217305,-1.0,0.0,0.0,0.017781558,0.14933793,-0.021895133
1588602769995,0.0035913025,-0.011971008,9.78989,-31.500002,-253.6,-143.0,-0.07452556,0.03970624,0.014049901,-1.0,0.0,0.0,0.017781558,0.14933793,-0.021895133
1588602770006,0.0023942017,-0.021547815,9.793482,-31.500002,-253.6,-143.0,-0.07391469,0.03970624,0.014660766,-1.0,0.0,0.0,0.017781558,0.14933793,-0.021895133
1588602770016,-0.0035913025,-0.025139118,9.785102,-31.500002,-253.5,-143.09999,-0.07574729,0.039095376,0.015271631,-1.0,0.0,0.0,0.017781558,0.14933793,-0.021895133
1588602770026,-0.0023942017,-0.007182605,9.788693,-31.500002,-253.5,-143.09999,-0.07513642,0.03848451,0.013439035,-1.0,0.0,0.0,0.017781558,0.14933793,-0.021895133
1588602770039,-0.0023942017,-0.019153614,9.794679,-31.500002,-253.5,-143.0,-0.07574729,0.037873644,0.013439035,-1.0,0.0,0.0,0.017781558,0.14933793,-0.021895133
1588602770049,-0.008379706,-0.019153614,9.799467,-31.500002,-253.5,-143.0,-0.07391469,0.037873644,0.01282817,-1.0,0.0,0.0,0.017781558,0.14933793,-0.021895133
1588602770059,-0.010773907,-0.005985504,9.791088,-31.500002,-253.5,-142.9,-0.073303826,0.037873644,0.016493361,-1.0,0.0,0.0,0.017781558,0.14933793,-0.021895133
1588602770073,-0.010773907,-0.016759412,9.787497,-31.500002,-253.5,-142.9,-0.07391469,0.037873644,0.013439035,-1.0,0.0,0.0,0.017781558,0.14933793,-0.021895133
1588602770082,-0.0011971008,-0.019153614,9.7958765,-31.500002,-253.5,-142.9,-0.07513642,0.03848451,0.012217305,-1.0,0.0,0.0,0.017781558,0.14933793,-0.021895133
1588602770092,-0.015562311,-0.011971008,9.791088,-31.500002,-253.5,-142.9,-0.07452556,0.039095376,0.015882496,-1.0,0.0,0.0,0.017781146,0.148771,-0.022053413
1588602770103,-0.007182605,-0.022744916,9.791088,-31.500002,-253.5,-142.9,-0.07269296,0.03970624,0.015882496,-1.0,0.0,0.0,0.017781146,0.148771,-0.022053413
1588602770116,0.005985504,-0.017956512,9.794679,-31.400002,-253.5,-142.9,-0.07574729,0.037873644,0.014049901,-1.0,0.0,0.0,0.017781146,0.148771,-0.022053413
1588602770126,0.0023942017,-0.023942016,9.791088,-31.400002,-253.5,-142.9,-0.07574729,0.037873644,0.014660766,-1.0,0.0,0.0,0.017781146,0.148771,-0.022053413
1588602770135,0.0035913025,-0.021547815,9.797073,-31.400002,-253.5,-143.0,-0.076358154,0.037873644,0.01282817,-1.0,0.0,0.0,0.017781146,0.148771,-0.022053413
1588602770147,0.0035913025,-0.020350715,9.801862,-31.400002,-253.5,-143.0,-0.07513642,0.037873644,0.014660766,-1.0,0.0,0.0,0.017781146,0.148771,-0.022053413
1588602770158,-0.0047884034,-0.023942016,9.79827,-31.400002,-253.5,-143.0,-0.07269296,0.03848451,0.014049901,-1.0,0.0,0.0,0.017781146,0.148771,-0.022053413
1588602770169,0.0011971008,-0.021547815,9.797073,-31.400002,-253.5,-143.0,-0.07696902,0.037873644,0.013439035,-1.0,0.0,0.0,0.017781146,0.148771,-0.022053413
1588602770179,0.0011971008,-0.021547815,9.797073,-31.400002,-253.5,-143.0,-0.07574729,0.03726278,0.014660766,-1.0,0.0,0.0,0.017781146,0.148771,-0.022053413
1588602770191,-0.0035913025,-0.017956512,9.793482,-31.400002,-253.5,-143.0,-0.07574729,0.039095376,0.017104227,-1.0,0.0,0.0,0.017781146,0.148771,-0.022053413
1588602770203,-0.0011971008,-0.021547815,9.794679,-31.400002,-253.5,-143.0,-0.07391469,0.037873644,0.014660766,-1.0,0.0,0.0,0.017781146,0.148771,-0.022053413
1588602770214,-0.005985504,-0.008379706,9.787497,-31.400002,-253.5,-143.0,-0.07513642,0.03604105,0.014049901,-1.0,0.0,0.0,0.017781146,0.148771,-0.022053413
1588602770224,-0.005985504,-0.022744916,9.78989,-31.400002,-253.5,-143.0,-0.07452556,0.039095376,0.015882496,-1.0,0.0,0.0,0.017781146,0.148771,-0.022053413
1588602770236,-0.007182605,-0.005985504,9.788693,-31.400002,-253.5,-142.9,-0.07513642,0.040317107,0.014049901,-1.0,0.0,0.0,0.017781146,0.148771,-0.022053413
1588602770248,0.0035913025,-0.022744916,9.794679,-31.400002,-253.5,-142.9,-0.073303826,0.040317107,0.014049901,-1.0,0.0,0.0,0.017781146,0.148771,-0.022053413
1588602770258,-0.007182605,-0.021547815,9.793482,-31.400002,-253.5,-142.9,-0.073303826,0.03848451,0.014049901,-1.0,0.0,0.0,0.017781146,0.148771,-0.022053413
1588602770273,-0.0047884034,-0.01436521,9.787497,-31.400002,-253.5,-142.9,-0.07391469,0.03726278,0.015882496,-1.0,0.0,0.0,0.017781146,0.148771,-0.022053413
1588602770284,-0.0035913025,-0.023942016,9.792285,-31.400002,-253.5,-142.9,-0.07452556,0.03726278,0.014049901,-1.0,0.0,0.0,0.017781146,0.148771,-0.022053413
1588602770293,0.0011971008,-0.021547815,9.793482,-31.400002,-253.5,-142.9,-0.073303826,0.03848451,0.01282817,-1.0,0.0,0.0,0.017781146,0.148771,-0.022053413
1588602770305,-0.005985504,-0.01316811,9.787497,-31.400002,-253.5,-142.9,-0.0720821,0.037873644,0.015271631,-1.0,0.0,0.0,0.017781146,0.148771,-0.022053413
1588602770317,-0.0023942017,-0.023942016,9.791088,-31.400002,-253.5,-142.9,-0.073303826,0.03848451,0.014660766,-1.0,0.0,0.0,0.017781146,0.148771,-0.022053413
1588602770327,0.0011971008,-0.020350715,9.79827,-31.400002,-253.5,-142.9,-0.07513642,0.037873644,0.014660766,-1.0,0.0,0.0,0.017781146,0.148771,-0.022053413
1588602770338,-0.0011971008,-0.022744916,9.792285,-31.400002,-253.5,-142.9,-0.07513642,0.037873644,0.014660766,-1.0,0.0,0.0,0.017781146,0.148771,-0.022053413
1588602770349,-0.01316811,-0.020350715,9.7958765,-31.400002,-253.5,-142.9,-0.07452556,0.037873644,0.014660766,-1.0,0.0,0.0,0.017781146,0.148771,-0.022053413
1588602770360,-0.005985504,-0.019153614,9.794679,-31.400002,-253.6,-142.9,-0.07452556,0.039095376,0.014049901,-1.0,0.0,0.0,0.017781146,0.148771,-0.022053413
1588602770371,-0.015562311,-0.025139118,9.797073,-31.400002,-253.6,-142.9,-0.07269296,0.036651913,0.014660766,-1.0,0.0,0.0,0.017781146,0.148771,-0.022053413
1588602770383,-0.007182605,-0.007182605,9.787497,-31.400002,-253.6,-142.8,-0.07391469,0.037873644,0.014660766,-1.0,0.0,0.0,0.017781146,0.148771,-0.022053413
1588602770394,-0.0011971008,-0.009576807,9.787497,-31.400002,-253.6,-142.8,-0.07513642,0.040317107,0.015271631,-1.0,0.0,0.0,0.017781146,0.148771,-0.022053413
1588602770405,-0.0047884034,-0.017956512,9.7863,-31.400002,-253.6,-142.8,-0.07391469,0.037873644,0.015271631,-1.0,0.0,0.0,0.017781146,0.148771,-0.022053413
1588602770415,0.007182605,-0.023942016,9.785102,-31.400002,-253.6,-142.8,-0.07574729,0.03970624,0.014049901,-1.0,0.0,0.0,0.017781146,0.148771,-0.022053413
1588602770427,0.011971008,-0.023942016,9.788693,-31.400002,-253.6,-142.9,-0.07452556,0.03970624,0.015271631,-1.0,0.0,0.0,0.017781146,0.148771,-0.022053413
1588602770438,0.0011971008,-0.005985504,9.787497,-31.400002,-253.5,-142.8,-0.07452556,0.03970624,0.015271631,-1.0,0.0,0.0,0.017781146,0.148771,-0.022053413
1588602770449,-0.007182605,-0.017956512,9.805453,-31.400002,-253.5,-142.8,-0.07391469,0.037873644,0.014660766,-1.0,0.0,0.0,0.017781146,0.148771,-0.022053413
1588602770460,-0.0035913025,-0.020350715,9.800665,-31.400002,-253.5,-142.7,-0.07452556,0.037873644,0.014660766,-1.0,0.0,0.0,0.017781146,0.148771,-0.022053413
1588602770470,0.0011971008,-0.019153614,9.800665,-31.400002,-253.5,-142.7,-0.0720821,0.040317107,0.015882496,-1.0,0.0,0.0,0.017781146,0.148771,-0.022053413
1588602770483,-0.008379706,-0.011971008,9.78989,-31.400002,-253.5,-142.8,-0.07391469,0.03848451,0.015271631,-1.0,0.0,0.0,0.017781146,0.148771,-0.022053413
1588602770493,0.0035913025,-0.017956512,9.805453,-31.400002,-253.5,-142.8,-0.07513642,0.039095376,0.012217305,-1.0,0.0,0.0,0.017781146,0.148771,-0.022053413
1588602770503,0.0035913025,-0.023942016,9.787497,-31.400002,-253.5,-142.8,-0.073303826,0.03848451,0.014049901,-1.0,0.0,0.0,0.017781146,0.148771,-0.022053413
1588602770516,0.005985504,-0.023942016,9.7958765,-31.400002,-253.5,-142.8,-0.07452556,0.03848451,0.014049901,-1.0,0.0,0.0,0.017781146,0.148771,-0.022053413
1588602770526,-0.0023942017,-0.023942016,9.7958765,-31.400002,-253.5,-142.8,-0.07269296,0.03848451,0.012217305,-1.0,0.0,0.0,0.017781146,0.148771,-0.022053413
1588602770537,-0.0047884034,-0.023942016,9.803059,-31.400002,-253.5,-142.8,-0.07452556,0.037873644,0.015271631,-1.0,0.0,0.0,0.017781146,0.148771,-0.022053413
1588602770546,-0.0011971008,-0.021547815,9.799467,-31.400002,-253.5,-142.8,-0.073303826,0.036651913,0.014049901,-1.0,0.0,0.0,0.017781146,0.148771,-0.022053413
1588602770558,-0.0023942017,-0.019153614,9.797073,-31.500002,-253.5,-142.8,-0.07147124,0.036651913,0.014660766,-1.0,0.0,0.0,0.017781146,0.148771,-0.022053413
1588602770569,0.0023942017,-0.023942016,9.799467,-31.500002,-253.5,-142.8,-0.07269296,0.036651913,0.01282817,-1.0,0.0,0.0,0.017781146,0.148771,-0.022053413
1588602770580,-0.009576807,-0.015562311,9.783905,-31.400002,-253.5,-142.8,-0.07513642,0.039095376,0.013439035,-1.0,0.0,0.0,0.017781146,0.148771,-0.022053413
1588602770593,0.0011971008,-0.02633622,9.794679,-31.400002,-253.5,-142.8,-0.07574729,0.039095376,0.014660766,-1.0,0.0,0.0,0.017781146,0.148771,-0.022053413
1588602770604,-0.0023942017,-0.025139118,9.793482,-31.400002,-253.5,-142.8,-0.07452556,0.037873644,0.014049901,-1.0,0.0,0.0,0.017781146,0.148771,-0.022053413
1588602770615,-0.0035913025,-0.015562311,9.7863,-31.400002,-253.5,-142.8,-0.073303826,0.039095376,0.01282817,-1.0,0.0,0.0,0.017781146,0.148771,-0.022053413
1588602770626,-0.0023942017,-0.016759412,9.793482,-31.400002,-253.5,-142.8,-0.07391469,0.03848451,0.01282817,-1.0,0.0,0.0,0.017781146,0.148771,-0.022053413
