@ HyperIMU -ianovir - 2018
@ Date:Thu Apr 23 11:25:37 GMT+02:00 2020, Sampling Rate:10ms

timestamp,K6DS3TR_Accelerometer.x,K6DS3TR_Accelerometer.y,K6DS3TR_Accelerometer.z,YAS537_Uncalibrated_Magnetometer.x,YAS537_Uncalibrated_Magnetometer.y,YAS537_Uncalibrated_Magnetometer.z,K6DS3TR_Uncalibrated_Gyroscope.x,K6DS3TR_Uncalibrated_Gyroscope.y,K6DS3TR_Uncalibrated_Gyroscope.z,Screen_Orientation_Sensor.x,Screen_Orientation_Sensor.y,Screen_Orientation_Sensor.z,Samsung_Orientation_Sensor.x,Samsung_Orientation_Sensor.y,Samsung_Orientation_Sensor.z
1587633937270,0.08379706,0.46926352,9.685743,-17.099998,-238.4,-19.3,0.0,0.0,0.0,-1.0,0.0,0.0,11.278713,-2.7737625,0.49572554
1587633937283,0.08379706,0.41299978,9.76116,-17.099998,-238.4,-19.3,0.0,0.0,0.0,-1.0,0.0,0.0,14.008384,-2.4232397,0.49186376
1587633937292,-0.077811554,0.36990416,9.783905,-17.099998,-238.4,-19.3,-0.1704314,0.09590584,0.02687807,-1.0,0.0,0.0,13.768708,-2.165154,-0.45551184
1587633937304,-0.090979666,0.32920274,9.661801,-38.5,-224.7,-32.2,-0.16187929,0.11362094,0.049480084,-1.0,0.0,0.0,13.749479,-1.951289,-0.5395263
1587633937314,-0.10534488,0.4177882,9.569624,-38.5,-224.7,-32.2,-0.15332718,0.115453534,0.06047566,-1.0,0.0,0.0,12.853379,-2.4995809,-0.63069487
1587633937326,-0.076614454,0.50637364,9.540894,-38.7,-224.7,-33.4,-0.15577064,0.028710667,0.030543262,-1.0,0.0,0.0,12.817577,-3.0382268,-0.4599944
1587633937336,-0.03232172,0.59974754,9.639056,-38.7,-224.7,-33.4,-0.15577064,0.028710667,0.030543262,-1.0,0.0,0.0,12.679087,-3.5605845,-0.19202259
1587633937347,-0.04189853,0.59256494,9.740809,-38.899998,-224.7,-33.3,-0.15393804,0.015271631,-0.01160644,-1.0,0.0,0.0,12.697678,-3.4811049,-0.24656962
1587633937360,-0.05865794,0.50158525,9.782708,-38.899998,-224.7,-33.3,-0.14905111,0.013439035,-0.04886922,-1.0,0.0,0.0,12.618542,-2.9350023,-0.34356323
1587633937370,-0.095768064,0.34955344,9.782708,-39.2,-224.9,-33.5,-0.14905111,0.01282817,-0.03848451,-1.0,0.0,0.0,12.664262,-2.0462706,-0.5608914
1587633937379,-0.08738836,0.25019407,9.862914,-39.5,-224.9,-33.7,-0.14049901,0.025045475,-0.01160644,-1.0,0.0,0.0,14.1627035,-1.4526879,-0.5076153
1587633937393,-0.092176765,0.2753332,9.872491,-39.5,-224.9,-33.7,-0.1282817,0.047036625,0.016493361,-1.0,0.0,0.0,14.806685,-1.597489,-0.5349596
1587633937402,-0.092176765,0.40581718,9.7719345,-39.6,-225.0,-33.8,-0.1282817,0.048258353,0.032375857,-1.0,0.0,0.0,14.795932,-2.3777878,-0.5404447
1587633937413,-0.110133275,0.51834464,9.763555,-39.6,-225.0,-33.8,-0.13622294,0.029932396,0.021991149,-1.0,0.0,0.0,14.796165,-3.038795,-0.6462747
1587633937424,-0.110133275,0.5566519,9.779117,-39.5,-224.9,-33.9,-0.14844026,0.018325957,-0.0030543262,-1.0,0.0,0.0,14.805921,-3.2569785,-0.64522403
1587633937436,-0.1376666,0.51954174,9.78989,-39.5,-224.9,-33.9,-0.18203785,0.0018325958,-0.04642576,-1.0,0.0,0.0,14.4048,-3.0369198,-0.8062834
1587633937446,-0.14604631,0.51235914,9.792285,-39.5,-225.0,-33.9,-0.18203785,0.0018325958,-0.04642576,-1.0,0.0,0.0,14.442042,-2.994051,-0.85225606
1587633937457,-0.19752164,0.48243165,9.837775,-39.5,-225.0,-33.9,-0.22357668,-0.014660766,-0.080634214,-1.0,0.0,0.0,14.8509,-2.806733,-1.1506857
1587633937468,-0.21787235,0.39145198,9.985018,-39.5,-225.0,-33.9,-0.2510656,-0.013439035,-0.096516706,-1.0,0.0,0.0,14.908896,-2.2446506,-1.2499616
1587633937479,-0.23104046,0.2621651,10.140641,-39.5,-224.9,-33.9,-0.27122417,0.015882496,-0.095294975,-1.0,0.0,0.0,15.699024,-1.480309,-1.3052083
1587633937491,-0.19632454,-0.049081136,10.097546,-39.5,-224.9,-33.9,-0.2761111,0.05497787,-0.07086037,-1.0,0.0,0.0,16.396952,0.27875903,-1.1137972
1587633937498,-0.19632454,-0.049081136,10.097546,-39.5,-224.9,-33.9,-0.2724459,0.08368854,-0.02443461,-1.0,0.0,0.0,16.396952,0.27875903,-1.1137972
1587633937510,-0.15083471,-0.09935937,10.016143,-39.5,-224.9,-34.1,-0.258396,0.0983493,0.016493361,-1.0,0.0,0.0,16.419134,0.5684221,-0.8625438
1587633937521,-0.18555063,0.05626374,9.982624,-39.5,-224.79999,-34.1,-0.24129178,0.100792766,0.040317107,-1.0,0.0,0.0,16.347353,-0.32293996,-1.0648686
1587633937532,-0.17597382,0.050278235,9.9550905,-39.5,-224.79999,-34.1,-0.21135938,0.11301007,0.05009095,-1.0,0.0,0.0,16.2147,-0.2901493,-1.0109557
1587633937543,-0.19153613,-0.016759412,9.927557,-39.5,-224.79999,-34.0,-0.14905111,0.11728613,0.05131268,-1.0,0.0,0.0,16.19272,0.097024016,-1.1053349
1587633937554,-0.20829555,-0.0047884034,9.981427,-39.5,-224.79999,-34.0,-0.10873401,0.112399206,0.059253927,-1.0,0.0,0.0,16.431892,0.02756694,-1.1954502
1587633937566,-0.19752164,0.06703765,9.92636,-39.5,-224.79999,-34.0,-0.034208454,0.11484267,0.06719518,-1.0,0.0,0.0,16.400614,-0.3868902,-1.1399547
1587633937577,-0.15801731,0.1340753,9.807847,-39.5,-224.79999,-34.0,-0.018325957,0.10873401,0.05375614,-1.0,0.0,0.0,16.250727,-0.7835102,-0.92273766
1587633937589,-0.18674773,0.20949265,9.775525,-39.5,-224.7,-34.0,-0.014660766,0.08674286,0.032986723,-1.0,0.0,0.0,16.231026,-1.2273101,-1.0943775
1587633937598,-0.23942018,0.29209262,9.671378,-39.5,-224.7,-34.0,-0.010995574,0.05131268,0.008552114,-1.0,0.0,0.0,15.7583475,-1.7297497,-1.4183306
1587633937612,-0.15682021,0.32561144,9.497798,-39.5,-224.7,-34.0,-0.0061086523,0.007330383,-0.029932396,-1.0,0.0,0.0,15.351876,-1.9626536,-0.9454471
1587633937621,-0.108936176,0.20470424,9.582792,-39.5,-224.7,-34.0,-0.004276057,-0.019547688,-0.047647487,-1.0,0.0,0.0,15.380553,-1.2237376,-0.6513283
1587633937633,-0.039504327,0.11851298,9.758766,-39.5,-224.7,-34.0,0.0018325958,-0.019547688,-0.03359759,-1.0,0.0,0.0,15.001572,-0.6959303,-0.23204349
1587633937644,-0.039504327,0.11851298,9.758766,-39.5,-224.7,-34.0,0.01038471,0.01038471,-0.0067195175,-1.0,0.0,0.0,15.001572,-0.6959303,-0.23204349
1587633937660,-0.12449849,0.20350714,10.206482,-39.5,-224.7,-34.1,0.018936822,0.11056661,0.03970624,-1.0,0.0,0.0,14.629734,-1.1421499,-0.69862115
1587633937670,-0.15682021,0.14604631,10.160992,-39.399998,-224.7,-34.0,0.052534413,0.14110987,0.055588737,-1.0,0.0,0.0,14.618895,-0.8230982,-0.8843137
1587633937681,-0.20231004,0.08379706,10.024523,-39.399998,-224.7,-34.0,0.111177474,0.15515977,0.08552113,-1.0,0.0,0.0,15.451563,-0.47892994,-1.1561123
1587633937693,-0.31364042,0.14963761,9.679757,-39.399998,-224.7,-34.0,0.16371189,0.13561209,0.11178834,-1.0,0.0,0.0,16.514723,-0.88526285,-1.8558916
1587633937703,-0.35194764,0.107739076,9.457097,-39.399998,-224.7,-34.0,0.19120082,0.096516706,0.12217305,-1.0,0.0,0.0,16.461235,-0.6523129,-2.1312551
1587633937720,-0.36870706,0.30406362,9.629479,-39.399998,-224.7,-34.0,0.055588737,0.0580322,0.13255776,-1.0,0.0,0.0,17.248764,-1.807162,-2.1927445
1587633937733,-0.2633622,0.320823,9.67856,-39.399998,-224.79999,-34.1,-0.0036651916,0.11178834,0.1386664,-1.0,0.0,0.0,15.905312,-1.8977745,-1.5586741
1587633937745,-0.31244332,0.2837129,9.639056,-39.3,-224.79999,-34.1,-0.0421497,0.15699236,0.14844026,-1.0,0.0,0.0,15.834723,-1.6851896,-1.8564206
1587633937750,-0.31244332,0.2837129,9.639056,-39.3,-224.79999,-34.1,-0.0580322,0.16432275,0.15210545,-1.0,0.0,0.0,15.834723,-1.6851896,-1.8564206
1587633937760,-0.36750996,0.33279404,9.522937,-39.3,-224.9,-34.1,-0.03481932,0.10262536,0.13744467,-1.0,0.0,0.0,16.437958,-1.9997629,-2.2098572
1587633937770,-0.38307226,0.40222588,9.356541,-39.3,-224.9,-34.1,0.0012217305,0.040317107,0.106901415,-1.0,0.0,0.0,16.372034,-2.4593647,-2.3444452
1587633937780,-0.37229836,0.3878607,9.3026705,-39.3,-224.9,-34.1,0.037873644,-0.021991149,0.07819075,-1.0,0.0,0.0,16.742102,-2.3853633,-2.2916923
1587633937789,-0.35913026,0.39384618,9.424775,-39.3,-224.9,-34.1,0.07147124,-0.04337143,0.059864793,-1.0,0.0,0.0,16.704578,-2.3906376,-2.1814938
1587633937801,-0.21787235,0.5267244,9.866506,-39.2,-224.9,-34.1,0.06169739,-0.015882496,0.05131268,-1.0,0.0,0.0,16.400888,-3.0551045,-1.2649895
1587633937812,-0.21547815,0.60094464,9.92636,-39.2,-224.9,-34.1,0.002443461,0.037873644,0.04642576,-1.0,0.0,0.0,14.803013,-3.4637315,-1.2435583
1587633937824,-0.22026655,0.61650693,9.854534,-39.2,-225.0,-34.1,-0.057421334,0.09407325,0.04886922,-1.0,0.0,0.0,14.783542,-3.5785222,-1.2804387
1587633937833,-0.21308395,0.50278234,9.736021,-39.2,-225.0,-34.1,-0.07147124,0.13194689,0.0580322,-1.0,0.0,0.0,14.77947,-2.9555674,-1.2537923
1587633937844,-0.10414778,0.5231331,9.702502,-39.2,-225.0,-34.1,-0.031154128,0.14905111,0.080634214,-1.0,0.0,0.0,14.708,-3.0861094,-0.6147455
1587633937856,-0.10055647,0.5554548,9.619903,-39.2,-225.0,-34.1,0.17531833,0.096516706,0.086132,-1.0,0.0,0.0,13.978636,-3.3052278,-0.59842783
1587633937866,-0.24301147,0.46806642,9.8437605,-39.2,-225.09999,-34.1,0.2919936,0.023823744,0.047036625,-1.0,0.0,0.0,13.98102,-2.7216206,-1.4140469
1587633937877,-0.32920274,0.36750996,9.91798,-39.2,-225.09999,-34.1,0.3463606,-0.02321288,0.043982297,-1.0,0.0,0.0,15.185751,-2.1209571,-1.9010912
1587633937888,-0.36631286,0.39743748,10.036493,-39.1,-225.09999,-34.1,0.36896262,-0.054367006,0.0421497,-1.0,0.0,0.0,15.185494,-2.2659705,-2.0907366
1587633937900,-0.4297592,0.47165772,10.067618,-39.1,-225.09999,-34.2,0.35369098,-0.06536258,0.030543262,-1.0,0.0,0.0,16.068922,-2.6799474,-2.4445562
1587633937909,-0.35913026,0.56982,10.09994,-39.1,-225.09999,-34.2,0.29565877,-0.04886922,0.028710667,-1.0,0.0,0.0,16.050955,-3.2270103,-2.0365083
1587633937921,-0.33638534,0.7649474,10.103531,-39.1,-225.2,-34.2,0.19547687,-0.021991149,0.044593163,-1.0,0.0,0.0,15.606639,-4.3275003,-1.9067762
1587633937933,-0.30047232,0.89303726,9.874885,-39.1,-225.2,-34.2,0.081855945,0.032986723,0.045814894,-1.0,0.0,0.0,15.1804905,-5.165333,-1.7428082
1587633937941,-0.30047232,0.89303726,9.874885,-39.0,-225.29999,-34.3,-0.016493361,0.07391469,0.04153884,-1.0,0.0,0.0,15.1804905,-5.165333,-1.7428082
1587633937953,-0.23822308,0.81402856,9.43914,-39.0,-225.29999,-34.3,-0.08368854,0.10140363,0.045814894,-1.0,0.0,0.0,14.456357,-4.9274755,-1.4457617
1587633937965,-0.22505496,0.8583213,9.19972,-39.0,-225.29999,-34.3,-0.112399206,0.105068825,0.06047566,-1.0,0.0,0.0,14.421737,-5.329081,-1.4012676
1587633937976,-0.24181437,0.9828198,9.094376,-39.0,-225.29999,-34.3,-0.11362094,0.06536258,0.055588737,-1.0,0.0,0.0,14.097954,-6.1657877,-1.5231031
1587633937986,-0.25498247,0.89902276,8.993818,-38.899998,-225.4,-34.3,-0.13133603,-0.07147124,0.010995574,-1.0,0.0,0.0,14.106878,-5.705849,-1.6240127
1587633937998,-0.2861071,0.961272,9.344569,-38.899998,-225.4,-34.3,-0.15210545,-0.03970624,-0.0018325958,-1.0,0.0,0.0,14.063571,-5.870154,-1.7532823
1587633938008,-0.23942018,0.92416185,9.540894,-38.8,-225.4,-34.4,-0.15149458,-0.004276057,-0.0018325958,-1.0,0.0,0.0,14.044491,-5.530791,-1.4374142
1587633938020,-0.2753332,0.7625532,9.637859,-38.8,-225.5,-34.4,-0.14782938,0.017104227,0.0018325958,-1.0,0.0,0.0,13.746869,-4.521871,-1.6364067
1587633938030,-0.2669535,0.6979098,9.643845,-38.8,-225.5,-34.4,-0.12889257,0.014049901,-0.009162978,-1.0,0.0,0.0,13.749671,-4.1371408,-1.585555
1587633938042,-0.12210429,0.7290344,9.662998,-38.8,-225.5,-34.4,-0.093462385,-0.0030543262,-0.03726278,-1.0,0.0,0.0,14.421238,-4.3140645,-0.7235123
1587633938050,-0.12210429,0.7290344,9.662998,-38.8,-225.5,-34.4,-0.049480084,-0.02443461,-0.056199603,-1.0,0.0,0.0,14.421238,-4.3140645,-0.7235123
1587633938062,-0.1436521,0.36870706,9.8916445,-38.7,-225.59999,-34.4,-0.029321533,-0.03481932,-0.043982297,-1.0,0.0,0.0,13.154206,-2.1343958,-0.83204985
1587633938075,-0.18555063,0.39624038,10.0341,-38.7,-225.59999,-34.4,-0.028099801,-0.023823744,-0.016493361,-1.0,0.0,0.0,13.883155,-2.2610013,-1.0593624
1587633938086,-0.30047232,0.4189853,10.047267,-38.7,-225.7,-34.5,-0.03848451,-0.0018325958,0.004276057,-1.0,0.0,0.0,13.916617,-2.3868575,-1.7129152
1587633938097,-0.29448682,0.46806642,9.952697,-38.7,-225.7,-34.5,-0.11484267,0.048258353,0.06047566,-1.0,0.0,0.0,15.209614,-2.691529,-1.6948047
1587633938107,-0.2801216,0.5770026,9.837775,-38.7,-225.7,-34.4,-0.1160644,0.057421334,0.06352998,-1.0,0.0,0.0,15.178562,-3.3551788,-1.631016
1587633938118,-0.34237084,0.6536171,9.80665,-38.7,-225.7,-34.4,-0.09773844,0.062308256,0.06291912,-1.0,0.0,0.0,14.76628,-3.81082,-1.9994956
1587633938130,-0.37948096,0.6979098,9.781511,-38.6,-225.79999,-34.4,-0.0720821,0.059253927,0.062308256,-1.0,0.0,0.0,14.752015,-4.0777016,-2.221443
1587633938143,-0.40342298,0.7206547,9.746795,-38.6,-225.79999,-34.4,-0.0720821,0.059253927,0.062308256,-1.0,0.0,0.0,15.20017,-4.224522,-2.369683
1587633938154,-0.40342298,0.7206547,9.746795,-38.6,-225.79999,-34.4,-0.0720821,0.059253927,0.062308256,-1.0,0.0,0.0,15.20017,-4.224522,-2.369683
1587633938165,-0.31124622,0.7541735,9.585187,-38.6,-225.9,-34.4,-0.004886922,0.077579886,0.080634214,-1.0,0.0,0.0,15.226235,-4.4964294,-1.8600274
1587633938175,-0.30047232,0.81881696,9.531317,-38.6,-226.0,-34.5,0.002443461,0.056199603,0.08368854,-1.0,0.0,0.0,15.182919,-4.9079614,-1.8055891
1587633938187,-0.29688102,0.82001406,9.625888,-38.6,-226.0,-34.5,0.03359759,-6.1086525E-4,0.05681047,-1.0,0.0,0.0,14.3457365,-4.866842,-1.7665406
1587633938197,-0.2813187,0.7721301,9.712079,-38.5,-226.09999,-34.4,0.043982297,-0.01038471,0.03970624,-1.0,0.0,0.0,14.315329,-4.544004,-1.6592307
1587633938208,-0.260968,0.8702923,9.737218,-38.5,-226.09999,-34.4,0.032375857,-0.0067195175,0.013439035,-1.0,0.0,0.0,14.089017,-5.1055965,-1.5352191
1587633938219,-0.260968,0.81522566,9.8916445,-38.5,-226.2,-34.4,0.050701816,0.014049901,0.014660766,-1.0,0.0,0.0,14.091056,-4.7098885,-1.5112652
1587633938230,-0.17836803,0.557849,10.031705,-38.399998,-226.29999,-34.5,0.11301007,0.03481932,0.040317107,-1.0,0.0,0.0,13.8918,-4.7751784,-1.4995124
1587633938241,-0.28491,0.712275,10.135853,-38.399998,-226.29999,-34.5,0.16493362,0.039095376,0.047647487,-1.0,0.0,0.0,13.6801605,-4.9888334,-1.4990383
1587633938252,-0.2669535,0.7577648,10.061633,-38.399998,-226.4,-34.4,0.1881465,0.0580322,0.032986723,-1.0,0.0,0.0,13.673212,-5.1178823,-1.5115777
1587633938263,-0.19991584,0.7565677,9.949105,-38.399998,-226.4,-34.4,0.19364429,0.06352998,0.03176499,-1.0,0.0,0.0,13.666908,-5.2476845,-1.5259628
1587633938272,-0.11611878,0.81402856,9.793482,-38.399998,-226.5,-34.5,0.19120082,0.07452556,0.030543262,-1.0,0.0,0.0,13.661035,-5.3745112,-1.5436475
1587633938283,-0.093373865,0.8858546,9.750386,-38.399998,-226.5,-34.5,0.18325958,0.086132,0.032986723,-1.0,0.0,0.0,13.6635475,-5.49744,-1.5647314
1587633938294,-0.12330139,1.0247183,9.500193,-38.3,-226.59999,-34.5,0.17592919,0.1020145,0.018936822,-1.0,0.0,0.0,13.663725,-5.619835,-1.5939587
1587633938307,-0.12569559,0.9995792,9.49301,-38.3,-226.59999,-34.5,0.09712757,0.040927973,0.009162978,-1.0,0.0,0.0,13.640501,-5.726074,-1.6008984
1587633938317,-0.12330139,1.0426749,9.646238,-38.3,-226.7,-34.5,0.069027774,0.057421334,0.012217305,-1.0,0.0,0.0,13.644914,-5.8087215,-1.5941352
1587633938334,-0.2705448,1.021127,9.506178,-38.3,-226.79999,-34.5,0.04642576,0.050701816,0.036651913,-1.0,0.0,0.0,13.614303,-5.934046,-1.5957634
1587633938344,-0.35194764,1.2964603,9.404425,-38.3,-226.79999,-34.5,0.045814894,0.059864793,0.06352998,-1.0,0.0,0.0,13.579505,-5.9986477,-1.6031793
1587633938356,-0.2657564,1.4317327,9.344569,-38.3,-226.79999,-34.6,0.09590584,0.015271631,-0.015271631,-1.0,0.0,0.0,13.571095,-6.0799875,-1.6095531
1587633938366,-0.23343466,1.3874398,9.431957,-38.3,-226.79999,-34.6,0.115453534,-0.014049901,-0.059864793,-1.0,0.0,0.0,13.568969,-6.179609,-1.5975946
1587633938375,-0.25019407,1.1647792,9.52174,-38.2,-227.0,-34.6,0.115453534,-0.014049901,-0.059864793,-1.0,0.0,0.0,13.614326,-6.290155,-1.5724944
1587633938389,-0.2681506,0.90381116,9.5013895,-38.2,-227.0,-34.6,0.13255776,-0.07391469,-0.05375614,-1.0,0.0,0.0,13.583117,-6.400967,-1.5373021
1587633938399,-0.30286652,0.92535895,9.647436,-38.2,-227.09999,-34.6,0.1282817,-0.095294975,-0.039095376,-1.0,0.0,0.0,13.625238,-6.513527,-1.4806678
1587633938410,-0.3854665,1.0175357,9.7958765,-38.2,-227.2,-34.7,0.07941248,-0.08735373,-0.034208454,-1.0,0.0,0.0,13.532837,-6.6218286,-1.4132115
1587633938421,-0.29688102,1.067814,9.958682,-38.2,-227.2,-34.7,0.028710667,-0.047647487,-0.032375857,-1.0,0.0,0.0,13.44838,-6.761067,-1.3067453
1587633938432,-0.20949265,1.0510546,9.938332,-38.2,-227.29999,-34.7,-0.03848451,-0.0067195175,-0.018325957,-1.0,0.0,0.0,13.468255,-6.76988,-1.29127
1587633938442,-0.23223756,1.1336545,9.89763,-38.2,-227.29999,-34.7,-0.09773844,0.02687807,-0.002443461,-1.0,0.0,0.0,13.360947,-6.746643,-1.29298
1587633938455,-0.2789245,1.1875241,9.78989,-38.2,-227.4,-34.8,-0.1282817,0.05131268,-0.0012217305,-1.0,0.0,0.0,13.369547,-6.708701,-1.308133
1587633938465,-0.3172317,1.1384429,9.751583,-38.2,-227.4,-34.8,-0.1386664,0.059253927,-0.0030543262,-1.0,0.0,0.0,13.304573,-6.666018,-1.3282403
1587633938476,-0.30406362,1.0654198,9.662998,-38.2,-227.5,-34.9,-0.1337795,0.07269296,0.010995574,-1.0,0.0,0.0,13.306066,-6.626925,-1.3549478
1587633938486,-0.31004912,1.0965444,9.554062,-38.2,-227.5,-34.9,-0.087964594,0.04520403,0.03970624,-1.0,0.0,0.0,13.261046,-6.597865,-1.3769985
1587633938499,-0.34356794,1.1767502,9.372103,-38.2,-227.59999,-34.9,-0.050701816,-0.009162978,0.029321533,-1.0,0.0,0.0,13.246729,-6.5877275,-1.3870509
1587633938510,-0.34117374,1.1264719,9.390059,-38.2,-227.7,-35.0,-0.017104227,-0.04642576,0.02443461,-1.0,0.0,0.0,13.223072,-6.5993543,-1.3677316
1587633938520,-0.3196259,1.0821792,9.718064,-38.2,-227.7,-35.0,-0.009162978,-0.03970624,0.014049901,-1.0,0.0,0.0,13.218782,-6.628998,-1.3288013
1587633938530,-0.31244332,1.0702082,9.827001,-38.3,-227.79999,-34.9,-0.03970624,-0.0018325958,0.004276057,-1.0,0.0,0.0,13.191033,-6.6615915,-1.2953252
1587633938542,-0.30406362,1.0869676,9.728839,-38.3,-227.79999,-34.9,-0.07696902,0.02076942,0.004886922,-1.0,0.0,0.0,13.218891,-6.6685205,-1.2858505
1587633938552,-0.2813187,1.0773908,9.630676,-38.3,-227.79999,-35.0,-0.08979719,0.028710667,0.0018325958,-1.0,0.0,0.0,13.226673,-6.6541095,-1.2917095
1587633938564,-0.25378537,1.1049241,9.611523,-38.3,-227.79999,-35.0,-0.081855945,0.022602014,0.0030543262,-1.0,0.0,0.0,13.2457695,-6.6448393,-1.2930976
1587633938574,-0.25977087,1.1611878,9.68694,-38.3,-227.9,-34.9,-0.06169739,0.004276057,0.007941248,-1.0,0.0,0.0,13.250254,-6.648091,-1.2831565
1587633938586,-0.20350714,1.1659763,9.7240505,-38.3,-227.9,-34.9,-0.040927973,0.010995574,0.015882496,-1.0,0.0,0.0,13.26228,-6.6629066,-1.2706903
1587633938597,-0.17357962,1.1839328,9.743204,-38.3,-228.0,-35.0,-0.053145275,0.031154128,0.021991149,-1.0,0.0,0.0,13.262131,-6.6794076,-1.261419
1587633938610,-0.15682021,1.1575965,9.690532,-38.3,-228.0,-35.0,-0.07574729,0.05131268,0.02565634,-1.0,0.0,0.0,13.271434,-6.690014,-1.2617667
1587633938618,-0.17238252,1.1623849,9.645041,-38.3,-228.09999,-35.0,-0.08979719,0.04642576,0.02687807,-1.0,0.0,0.0,13.265371,-6.687642,-1.2718544
1587633938630,-0.22385786,1.1336545,9.599552,-38.3,-228.09999,-35.0,-0.07269296,0.02076942,0.031154128,-1.0,0.0,0.0,13.285612,-6.677283,-1.2795582
1587633938641,-0.22026655,1.1001357,9.593566,-38.3,-228.2,-35.0,-0.06414085,0.009773844,0.028099801,-1.0,0.0,0.0,13.275948,-6.676522,-1.2722476
1587633938651,-0.23942018,1.1300632,9.703699,-38.2,-228.2,-35.1,-0.07269296,0.008552114,0.02443461,-1.0,0.0,0.0,13.296107,-6.680519,-1.2591782
1587633938662,-0.2669535,1.1504139,9.849746,-38.2,-228.2,-35.1,-0.07941248,0.018936822,0.019547688,-1.0,0.0,0.0,13.271032,-6.674608,-1.2390876
1587633938674,-0.2873042,1.1264719,9.848549,-38.3,-228.29999,-35.1,-0.07941248,0.032375857,0.013439035,-1.0,0.0,0.0,13.271678,-6.6694403,-1.2411237
1587633938685,-0.30047232,1.1252748,9.77792,-38.3,-228.29999,-35.1,-0.06414085,0.04520403,0.014049901,-1.0,0.0,0.0,13.305034,-6.672826,-1.2510533
1587633938695,-0.25617957,1.1444284,9.683349,-38.3,-228.4,-35.1,-0.047647487,0.05009095,0.017104227,-1.0,0.0,0.0,13.304011,-6.685767,-1.2634972
1587633938709,-0.22146365,1.1815386,9.629479,-38.3,-228.4,-35.1,-0.004276057,0.03359759,0.013439035,-1.0,0.0,0.0,13.344414,-6.710691,-1.2762241
1587633938714,-0.24779987,1.1887212,9.591172,-38.3,-228.5,-35.2,-0.004276057,0.03359759,0.013439035,-1.0,0.0,0.0,13.345993,-6.748936,-1.2789383
1587633938727,-0.23104046,1.1875241,9.726444,-38.3,-228.5,-35.2,0.007330383,6.1086525E-4,0.014049901,-1.0,0.0,0.0,13.38022,-6.794654,-1.26432
1587633938741,-0.16160862,1.1623849,9.78989,-38.3,-228.59999,-35.2,-0.015882496,0.014049901,0.021991149,-1.0,0.0,0.0,13.381478,-6.8383403,-1.2475085
1587633938751,-0.2789245,1.1360487,9.752781,-38.2,-228.7,-35.3,-0.03481932,0.014660766,0.018936822,-1.0,0.0,0.0,13.397565,-6.888817,-1.2293987
1587633938761,-0.28491,1.1456255,9.700109,-38.2,-228.7,-35.3,-0.05681047,0.018325957,0.021380283,-1.0,0.0,0.0,13.378967,-6.895574,-1.2235117
1587633938773,-0.30166942,1.1695676,9.67856,-38.3,-228.79999,-35.4,-0.065973446,0.021991149,0.026267206,-1.0,0.0,0.0,13.372572,-6.8973136,-1.2201715
1587633938782,-0.30526072,1.210269,9.668983,-38.3,-228.79999,-35.4,-0.07391469,0.023823744,0.02687807,-1.0,0.0,0.0,13.397916,-6.8952227,-1.2185189
1587633938793,-0.29688102,1.2114661,9.6845455,-38.3,-228.79999,-35.5,-0.08002335,0.02687807,0.02565634,-1.0,0.0,0.0,13.391869,-6.8903074,-1.2192298
1587633938805,-0.2825158,1.2677298,9.680955,-38.3,-228.79999,-35.5,-0.09590584,0.03481932,0.028710667,-1.0,0.0,0.0,13.415324,-6.87772,-1.224409
1587633938814,-0.24420857,1.283292,9.67018,-38.3,-228.9,-35.5,-0.12217305,0.05009095,0.027488936,-1.0,0.0,0.0,13.407634,-6.8517475,-1.2378961
1587633938828,-0.22864626,1.1827357,9.628283,-38.3,-228.9,-35.5,-0.14110987,0.06414085,0.019547688,-1.0,0.0,0.0,13.45637,-6.816106,-1.2599448
1587633938837,-0.21547815,1.1240777,9.524135,-38.3,-229.0,-35.6,-0.12950343,0.047036625,0.026267206,-1.0,0.0,0.0,13.452774,-6.77912,-1.2802235
1587633938848,-0.24420857,1.1264719,9.582792,-38.3,-229.0,-35.6,-0.095294975,0.017715093,0.029932396,-1.0,0.0,0.0,13.5106945,-6.7486067,-1.2899845
1587633938862,-0.25258827,1.1360487,9.721656,-38.3,-229.09999,-35.7,-0.07880162,0.007330383,0.031154128,-1.0,0.0,0.0,13.551816,-6.7349916,-1.2697976
1587633938872,-0.2885013,1.1168951,9.734824,-38.3,-229.09999,-35.7,-0.06047566,-0.0018325958,0.032375857,-1.0,0.0,0.0,13.54189,-6.7424364,-1.2520556
1587633938882,-0.30166942,1.1145009,9.662998,-38.3,-229.09999,-35.7,-0.048258353,-0.0012217305,0.032375857,-1.0,0.0,0.0,13.572246,-6.756204,-1.2356137
1587633938892,-0.29328972,1.1061212,9.646238,-38.2,-229.2,-35.8,-0.040317107,0.004886922,0.03359759,-1.0,0.0,0.0,13.562089,-6.7737346,-1.2232927
1587633938904,-0.25378537,1.1563994,9.647436,-38.2,-229.2,-35.8,-0.047647487,0.015271631,0.028099801,-1.0,0.0,0.0,13.558744,-6.787015,-1.2171335
1587633938916,-0.23104046,1.2162545,9.640253,-38.3,-229.2,-35.8,-0.061086524,0.02565634,0.028710667,-1.0,0.0,0.0,13.551046,-6.7934394,-1.2163012
1587633938926,-0.21308395,1.2521675,9.634268,-38.3,-229.2,-35.8,-0.081855945,0.043982297,0.020158553,-1.0,0.0,0.0,13.583867,-6.79607,-1.2211986
1587633938939,-0.22864626,1.2258313,9.610326,-38.3,-229.2,-35.8,-0.10567969,0.040927973,0.01282817,-1.0,0.0,0.0,13.580703,-6.7923837,-1.2303115
1587633938950,-0.19871874,1.2545617,9.5732155,-38.3,-229.2,-35.8,-0.12950343,0.03726278,-0.0036651916,-1.0,0.0,0.0,13.620324,-6.7762537,-1.2374616
1587633938961,-0.22146365,1.1252748,9.661801,-38.3,-229.2,-35.8,-0.13133603,0.03970624,-0.0018325958,-1.0,0.0,0.0,13.630203,-6.745732,-1.2432103
1587633938971,-0.2681506,0.9792285,9.673772,-38.3,-229.2,-35.9,-0.12156218,0.031154128,0.01038471,-1.0,0.0,0.0,13.675295,-6.7120667,-1.2503257
1587633938982,-0.2873042,1.0881647,9.76116,-38.3,-229.2,-35.9,-0.1020145,0.02565634,0.015271631,-1.0,0.0,0.0,13.708632,-6.665195,-1.2516897
1587633938992,-0.2873042,1.0881647,9.76116,-38.3,-229.2,-35.9,-0.077579886,0.016493361,0.005497787,-1.0,0.0,0.0,13.708632,-6.665195,-1.2516897
1587633939007,-0.24660277,1.0953473,9.753978,-38.3,-229.2,-36.0,-0.055588737,0.015882496,0.004886922,-1.0,0.0,0.0,13.741276,-6.666716,-1.2394813
1587633939017,-0.22625206,1.151611,9.672575,-38.3,-229.2,-36.0,-0.07513642,0.009162978,0.004276057,-1.0,0.0,0.0,13.74723,-6.674443,-1.2334776
1587633939028,-0.22625206,1.1719618,9.657013,-38.3,-229.2,-36.0,-0.09773844,0.01160644,0.0036651916,-1.0,0.0,0.0,13.760791,-6.671692,-1.2234364
1587633939039,-0.23223756,1.1300632,9.67018,-38.3,-229.2,-36.0,-0.10934488,0.017104227,0.005497787,-1.0,0.0,0.0,13.7669325,-6.6561837,-1.2146518
1587633939049,-0.24301147,1.1300632,9.727641,-38.3,-229.2,-36.0,-0.103847094,0.02687807,0.010995574,-1.0,0.0,0.0,13.771888,-6.6342263,-1.2089058
1587633939061,-0.30765492,1.1528081,9.751583,-38.3,-229.2,-36.0,-0.08307768,0.028099801,0.01160644,-1.0,0.0,0.0,13.773815,-6.6160054,-1.2093006
1587633939072,-0.2693477,1.1192893,9.738416,-38.399998,-229.29999,-36.0,-0.06536258,0.023823744,0.014049901,-1.0,0.0,0.0,13.781827,-6.6127214,-1.2106951
1587633939082,-0.24301147,1.1336545,9.7324295,-38.399998,-229.29999,-36.0,-0.06536258,0.023823744,0.01160644,-1.0,0.0,0.0,13.830631,-6.6162286,-1.2099147
1587633939094,-0.2681506,1.1575965,9.76116,-38.399998,-229.29999,-35.9,-0.077579886,0.034208454,0.010995574,-1.0,0.0,0.0,13.832936,-6.6130424,-1.2151091
1587633939105,-0.31004912,1.1145009,9.7719345,-38.399998,-229.29999,-35.9,-0.0983493,0.047647487,0.0067195175,-1.0,0.0,0.0,13.881213,-6.597857,-1.2287194
1587633939116,-0.2705448,1.1204864,9.744401,-38.399998,-229.29999,-36.0,-0.08124508,0.03970624,-0.0030543262,-1.0,0.0,0.0,13.889983,-6.5803742,-1.2451081
1587633939126,-0.260968,1.1061212,9.67018,-38.399998,-229.29999,-36.0,-0.08124508,0.03970624,-0.0030543262,-1.0,0.0,0.0,13.941301,-6.574803,-1.2543037
1587633939138,-0.29448682,1.091756,9.643845,-38.3,-229.29999,-36.0,-0.048258353,0.018936822,0.004886922,-1.0,0.0,0.0,13.950989,-6.5841937,-1.2568382
1587633939148,-0.25737667,1.1815386,9.659407,-38.3,-229.29999,-36.0,-0.049480084,0.026267206,0.01282817,-1.0,0.0,0.0,13.949651,-6.597816,-1.2539115
1587633939161,-0.25737667,1.1815386,9.659407,-38.3,-229.2,-35.9,-0.061086524,0.037873644,0.021991149,-1.0,0.0,0.0,13.951242,-6.611282,-1.2545204
1587633939172,-0.2861071,1.2090719,9.622296,-38.3,-229.2,-36.0,-0.08552113,0.03726278,0.02321288,-1.0,0.0,0.0,13.93387,-6.6191883,-1.2613958
1587633939182,-0.2765303,1.1540052,9.657013,-38.3,-229.2,-36.0,-0.1001819,0.035430185,0.021380283,-1.0,0.0,0.0,13.919811,-6.6002197,-1.2734096
1587633939192,-0.2813187,1.0845734,9.667787,-38.3,-229.2,-36.0,-0.100792766,0.03726278,0.017715093,-1.0,0.0,0.0,13.917968,-6.585436,-1.2802054
1587633939206,-0.24181437,1.0414777,9.67018,-38.3,-229.2,-36.0,-0.086132,0.027488936,0.014049901,-1.0,0.0,0.0,13.918365,-6.5778904,-1.2810667
1587633939216,-0.24899697,1.0534488,9.679757,-38.399998,-229.29999,-35.9,-0.049480084,-0.015271631,0.004886922,-1.0,0.0,0.0,13.919733,-6.5815797,-1.2695256
1587633939225,-0.2801216,1.067814,9.736021,-38.399998,-229.29999,-35.9,-0.049480084,-0.015271631,0.004886922,-1.0,0.0,0.0,13.958905,-6.592942,-1.2472005
1587633939237,-0.23942018,1.0881647,9.765948,-38.3,-229.2,-35.9,-0.03970624,-0.007941248,0.0018325958,-1.0,0.0,0.0,13.966253,-6.607692,-1.2219026
1587633939247,-0.2705448,1.1264719,9.76116,-38.3,-229.2,-35.9,-0.048258353,0.008552114,0.008552114,-1.0,0.0,0.0,13.937755,-6.624143,-1.2040359
1587633939258,-0.2825158,1.1587936,9.740809,-38.399998,-229.29999,-35.9,-0.059864793,0.022602014,0.009773844,-1.0,0.0,0.0,13.941917,-6.636068,-1.1956795
1587633939268,-0.2896984,1.1097125,9.765948,-38.399998,-229.29999,-35.9,-0.064751714,0.045814894,0.017104227,-1.0,0.0,0.0,13.955918,-6.6411576,-1.1955734
1587633939282,-0.2693477,1.1683705,9.827001,-38.399998,-229.29999,-35.9,-0.05497787,0.056199603,0.03359759,-1.0,0.0,0.0,13.962955,-6.6528163,-1.2249154
1587633939292,-0.25019407,0.8511387,9.809045,-38.399998,-229.29999,-35.9,-0.020158553,0.07269296,0.04337143,-1.0,0.0,0.0,13.94723,-6.677723,-1.2504246
1587633939302,-0.23104046,1.0642227,9.619903,-38.399998,-229.29999,-35.9,0.008552114,0.04886922,0.054367006,-1.0,0.0,0.0,13.95385,-6.718092,-1.2608718
1587633939313,-0.1592144,1.2569559,9.740809,-38.399998,-229.2,-35.9,0.01282817,0.015271631,0.028710667,-1.0,0.0,0.0,13.946826,-6.7631536,-1.2522657
1587633939323,-0.10175357,1.163582,9.765948,-38.399998,-229.2,-35.9,0.007941248,0.0061086523,0.009162978,-1.0,0.0,0.0,13.950874,-6.805333,-1.2380913
1587633939336,-0.18794483,1.1360487,9.740809,-38.399998,-229.2,-35.9,0.007941248,0.007941248,0.0030543262,-1.0,0.0,0.0,13.958355,-6.8466897,-1.2252727
1587633939346,-0.29448682,1.2030864,9.706094,-38.399998,-229.2,-35.9,0.014660766,-0.0061086523,-0.01160644,-1.0,0.0,0.0,13.95773,-6.8921776,-1.2107033
1587633939356,-0.2693477,1.2174516,9.65821,-38.399998,-229.2,-35.9,-0.002443461,-0.010995574,-0.0018325958,-1.0,0.0,0.0,13.974114,-6.938726,-1.192494
1587633939368,-0.23463176,1.2126632,9.645041,-38.399998,-229.2,-35.9,-0.018325957,-0.0030543262,6.1086525E-4,-1.0,0.0,0.0,13.948799,-6.9753823,-1.1713761
1587633939378,-0.23463176,1.3251907,9.48463,-38.399998,-229.29999,-35.9,-0.042760566,-0.0030543262,0.002443461,-1.0,0.0,0.0,13.957657,-7.005146,-1.154638
1587633939389,-0.19153613,1.3838485,9.498995,-38.399998,-229.29999,-35.9,-0.042760566,-0.0030543262,0.002443461,-1.0,0.0,0.0,13.928916,-7.0234146,-1.1374023
1587633939399,-0.23343466,1.2246342,9.524135,-38.399998,-229.29999,-35.9,-0.124005646,0.01038471,0.0036651916,-1.0,0.0,0.0,13.939711,-7.01541,-1.1284405
1587633939411,-0.2873042,1.1180922,9.673772,-38.399998,-229.29999,-36.0,-0.15027285,0.009162978,0.017715093,-1.0,0.0,0.0,13.908145,-6.9442835,-1.1106884
1587633939420,-0.2873042,1.1180922,9.673772,-38.399998,-229.29999,-36.0,-0.1386664,0.028099801,0.02443461,-1.0,0.0,0.0,13.908145,-6.9442835,-1.1106884
1587633939432,-0.32920274,1.0761937,9.7719345,-38.399998,-229.29999,-36.0,-0.1142318,0.03481932,0.032986723,-1.0,0.0,0.0,13.866752,-6.8816395,-1.118805
1587633939444,-0.2717419,1.0749966,9.785102,-38.399998,-229.29999,-36.0,-0.093462385,0.03176499,0.036651913,-1.0,0.0,0.0,13.844454,-6.8675838,-1.1230977
1587633939453,-0.2669535,1.0869676,9.868899,-38.399998,-229.29999,-35.9,-0.07391469,0.02565634,0.029321533,-1.0,0.0,0.0,13.836507,-6.863534,-1.1243906
1587633939464,-0.2633622,1.1336545,9.872491,-38.399998,-229.29999,-35.9,-0.06352998,0.02443461,0.019547688,-1.0,0.0,0.0,13.82781,-6.864984,-1.1255628
1587633939476,-0.24061728,1.1611878,9.787497,-38.399998,-229.29999,-35.9,-0.03726278,0.01160644,0.005497787,-1.0,0.0,0.0,13.830312,-6.8749356,-1.12575
1587633939483,-0.20590134,1.1599907,9.720459,-38.399998,-229.29999,-35.9,-0.03726278,0.01160644,0.005497787,-1.0,0.0,0.0,13.826409,-6.891479,-1.1193342
1587633939495,-0.17597382,1.1923125,9.640253,-38.5,-229.29999,-35.9,-0.028710667,0.005497787,0.004276057,-1.0,0.0,0.0,13.833144,-6.9135294,-1.108454
1587633939506,-0.20709845,1.2294226,9.660604,-38.5,-229.29999,-35.9,-0.042760566,-0.007330383,0.009162978,-1.0,0.0,0.0,13.851821,-6.935748,-1.0866818
1587633939518,-0.24899697,1.22224,9.746795,-38.5,-229.29999,-36.0,-0.04642576,-0.0030543262,0.015882496,-1.0,0.0,0.0,13.855613,-6.9510446,-1.068348
1587633939531,-0.25857377,1.2605472,9.727641,-38.5,-229.29999,-35.9,-0.037873644,-6.1086525E-4,0.021991149,-1.0,0.0,0.0,13.855549,-6.965158,-1.0525827
1587633939541,-0.24899697,1.2761095,9.679757,-38.5,-229.29999,-35.9,-0.036651913,0.0036651916,0.025045475,-1.0,0.0,0.0,13.852083,-6.9852467,-1.0381025
1587633939551,-0.25139117,1.2988545,9.702502,-38.5,-229.29999,-35.9,-0.039095376,0.02321288,0.028099801,-1.0,0.0,0.0,13.836272,-7.007284,-1.0260917
1587633939563,-0.29448682,1.2952632,9.635465,-38.5,-229.29999,-35.9,-0.047647487,0.02687807,0.030543262,-1.0,0.0,0.0,13.813609,-7.0449753,-1.0279468
1587633939573,-0.2777274,1.2497733,9.607931,-38.5,-229.29999,-35.8,-0.0580322,0.030543262,0.027488936,-1.0,0.0,0.0,13.806977,-7.0562387,-1.0329481
1587633939585,-0.21667525,1.270124,9.585187,-38.5,-229.29999,-35.8,-0.065973446,0.027488936,0.02443461,-1.0,0.0,0.0,13.801987,-7.0633435,-1.0357628
1587633939594,-0.23582886,1.2557588,9.566033,-38.5,-229.29999,-35.8,-0.06719518,0.025045475,0.021991149,-1.0,0.0,0.0,13.798374,-7.0699573,-1.0371538
1587633939606,-0.2801216,1.234211,9.674969,-38.5,-229.29999,-35.8,-0.08002335,0.013439035,0.007941248,-1.0,0.0,0.0,13.798649,-7.0731525,-1.0364115
1587633939616,-0.28491,1.2186487,9.733627,-38.5,-229.4,-35.8,-0.08246681,0.018936822,0.009162978,-1.0,0.0,0.0,13.803144,-7.071607,-1.0331475
1587633939628,-0.2801216,1.2162545,9.7563715,-38.5,-229.4,-35.8,-0.07269296,0.03176499,0.01282817,-1.0,0.0,0.0,13.812248,-7.068268,-1.033286
1587633939638,-0.24061728,1.1827357,9.742006,-38.5,-229.4,-35.7,-0.055588737,0.03604105,0.01282817,-1.0,0.0,0.0,13.81395,-7.069592,-1.0398623
1587633939652,-0.19033903,1.2330139,9.657013,-38.5,-229.4,-35.7,-0.042760566,0.030543262,0.014049901,-1.0,0.0,0.0,13.823227,-7.097746,-1.0514288
1587633939663,-0.19512744,1.1563994,9.628283,-38.5,-229.4,-35.7,-0.04886922,0.021991149,0.01160644,-1.0,0.0,0.0,13.825533,-7.110982,-1.049648
1587633939673,-0.19871874,1.1875241,9.581595,-38.5,-229.4,-35.8,-0.06169739,0.022602014,0.01282817,-1.0,0.0,0.0,13.826949,-7.1166573,-1.0476205
1587633939683,-0.23942018,1.2030864,9.64145,-38.5,-229.4,-35.8,-0.08368854,0.017715093,0.010995574,-1.0,0.0,0.0,13.82923,-7.1096935,-1.0431591
1587633939694,-0.25258827,1.1707647,9.685743,-38.5,-229.4,-35.7,-0.10140363,0.020158553,0.007330383,-1.0,0.0,0.0,13.83352,-7.0921655,-1.0407249
1587633939704,-0.25139117,1.163582,9.700109,-38.5,-229.4,-35.7,-0.11301007,0.020158553,0.01038471,-1.0,0.0,0.0,13.835889,-7.068413,-1.0385494
1587633939717,-0.25857377,1.1731589,9.653421,-38.5,-229.4,-35.7,-0.10629055,0.01160644,0.010995574,-1.0,0.0,0.0,13.839389,-7.041094,-1.0369871
1587633939728,-0.24301147,1.1959038,9.66659,-38.5,-229.4,-35.7,-0.09162979,0.01038471,0.01282817,-1.0,0.0,0.0,13.841553,-7.021458,-1.0304637
1587633939738,-0.20590134,1.2174516,9.728839,-38.5,-229.5,-35.7,-0.076358154,0.018936822,0.020158553,-1.0,0.0,0.0,13.842784,-7.0102754,-1.0224973
1587633939748,-0.18794483,1.210269,9.7803135,-38.5,-229.5,-35.7,-0.061086524,0.03848451,0.028710667,-1.0,0.0,0.0,13.846362,-7.007931,-1.0182296
1587633939760,-0.17836803,1.2401965,9.698911,-38.5,-229.5,-35.7,-0.043982297,0.03726278,0.025045475,-1.0,0.0,0.0,13.838513,-7.0148196,-1.0238048
1587633939769,-0.20829555,1.1815386,9.623494,-38.5,-229.5,-35.7,-0.047647487,0.02443461,0.02565634,-1.0,0.0,0.0,13.842159,-7.031073,-1.0287211
1587633939781,-0.20231004,1.1971009,9.657013,-38.5,-229.5,-35.7,-0.05497787,0.01038471,0.018325957,-1.0,0.0,0.0,13.838232,-7.054714,-1.0163236
1587633939792,-0.21428105,1.1540052,9.730036,-38.5,-229.5,-35.8,-0.065973446,0.01038471,0.01160644,-1.0,0.0,0.0,13.840235,-7.057319,-1.0068531
1587633939803,-0.23223756,1.1563994,9.712079,-38.5,-229.5,-35.8,-0.07269296,0.017715093,0.009162978,-1.0,0.0,0.0,13.838304,-7.055577,-1.0020677
1587633939813,-0.23343466,1.1959038,9.701305,-38.5,-229.5,-35.7,-0.07452556,0.018325957,0.009773844,-1.0,0.0,0.0,13.841349,-7.0528865,-0.99787563
1587633939824,-0.18794483,1.2330139,9.727641,-38.5,-229.5,-35.7,-0.07452556,0.017715093,0.01038471,-1.0,0.0,0.0,13.840222,-7.0507054,-0.9928598
1587633939836,-0.21428105,1.2330139,9.646238,-38.5,-229.5,-35.7,-0.07819075,0.03848451,0.005497787,-1.0,0.0,0.0,13.845632,-7.0469136,-0.9999999
1587633939847,-0.19153613,1.2294226,9.610326,-38.5,-229.5,-35.7,-0.07391469,0.03481932,0.015882496,-1.0,0.0,0.0,13.848886,-7.0443206,-1.0061249
1587633939857,-0.20350714,1.2378023,9.594764,-38.399998,-229.5,-35.7,-0.06963864,0.028099801,0.016493361,-1.0,0.0,0.0,13.848275,-7.044025,-1.0099226
1587633939870,-0.23223756,1.2186487,9.621099,-38.399998,-229.5,-35.7,-0.06841691,0.028099801,0.015882496,-1.0,0.0,0.0,13.812105,-7.046331,-1.0101562
1587633939880,-0.25617957,1.2042835,9.607931,-38.399998,-229.5,-35.8,-0.06719518,0.02687807,0.017104227,-1.0,0.0,0.0,13.811671,-7.049296,-1.0110568
1587633939890,-0.24181437,1.2389994,9.5971575,-38.399998,-229.5,-35.8,-0.08368854,0.021991149,0.01160644,-1.0,0.0,0.0,13.78168,-7.053388,-1.0115098
1587633939903,-0.24660277,1.1971009,9.751583,-38.399998,-229.5,-35.8,-0.11056661,0.026267206,0.008552114,-1.0,0.0,0.0,13.763913,-7.0274615,-1.011058
1587633939913,-0.22385786,1.1815386,9.7958765,-38.399998,-229.59999,-35.7,-0.14966199,0.032986723,0.0030543262,-1.0,0.0,0.0,13.770172,-6.983941,-1.0162349
1587633939925,-0.21068975,1.2030864,9.773131,-38.399998,-229.59999,-35.7,-0.17104226,0.045814894,0.0012217305,-1.0,0.0,0.0,13.777147,-6.9290805,-1.0283705
1587633939935,-0.22266077,1.1935096,9.691729,-38.399998,-229.5,-35.8,-0.17715092,0.0580322,0.002443461,-1.0,0.0,0.0,13.783321,-6.871163,-1.0471551
1587633939948,-0.22266077,1.2509704,9.598354,-38.399998,-229.5,-35.8,-0.1685988,0.056199603,0.017715093,-1.0,0.0,0.0,13.793282,-6.8214645,-1.0637918
1587633939959,-0.22625206,1.2952632,9.5732155,-38.399998,-229.5,-35.7,-0.2144137,0.065973446,0.020158553,-1.0,0.0,0.0,13.790695,-6.772614,-1.0804584
1587633939969,-0.2801216,1.34195,9.600749,-38.399998,-229.5,-35.7,-0.29871312,0.0842994,0.015882496,-1.0,0.0,0.0,13.814423,-6.701287,-1.1034716
1587633939980,-0.34237084,1.3036429,9.672575,-38.399998,-229.5,-35.7,-0.4111123,0.118507855,0.021380283,-1.0,0.0,0.0,13.811666,-6.585219,-1.1390184
1587633939991,-0.36272156,1.174356,9.690532,-38.399998,-229.4,-35.7,-0.51068336,0.14049901,0.026267206,-1.0,0.0,0.0,13.876866,-6.4094367,-1.1945281
1587633940001,-0.33039984,1.0534488,9.653421,-38.399998,-229.4,-35.7,-0.5864306,0.13683382,0.02443461,-1.0,0.0,0.0,13.86736,-5.9054923,-1.329419
1587633940014,-0.32441434,1.0139444,9.750386,-38.399998,-229.4,-35.6,-0.6585127,0.1563815,0.02076942,-1.0,0.0,0.0,13.856368,-5.5979314,-1.4062666
1587633940025,-0.34356794,0.9864111,9.752781,-38.399998,-229.4,-35.6,-0.7611381,0.16065755,0.015882496,-1.0,0.0,0.0,13.870267,-5.2371736,-1.4856514
1587633940035,-0.34356794,0.9768343,9.932345,-38.399998,-229.29999,-35.5,-0.9034697,0.18997909,0.009162978,-1.0,0.0,0.0,13.860651,-4.77137,-1.5755705
1587633940047,-0.35434186,0.78529817,9.7719345,-38.399998,-229.29999,-35.5,-1.29198,0.33475417,0.03970624,-1.0,0.0,0.0,13.881066,-4.1743245,-1.7245969
1587633940057,-0.45848963,0.6548142,9.744401,-38.399998,-229.2,-35.5,-1.4672983,0.36041048,0.065973446,-1.0,0.0,0.0,13.844721,-3.495303,-1.894375
1587633940070,-0.5662287,0.80325466,9.737218,-38.3,-229.09999,-35.5,-1.6536123,0.36041048,0.06963864,-1.0,0.0,0.0,13.851582,-2.717698,-2.079929
1587633940081,-0.6859388,0.51954174,9.56723,-38.3,-229.09999,-35.5,-1.8234328,0.37751472,0.077579886,-1.0,0.0,0.0,13.78557,-1.8441776,-2.2648633
1587633940091,-0.6859388,0.51954174,9.56723,-38.3,-228.9,-35.3,-1.9517145,0.34330627,0.076358154,-1.0,0.0,0.0,13.799775,-0.87375253,-2.4632325
1587633940102,-0.59017074,0.10055647,9.515755,-38.3,-228.9,-35.3,-2.0665572,0.3371976,0.059253927,-1.0,0.0,0.0,13.71643,0.15217844,-2.6409395
1587633940112,-0.51954174,-0.7386112,9.385271,-38.2,-228.7,-35.2,-2.20278,0.29871312,0.032375857,-1.0,0.0,0.0,13.693933,2.4168975,-2.9670072
1587633940124,-0.50876784,-0.7433996,9.202114,-38.2,-228.7,-35.2,-2.2962425,0.27305678,0.02076942,-1.0,0.0,0.0,13.791422,3.6394753,-3.1053526
1587633940135,-0.5315128,-0.61171854,8.98903,-38.1,-228.4,-35.2,-2.2974641,0.21991149,0.0012217305,-1.0,0.0,0.0,13.729208,4.853098,-3.2135847
1587633940146,-0.5291186,-0.748188,8.974665,-38.1,-228.4,-35.2,-2.2540927,0.122783914,-0.030543262,-1.0,0.0,0.0,13.867393,6.0368567,-3.2659702
1587633940156,-0.59974754,-1.1671734,9.0237465,-37.929,-226.74199,-34.596,-2.1526892,0.03970624,-0.049480084,-1.0,0.0,0.0,13.836936,7.158983,-3.2714803
1587633940168,-0.60094464,-1.3239936,8.821436,-37.929,-226.74199,-34.596,-2.012801,-0.13316862,-0.13988814,-1.0,0.0,0.0,14.015551,8.240703,-3.2440152
1587633940179,-0.019153614,-1.7513585,8.645462,-37.957,-224.25099,-33.119,-2.0451767,-0.19547687,-0.118507855,-1.0,0.0,0.0,14.044165,9.288635,-3.140634
1587633940189,-0.5686229,-1.543063,9.0429,-37.957,-224.25099,-33.119,-2.0995438,-0.13561209,-0.07941248,-1.0,0.0,0.0,14.217632,10.356251,-3.0055974
1587633940202,-0.4141969,-1.6424223,8.470686,-37.245,-221.135,-31.504002,-2.1630738,-0.11301007,-0.05375614,-1.0,0.0,0.0,14.270272,12.547056,-2.8373656
1587633940212,-0.25737667,-1.910573,8.514978,-37.744,-219.198,-31.698002,-2.2687535,-0.18142697,-0.017715093,-1.0,0.0,0.0,14.228706,13.715979,-2.7263634
1587633940222,-0.2777274,-1.9931729,8.678981,-37.744,-219.198,-31.698002,-2.3860397,-0.1704314,0.050701816,-1.0,0.0,0.0,14.24495,14.935614,-2.63245
1587633940235,-0.5351041,-2.3415294,8.682572,-36.492,-215.664,-29.608002,-2.4727826,-0.12522738,0.0983493,-1.0,0.0,0.0,14.13373,16.199791,-2.5768986
1587633940245,-0.23582886,-2.9101522,8.12592,-36.492,-215.664,-29.608002,-2.502104,-0.12705997,0.115453534,-1.0,0.0,0.0,14.026585,17.493773,-2.523623
1587633940257,-0.59136784,-3.1028855,8.39048,-37.938,-214.049,-28.456001,-2.2950208,-0.31764993,0.081855945,-1.0,0.0,0.0,13.900189,18.78164,-2.4199476
1587633940268,-0.58298814,-3.539827,8.725668,-37.938,-214.049,-28.456001,-2.144748,-0.29810223,0.06352998,-1.0,0.0,0.0,13.8752365,19.973574,-2.2613416
1587633940279,-0.50038815,-3.833117,8.785523,-37.93,-211.50099,-27.835999,-2.0372355,-0.25961772,0.07147124,-1.0,0.0,0.0,13.796184,21.088467,-2.111678
1587633940290,-0.2657564,-3.952827,8.690952,-37.93,-211.50099,-27.835999,-1.9779817,-0.24801129,0.050701816,-1.0,0.0,0.0,13.770981,22.156527,-1.9830102
1587633940301,-0.027533319,-3.86903,8.582016,-37.792,-210.63899,-24.318,-2.053118,-0.24495697,0.07574729,-1.0,0.0,0.0,13.709381,23.187887,-1.8532075
1587633940311,-0.5231331,-4.5178585,8.161834,-37.482,-208.22699,-24.847,-2.204002,-0.23640485,0.13194689,-1.0,0.0,0.0,13.555036,25.454145,-1.6297671
1587633940323,-0.6344634,-4.8841715,8.115147,-37.482,-208.22699,-24.847,-2.312125,-0.20586158,0.14538592,-1.0,0.0,0.0,13.45774,26.68819,-1.5588065
1587633940334,-0.24899697,-4.981137,8.246828,-38.037,-207.44199,-22.668999,-2.3145685,-0.17348573,0.1386664,-1.0,0.0,0.0,13.340728,27.93415,-1.5049536
1587633940344,0.17477672,-4.987122,8.277952,-38.037,-207.44199,-22.668999,-2.2278256,-0.15088372,0.15943582,-1.0,0.0,0.0,13.265877,29.143759,-1.4664035
1587633940356,0.33399114,-5.104438,8.0924015,-37.573997,-204.98999,-20.144,-2.1093178,-0.13683382,0.19792034,-1.0,0.0,0.0,13.12024,30.26135,-1.4447236
1587633940364,-0.24660277,-5.756858,7.904457,-37.573997,-204.98999,-20.144,-2.0097466,-0.14660765,0.22479841,-1.0,0.0,0.0,12.976119,31.340439,-1.4297407
1587633940379,-0.8750807,-6.5565214,8.263587,-36.819,-203.62999,-18.474,-1.7629571,-0.16798794,0.06780604,-1.0,0.0,0.0,12.860812,32.37381,-1.3710672
1587633940390,-0.60333884,-6.777985,8.598776,-37.127,-202.961,-16.231,-1.5076154,-0.18509217,0.047647487,-1.0,0.0,0.0,12.785824,33.33064,-1.2971866
1587633940402,-0.1352724,-6.623559,8.645462,-37.127,-202.961,-16.231,-1.2974777,-0.18936823,0.050701816,-1.0,0.0,0.0,12.734869,34.18964,-1.1968317
1587633940412,0.09816227,-6.38773,8.292317,-37.432,-202.65,-14.597,-1.2528846,-0.16126843,0.061086524,-1.0,0.0,0.0,12.632256,35.51335,-1.0206099
1587633940422,-0.33399114,-6.479907,8.115147,-37.432,-202.65,-14.597,-1.3133603,-0.13255776,0.06780604,-1.0,0.0,0.0,12.579903,36.216866,-0.95959026
1587633940432,-0.2621651,-6.7360864,8.185776,-37.129997,-201.20898,-15.062,-1.3420709,-0.07391469,0.04886922,-1.0,0.0,0.0,12.540503,36.930958,-0.92543066
1587633940442,-0.10654198,-6.9958572,8.1881695,-37.129997,-201.20898,-15.062,-1.2815952,-0.01160644,0.06291912,-1.0,0.0,0.0,12.491961,37.618774,-0.9319783
1587633940454,-0.05267244,-7.253234,8.1642275,-36.621998,-200.316,-13.454,-1.1820242,0.0061086523,0.06414085,-1.0,0.0,0.0,12.448049,38.253872,-0.9483595
1587633940465,-0.051475335,-7.466318,8.072051,-36.621998,-200.316,-13.454,-1.0818423,0.015271631,0.043982297,-1.0,0.0,0.0,12.39295,38.8265,-0.9599067
1587633940476,-0.06464344,-7.417237,7.773973,-37.159,-199.583,-12.766001,-0.9682214,0.005497787,0.01160644,-1.0,0.0,0.0,12.3867655,39.341465,-0.9499913
1587633940486,-0.11851298,-7.1861963,7.8649526,-37.159,-199.583,-12.766001,-0.86193085,-0.028710667,-6.1086525E-4,-1.0,0.0,0.0,12.379376,39.7909,-0.9140975
1587633940498,-0.29328972,-7.1550717,7.8733325,-36.934998,-199.84799,-11.496,-0.95722586,0.10445796,-0.015882496,-1.0,0.0,0.0,12.382803,40.265766,-0.9041212
1587633940509,-0.33877954,-7.422025,7.6734166,-36.934998,-199.84799,-11.496,-0.93401295,0.14966199,-0.018325957,-1.0,0.0,0.0,12.3878765,40.775505,-0.9385726
1587633940520,-0.130484,-7.487866,7.515399,-37.514,-199.648,-9.921,-0.8686504,0.15088372,0.002443461,2.0,0.0,0.0,12.413379,41.267643,-0.9968861
1587633940531,0.05626374,-7.192182,7.631518,-37.21,-199.40999,-10.7630005,-0.883922,0.1863139,0.027488936,2.0,0.0,0.0,12.430668,41.72456,-1.0656704
1587633940542,-0.439336,-7.349002,7.4974427,-37.21,-199.40999,-10.7630005,-0.93401295,0.29077184,0.036651913,2.0,0.0,0.0,12.437886,42.68059,-1.3368825
1587633940552,-0.439336,-7.349002,7.4974427,-37.21,-199.40999,-10.7630005,-0.91813046,0.34574974,0.03481932,2.0,0.0,0.0,12.437886,42.68059,-1.3368825
1587633940564,-0.3878607,-7.7213006,7.064092,-37.272,-198.762,-8.304001,-0.8020661,0.3323107,0.022602014,2.0,0.0,0.0,12.460782,43.584602,-1.7275094
1587633940575,-0.20111294,-7.6363063,6.9587474,-37.814,-198.71799,-8.275,-0.6542367,0.28893927,0.044593163,2.0,0.0,0.0,12.456747,43.918922,-1.9010948
1587633940585,-0.10654198,-7.5189905,6.7983356,-37.814,-198.71799,-8.275,-0.52290064,0.2602286,0.07086037,2.0,0.0,0.0,12.469875,44.176632,-2.0693345
1587633940597,-0.06823475,-7.654263,6.5349736,-37.029,-198.06099,-7.0200005,-0.19853121,0.11362094,0.06414085,2.0,0.0,0.0,12.448196,44.314827,-2.1939013
1587633940609,-0.23702596,-7.511808,6.7133417,-37.029,-198.06099,-7.0200005,-0.15760323,0.092240654,0.05131268,2.0,0.0,0.0,12.417496,44.39349,-2.2675061
1587633940619,-0.44891283,-7.4507556,6.7851677,-36.478,-197.853,-7.297001,-0.13744467,0.06719518,0.035430185,2.0,0.0,0.0,12.3969345,44.45104,-2.3225756
1587633940630,-0.40222588,-7.515399,6.6774287,-36.484,-198.14899,-7.2840004,-0.18448131,0.032375857,0.013439035,2.0,0.0,0.0,12.363515,44.499645,-2.354587
1587633940641,-0.36272156,-7.2951326,6.775591,-36.484,-198.14899,-7.2840004,-0.2773328,0.050701816,-0.004886922,2.0,0.0,0.0,12.362722,44.575947,-2.3562202
1587633940652,-0.4345476,-7.255628,6.8581905,-36.484,-198.14899,-7.2840004,-0.30726522,0.096516706,-0.013439035,2.0,0.0,0.0,12.356618,44.70492,-2.3612173
1587633940661,-0.46806642,-7.431602,6.884527,-36.461998,-197.963,-7.573,-0.26816985,0.11056661,-0.02076942,2.0,0.0,0.0,12.390788,44.973312,-2.4218438
1587633940674,-0.30047232,-7.368156,6.8067155,-37.017998,-197.96799,-6.9729996,-0.21074851,0.106901415,-0.016493361,2.0,0.0,0.0,12.41735,45.064213,-2.4527566
1587633940685,-0.25498247,-7.2233067,6.679823,-37.017998,-197.96799,-6.9729996,-0.19058995,0.1142318,-0.004886922,2.0,0.0,0.0,12.440782,45.14073,-2.492148
1587633940695,-0.142455,-7.0066314,6.3805475,-36.804,-197.82199,-5.4850006,-0.17165314,0.116675265,0.0061086523,2.0,0.0,0.0,12.453739,45.20791,-2.5382063
1587633940707,-0.22385786,-6.9719152,6.4547677,-36.804,-197.82199,-5.4850006,-0.34147367,0.13439035,0.004276057,2.0,0.0,0.0,12.448381,45.309063,-2.5833035
1587633940716,-0.4297592,-7.15986,6.5002575,-36.795998,-197.486,-5.4869995,-0.34147367,0.13439035,0.004276057,2.0,0.0,0.0,12.461824,45.47229,-2.6429377
1587633940728,-0.51475334,-7.339425,6.528988,-36.795998,-197.486,-5.4869995,-0.43676865,0.14477506,-0.0036651916,2.0,0.0,0.0,12.46955,45.681046,-2.7083201
1587633940740,-0.48841715,-7.321469,6.6271505,-37.302998,-197.308,-6.379999,-0.37507126,0.14782938,-0.004886922,2.0,0.0,0.0,12.487529,45.898746,-2.774172
1587633940749,-0.35793316,-7.5094137,6.63553,-37.302998,-197.308,-6.379999,-0.267559,0.14355333,0.004276057,2.0,0.0,0.0,12.527202,46.079426,-2.8385773
1587633940760,-0.2789245,-7.5812397,6.4380083,-36.278,-197.157,-5.517,-0.14966199,0.103847094,0.030543262,2.0,0.0,0.0,12.542867,46.20065,-2.902495
1587633940771,-0.4165911,-7.1143703,6.4020953,-37.542,-196.83899,-6.127001,-0.1423316,0.06780604,0.04337143,2.0,0.0,0.0,12.244558,46.30393,-2.9949367
1587633940782,-0.5638345,-7.1993647,6.3350577,-37.542,-196.83899,-6.127001,-0.21930063,0.084910266,0.047036625,2.0,0.0,0.0,12.5716,46.433216,-3.057123
1587633940793,-0.48362875,-7.358579,6.4906807,-36.751,-196.97,-6.9869995,-0.27183503,0.09040806,0.04886922,2.0,0.0,0.0,12.545875,46.588726,-3.127132
1587633940803,-0.38187516,-7.443573,6.527791,-36.751,-196.97,-6.9869995,-0.28527406,0.10934488,0.05131268,2.0,0.0,0.0,12.632004,46.74912,-3.2077882
1587633940816,-0.34356794,-7.465121,6.453571,-36.337997,-196.301,-4.5230007,-0.32070425,0.11178834,0.06291912,2.0,0.0,0.0,12.601412,46.896904,-3.2913926
1587633940826,-0.4237737,-7.5788455,6.3913217,-36.337997,-196.301,-4.5230007,-0.32559118,0.11728613,0.058643065,2.0,0.0,0.0,12.31372,47.062096,-3.3836002
1587633940837,-0.4369418,-7.7224975,6.4104753,-37.297,-197.463,-5.6679993,-0.23090707,0.103847094,0.039095376,2.0,0.0,0.0,12.28668,47.21459,-3.4689224
1587633940849,-0.37588966,-7.7129207,6.5720835,-37.297,-197.463,-5.6679993,-0.12217305,0.1020145,0.027488936,2.0,0.0,0.0,12.677166,47.31404,-3.5310152
1587633940860,-0.3172317,-7.7548194,6.5828576,-37.031998,-196.9,-6.2660007,-0.04642576,0.06658431,0.009773844,2.0,0.0,0.0,12.675569,47.35187,-3.5797231
1587633940871,-0.31364042,-7.644686,6.4272346,-37.458,-197.079,-6.59,-0.018936822,0.028099801,-0.010995574,2.0,0.0,0.0,12.932605,47.348255,-3.5934732
1587633940881,-0.4333505,-7.491457,6.362591,-37.458,-197.079,-6.59,0.0061086523,0.016493361,-0.032375857,2.0,0.0,0.0,13.387737,47.343987,-3.5269494
1587633940892,-0.4333505,-7.4842744,6.4619503,-36.397,-197.23,-5.9260006,0.047647487,6.1086525E-4,-0.042760566,2.0,0.0,0.0,13.429837,47.333298,-3.4681985
1587633940902,-0.49919105,-7.410054,6.5265937,-36.397,-197.23,-5.9260006,0.06047566,0.004276057,-0.045814894,2.0,0.0,0.0,13.449094,47.312035,-3.4154065
1587633940914,-0.46208093,-7.3226657,6.30513,-37.59,-197.85199,-6.3059998,0.047647487,0.015271631,-0.035430185,2.0,0.0,0.0,13.482379,47.29841,-3.3790183
1587633940925,-0.45729253,-7.2005615,6.281188,-37.59,-197.85199,-6.3059998,0.008552114,0.009162978,-0.017715093,2.0,0.0,0.0,13.535704,47.30406,-3.3539922
1587633940936,-0.4297592,-7.217321,6.257246,-36.831,-197.196,-6.2730007,-0.051923547,0.02076942,-0.0030543262,2.0,0.0,0.0,13.542603,47.341442,-3.3474786
1587633940947,-0.40821138,-7.2939353,6.4140663,-36.831,-197.196,-6.2730007,-0.15393804,0.048258353,0.01038471,2.0,0.0,0.0,13.52677,47.40844,-3.3544042
1587633940957,-0.37110126,-7.3777328,6.575675,-36.709,-197.18,-7.2539997,-0.14660765,0.065973446,0.010995574,2.0,0.0,0.0,13.527186,47.489193,-3.3709955
1587633940970,-0.40701428,-7.4986396,6.5625067,-36.808,-197.69499,-6.6970005,-0.09773844,0.06169739,0.009773844,2.0,0.0,0.0,13.582023,47.56231,-3.3965518
1587633940981,-0.4189853,-7.657854,6.6175733,-36.808,-197.69499,-6.6970005,-0.017104227,0.06047566,0.014049901,2.0,0.0,0.0,13.586514,47.60729,-3.4165328
1587633940992,-0.41060558,-7.6051817,6.5337763,-36.892998,-197.512,-6.7800007,0.057421334,0.039095376,0.014660766,2.0,0.0,0.0,13.666775,47.56948,-3.4360583
1587633941002,-0.41060558,-7.6051817,6.5337763,-36.892998,-197.512,-6.7800007,0.10934488,0.017715093,0.004886922,2.0,0.0,0.0,13.666775,47.56948,-3.4360583
1587633941012,-0.3854665,-7.4735007,6.432023,-36.8,-197.5,-6.700001,0.15821409,0.007330383,-0.0018325958,2.0,0.0,0.0,13.763314,47.422596,-3.3900254
1587633941026,-0.46208093,-7.3777328,6.4751186,-36.8,-197.5,-6.700001,0.16920967,0.008552114,0.01038471,2.0,0.0,0.0,13.749576,47.331654,-3.3718567
1587633941034,-0.46926352,-7.339425,6.3578024,-36.8,-197.29999,-6.3999996,0.11178834,0.020158553,0.020158553,2.0,0.0,0.0,13.744188,47.275524,-3.3710709
1587633941047,-0.45609543,-7.345411,6.4727244,-36.8,-197.29999,-6.3999996,0.11178834,0.043982297,0.028710667,2.0,0.0,0.0,13.671828,47.229927,-3.3740282
1587633941058,-0.439336,-7.4447703,6.63553,-36.8,-197.29999,-6.1000004,0.17165314,0.04886922,0.036651913,2.0,0.0,0.0,13.6627445,47.16979,-3.39251
1587633941068,-0.37469256,-7.5584946,6.707356,-36.8,-197.29999,-6.1000004,0.25961772,0.044593163,0.036651913,2.0,0.0,0.0,13.56895,47.075233,-3.413507
1587633941078,-0.35793316,-7.5932107,6.7504516,-36.8,-197.2,-6.0,0.376293,0.042760566,0.021380283,2.0,0.0,0.0,13.560495,46.932987,-3.4258122
1587633941090,-0.35913026,-7.5944076,6.827066,-36.8,-197.2,-5.799999,0.53023106,0.0421497,0.002443461,2.0,0.0,0.0,13.455691,46.729958,-3.4212065
1587633941100,-0.320823,-7.619547,6.9228344,-36.8,-197.2,-5.799999,0.6963864,0.032986723,-0.004886922,2.0,0.0,0.0,13.48022,46.444954,-3.3962739
1587633941111,-0.45729253,-7.2304893,6.8127007,-36.8,-197.09999,-5.799999,0.78984874,0.03359759,0.07941248,2.0,0.0,0.0,13.463871,45.544357,-3.3639994
1587633941123,-0.6679823,-7.074866,6.811504,-36.8,-197.09999,-5.799999,0.7825184,0.047036625,0.07513642,2.0,0.0,0.0,13.413742,45.071968,-3.3795767
1587633941133,-0.6679823,-7.074866,6.811504,-36.8,-197.09999,-5.799999,0.7012733,0.08002335,0.08674286,2.0,0.0,0.0,13.413742,45.071968,-3.3795767
1587633941143,-0.78410107,-7.277176,6.859388,-36.7,-197.09999,-5.700001,0.7171558,0.07574729,0.13316862,2.0,0.0,0.0,13.381507,44.64774,-3.426275
1587633941160,-0.62129533,-7.275979,7.089231,-36.7,-197.09999,-5.799999,0.8191703,0.06169739,0.16737708,2.0,0.0,0.0,13.187203,43.67923,-3.5797434
1587633941175,-0.34715924,-7.2819643,7.523779,-36.7,-197.09999,-5.8999996,0.99021256,0.04642576,0.17470746,2.0,0.0,0.0,13.0376005,42.940536,-3.663654
1587633941184,-0.22026655,-7.144298,7.457938,-36.7,-197.09999,-5.8999996,1.3854424,0.028099801,0.18081611,2.0,0.0,0.0,12.910479,41.651802,-3.717672
1587633941191,-0.23104046,-6.8246717,7.241263,-36.6,-197.2,-6.1000004,1.6963727,0.022602014,0.20830505,2.0,0.0,0.0,12.779981,40.688416,-3.7460802
1587633941200,-0.23104046,-6.8246717,7.241263,-36.6,-197.2,-6.1000004,1.921782,-0.044593163,0.2144137,2.0,0.0,0.0,12.779981,40.688416,-3.7460802
1587633941210,-0.25498247,-6.31351,7.382521,-36.6,-197.29999,-6.299999,2.0152445,-0.055588737,0.20219639,2.0,0.0,0.0,12.693687,39.606136,-3.7278652
1587633941219,-0.30526072,-5.9531827,7.383718,-36.6,-197.29999,-6.299999,1.9865338,-0.0580322,0.1740966,2.0,0.0,0.0,12.5690775,38.472446,-3.6927516
1587633941230,-0.56982,-6.053739,7.4112515,-36.5,-197.4,-6.5,1.8478674,-0.05375614,0.16065755,2.0,0.0,0.0,12.5138855,37.36213,-3.6472595
1587633941241,-0.985214,-5.73531,8.039729,-36.5,-197.4,-6.5,1.6084082,0.050701816,0.11301007,2.0,0.0,0.0,12.37902,35.44524,-3.6257732
1587633941250,-0.985214,-5.73531,8.039729,-36.5,-197.4,-6.5,1.5204436,0.11056661,0.09040806,2.0,0.0,0.0,12.37902,35.44524,-3.6257732
1587633941261,-0.7433996,-5.741296,8.317456,-36.489998,-197.63599,-6.7530003,1.5308284,0.12217305,0.087964594,2.0,0.0,0.0,12.303876,33.751144,-3.7247546
1587633941274,-0.61052144,-5.6084175,8.431181,-35.600998,-199.469,-10.235001,1.5992452,0.13927728,0.08674286,2.0,0.0,0.0,12.232994,32.85968,-3.7822351
1587633941283,-0.5351041,-5.6060233,8.408437,-35.600998,-199.469,-10.235001,1.6920967,0.1441642,0.09040806,2.0,0.0,0.0,12.238417,31.917368,-3.838954
1587633941294,-0.4225766,-5.5856724,8.3390045,-35.677,-201.41699,-12.7560005,1.8203784,0.10751228,0.10262536,2.0,0.0,0.0,12.186702,30.914845,-3.872361
1587633941305,-0.5267244,-5.0541596,8.59279,-35.677,-201.41699,-12.7560005,1.949271,0.056199603,0.0983493,2.0,0.0,0.0,12.197018,29.835978,-3.8708808
1587633941316,-0.6596026,-4.710592,8.851364,-34.982,-202.726,-14.945999,1.9932534,0.06841691,0.016493361,2.0,0.0,0.0,12.167183,28.72532,-3.8526702
1587633941327,-0.6368576,-4.8997335,8.887277,-34.982,-202.726,-14.945999,2.0292943,0.06841691,0.07819075,2.0,0.0,0.0,12.232884,27.623264,-3.8348422
1587633941338,-0.60812724,-4.608838,8.942344,-35.127,-203.996,-17.64,2.108096,0.043982297,0.111177474,2.0,0.0,0.0,12.203084,26.497126,-3.8358455
1587633941347,-0.82480246,-4.548983,8.961497,-35.127,-203.996,-17.64,2.0885482,-0.018936822,0.06841691,2.0,0.0,0.0,12.21331,25.340134,-3.8344524
1587633941358,-0.8343793,-4.4364557,9.0716305,-33.973,-205.101,-18.177,2.021353,-0.064751714,0.07086037,2.0,0.0,0.0,12.144805,24.193457,-3.7897403
1587633941368,-0.7673417,-3.8414967,9.214086,-33.973,-205.101,-18.177,1.9938642,-0.100792766,0.040927973,2.0,0.0,0.0,12.174898,23.081387,-3.7236466
1587633941380,-0.81163436,-3.5805287,9.428367,-35.461,-207.39299,-18.222,2.0103576,-0.1142318,-0.01282817,2.0,0.0,0.0,12.170504,21.98028,-3.6337862
1587633941391,-0.7398083,-3.3925838,9.647436,-34.85,-209.48499,-22.469002,2.025629,-0.087964594,-0.050701816,2.0,0.0,0.0,12.289268,19.747587,-3.4323664
1587633941402,-0.78170687,-3.2213984,9.606734,-34.85,-209.48499,-22.469002,2.0335703,-0.047036625,-0.045814894,2.0,0.0,0.0,12.386512,18.62022,-3.3650544
1587633941414,-0.70509243,-2.8119898,9.533711,-35.058,-211.15799,-23.776001,2.021964,-0.009773844,-0.025045475,2.0,0.0,0.0,12.417592,17.497913,-3.3253927
1587633941425,-0.5758055,-2.4708161,9.309854,-35.058,-211.15799,-23.776001,1.998751,0.029932396,-0.005497787,2.0,0.0,0.0,12.490717,16.381,-3.3120482
1587633941436,-0.63087213,-2.4995465,9.479841,-34.996998,-213.271,-25.883999,1.949271,0.07941248,0.055588737,2.0,0.0,0.0,12.505383,15.281579,-3.3095024
1587633941447,-0.59136784,-2.4181437,9.26556,-34.996998,-213.271,-25.883999,1.9633209,0.036651913,0.12156218,2.0,0.0,0.0,12.542892,14.1941185,-3.3350306
1587633941456,-0.6919243,-2.172738,9.161413,-34.758,-214.937,-25.349998,2.1068742,-0.081855945,0.13500121,2.0,0.0,0.0,12.484674,13.101159,-3.3461466
1587633941467,-0.6703765,-2.1751323,9.336189,-34.758,-214.937,-25.349998,2.2131648,-0.13316862,0.12156218,2.0,0.0,0.0,12.481293,11.932622,-3.2912843
1587633941478,-0.50038815,-2.0039468,9.503783,-34.953,-216.84,-27.64,2.2333233,-0.1740966,0.105068825,2.0,0.0,0.0,11.971328,10.702905,-3.2037134
1587633941489,-0.36391866,-1.5765818,9.598354,-34.953,-216.84,-27.64,2.1569653,-0.19303341,0.080634214,2.0,0.0,0.0,11.987873,9.473526,-3.0900724
1587633941500,-0.32202014,-1.1456255,9.56723,-35.434998,-217.496,-29.328,2.0244074,-0.226631,0.04642576,2.0,0.0,0.0,11.682185,8.278017,-2.9618728
1587633941511,-0.5722142,-0.7110779,9.533711,-34.682,-219.89499,-28.926998,1.8576412,-0.28344148,-0.01160644,2.0,0.0,0.0,11.150273,6.1127996,-2.6307402
1587633941522,-0.6931214,-0.5506664,9.582792,-34.682,-219.89499,-28.926998,1.6798794,-0.3549127,-0.09101892,2.0,0.0,0.0,11.252976,5.177636,-2.410822
1587633941533,-0.6919243,-0.4333505,9.797073,-35.698997,-221.45,-30.569,1.5479325,-0.38423425,-0.14844026,2.0,0.0,0.0,11.362352,4.303992,-2.1748774
1587633941544,-0.7386112,-0.2765303,10.00896,-35.698997,-221.45,-30.569,1.4569136,-0.35979962,-0.17104226,2.0,0.0,0.0,11.498468,3.4820714,-1.9589311
1587633941555,-0.63206923,-0.089782566,9.855731,-35.776,-223.375,-29.207,1.3787229,-0.31031954,-0.17287487,2.0,0.0,0.0,11.602314,2.6952188,-1.7736994
1587633941564,-0.4249708,0.5446809,9.185355,-35.776,-223.375,-29.207,1.2669345,-0.28527406,-0.16310102,2.0,0.0,0.0,11.725999,1.9590065,-1.6026318
1587633941575,-0.35075054,0.5255273,9.078813,-35.193,-223.61499,-30.783,1.0103711,-0.2919936,-0.18020524,2.0,0.0,0.0,11.786623,1.3617266,-1.4270893
1587633941586,-0.25019407,0.31364042,9.144653,-35.193,-223.61499,-30.783,0.7556403,-0.3231477,-0.2003638,2.0,0.0,0.0,11.922233,0.8562659,-1.2384741
1587633941597,-0.19153613,0.31364042,9.434352,-35.976997,-224.652,-32.084,0.74220127,-0.3023783,-0.1704314,2.0,0.0,0.0,12.005478,0.3966278,-1.043871
1587633941608,-0.19033903,0.4249708,9.601946,-35.976997,-224.652,-32.084,0.75991637,-0.27855456,-0.14905111,2.0,0.0,0.0,12.1209135,-0.06634978,-0.8578769
1587633941619,-0.25498247,0.51714754,9.79827,-36.273,-225.40399,-31.557,0.7703011,-0.25473082,-0.15332718,2.0,0.0,0.0,12.167879,-0.5258979,-0.6922453
1587633941630,-0.23343466,0.6955156,9.904813,-36.297,-225.321,-30.707,0.84665924,-0.2443461,-0.20097467,2.0,0.0,0.0,12.269433,-1.0030497,-0.5370931
1587633941641,-0.045489833,0.6548142,9.782708,-36.297,-225.321,-30.707,0.98654735,-0.26511553,-0.24801129,-1.0,0.0,0.0,12.482462,-2.1226518,-0.22955954
1587633941652,-0.094570965,0.82240826,9.583989,-37.3,-226.93199,-33.778,1.0763446,-0.2864958,-0.26450464,-1.0,0.0,0.0,12.603495,-2.7744493,-0.060405772
1587633941663,-0.06823475,1.0510546,9.548077,-37.3,-226.93199,-33.778,1.0537425,-0.29871312,-0.2657264,-1.0,0.0,0.0,12.764243,-3.4145331,0.114090666
1587633941672,-0.037110128,1.186327,9.527725,-36.815998,-227.486,-32.312,0.9388999,-0.2773328,-0.23762658,-1.0,0.0,0.0,12.831449,-3.9912002,0.2763206
1587633941683,-0.023942016,1.0929531,9.498995,-36.815998,-227.486,-32.312,0.7770206,-0.1459968,-0.1863139,-1.0,0.0,0.0,12.944245,-4.4735355,0.36419442
1587633941694,-0.1412579,1.0402806,9.635465,-37.632,-228.66699,-32.662,0.70921457,-0.02687807,-0.14172074,-1.0,0.0,0.0,12.984234,-4.921119,0.38532105
1587633941706,-0.17836803,1.2042835,9.751583,-37.632,-228.66699,-32.662,0.67073005,0.09590584,-0.0983493,-1.0,0.0,0.0,13.046453,-5.3402805,0.33797127
1587633941717,-0.062249243,1.3910311,9.652225,-37.878998,-229.495,-33.606,0.6365216,0.22235495,-0.0421497,-1.0,0.0,0.0,13.054054,-5.7644663,0.24803285
1587633941728,-0.029927522,1.6112977,9.572019,-37.878998,-229.495,-33.606,0.5534439,0.24862215,-0.022602014,-1.0,0.0,0.0,13.084938,-6.161813,0.13506189
1587633941739,0.05267244,1.8171991,9.325416,-37.596,-229.986,-34.531,0.41538838,0.26450464,-6.1086525E-4,-1.0,0.0,0.0,13.065048,-6.5202622,0.0074199024
1587633941750,0.15203181,1.9273324,9.197326,-37.346,-230.357,-33.958,0.26511553,0.2669481,0.025045475,-1.0,0.0,0.0,13.073906,-6.8011203,-0.12684989
1587633941762,0.11731588,2.0590134,8.881291,-37.346,-230.357,-33.958,0.124005646,0.24007004,0.043982297,-1.0,0.0,0.0,13.009915,-7.12177,-0.37437856
1587633941771,0.0011971008,2.019509,8.876503,-36.798,-230.515,-34.271,-0.01038471,0.22235495,0.047647487,-1.0,0.0,0.0,12.935943,-7.1721716,-0.47681513
1587633941784,-0.17597382,1.6771383,9.120711,-36.798,-230.515,-34.271,-0.10323623,0.23090707,0.035430185,-1.0,0.0,0.0,12.923095,-7.1709003,-0.5857861
1587633941793,-0.29807812,1.6484078,9.222465,-36.822,-230.862,-33.693,-0.103847094,0.258396,0.037873644,-1.0,0.0,0.0,12.866277,-7.1693697,-0.7158305
1587633941805,-0.2789245,1.6184803,9.291897,-36.822,-230.862,-33.693,-0.069027774,0.25961772,0.040317107,-1.0,0.0,0.0,12.851524,-7.1884036,-0.8376245
1587633941816,-0.21428105,1.6603789,9.196129,-36.563,-230.55899,-33.108,-0.032986723,0.14844026,0.040927973,-1.0,0.0,0.0,12.790162,-7.222288,-0.9480118
1587633941827,-0.23343466,1.6316484,9.202114,-36.563,-230.55899,-33.108,-0.05497787,0.045814894,0.027488936,-1.0,0.0,0.0,12.77495,-7.262373,-1.0110884
1587633941838,-0.31364042,1.5406688,9.459491,-36.564,-230.556,-33.119,-0.08857546,-0.028710667,0.007941248,-1.0,0.0,0.0,12.723952,-7.288231,-1.0174543
1587633941849,-0.38187516,1.4856021,9.7958765,-36.555,-230.53099,-33.13,-0.09101892,-0.05375614,0.0012217305,-1.0,0.0,0.0,12.72764,-7.292555,-0.9839406
1587633941860,-0.39145198,1.5777789,9.81503,-36.555,-230.53099,-33.13,-0.077579886,-0.048258353,0.009773844,-1.0,0.0,0.0,12.692023,-7.3018703,-0.89550805
1587633941871,-0.25617957,1.7274165,9.659407,-36.518997,-230.49799,-34.3,-0.1001819,-0.053145275,0.015271631,-1.0,0.0,0.0,12.641009,-7.298626,-0.8500595
1587633941882,-0.15562311,1.8064252,9.4535055,-36.518997,-230.49799,-34.3,-0.17287487,-0.061086524,0.019547688,-1.0,0.0,0.0,12.637719,-7.2566648,-0.8000827
1587633941891,-0.14844051,1.7896658,9.425972,-36.565,-229.90399,-32.582,-0.26267207,-0.07391469,0.02076942,-1.0,0.0,0.0,12.578872,-7.166004,-0.7424867
1587633941903,-0.24540567,1.7226281,9.643845,-36.565,-229.90399,-32.582,-0.36468655,-0.065973446,0.02443461,-1.0,0.0,0.0,12.571403,-7.0154243,-0.68849146
1587633941915,-0.2753332,1.6543933,9.653421,-37.334,-230.34999,-32.314,-0.38423425,-0.007330383,0.025045475,-1.0,0.0,0.0,12.544194,-6.861531,-0.6703513
1587633941926,-0.24660277,1.5442601,9.5492735,-37.334,-230.34999,-32.314,-0.3494149,0.010995574,0.02443461,-1.0,0.0,0.0,12.537239,-6.7267604,-0.66276836
1587633941936,-0.19512744,1.4413095,9.519346,-36.336,-230.027,-31.777,-0.2950479,-0.018936822,0.023823744,-1.0,0.0,0.0,12.469735,-6.6213226,-0.6378823
1587633941948,-0.15801731,1.401805,9.516952,-36.336,-230.027,-31.777,-0.18142697,-0.112399206,0.020158553,-1.0,0.0,0.0,12.467434,-6.6363034,-0.6050493
1587633941959,-0.12210429,1.4101849,9.593566,-36.79,-229.66899,-32.872,-0.17348573,-0.13316862,0.023823744,-1.0,0.0,0.0,11.998538,-6.665107,-0.54513836
1587633941970,-0.12090719,1.4772224,9.7240505,-36.79,-229.66899,-32.872,-0.20219639,-0.1423316,0.018936822,-1.0,0.0,0.0,11.995278,-6.6918592,-0.47295967
1587633941981,-0.1328782,1.5035586,9.830592,-36.711998,-229.568,-34.379,-0.24801129,-0.12217305,0.017715093,-1.0,0.0,0.0,11.526669,-6.697231,-0.39507335
1587633941992,-0.1448492,1.448492,9.935937,-36.336,-229.788,-32.891,-0.28527406,-0.06719518,0.016493361,-1.0,0.0,0.0,10.99668,-6.6213803,-0.29532108
1587633942005,-0.21428105,1.3024458,9.667787,-36.336,-229.788,-32.891,-0.30482176,0.008552114,0.0018325958,-1.0,0.0,0.0,11.005961,-6.551958,-0.30538964
1587633942016,-0.20231004,1.3036429,9.536105,-36.709,-229.25699,-32.916,-0.24862215,-0.029321533,-0.004276057,-1.0,0.0,0.0,10.71049,-6.4933786,-0.31382892
1587633942029,-0.17717093,1.2797008,9.619903,-36.709,-229.25699,-32.916,-0.21930063,-0.035430185,-0.004886922,-1.0,0.0,0.0,10.723213,-6.449575,-0.30237472
1587633942038,-0.16759412,1.258153,9.715671,-36.71,-229.14699,-32.336,-0.20158553,-0.02076942,-0.010995574,-1.0,0.0,0.0,10.47379,-6.416495,-0.2865565
1587633942048,-0.12330139,1.2725182,9.611523,-36.71,-229.14699,-32.336,-0.18997909,-0.02443461,-0.008552114,-1.0,0.0,0.0,10.490547,-6.388377,-0.2771313
1587633942057,-0.09816227,1.2785037,9.52174,-36.673,-229.043,-33.201,-0.1881465,-0.03848451,-0.0036651916,-1.0,0.0,0.0,10.256693,-6.33033,-0.2497241
1587633942069,-0.09816227,1.30484,9.579201,-36.673,-229.043,-33.201,-0.20769419,-0.03604105,0.004276057,-1.0,0.0,0.0,10.267122,-6.2728367,-0.21360993
1587633942079,-0.076614454,1.3371617,9.587581,-36.444,-229.00299,-33.168,-0.22296582,-0.021380283,0.017104227,-1.0,0.0,0.0,9.9653225,-6.204401,-0.17811887
1587633942090,-0.08140286,1.2916719,9.581595,-36.647,-229.148,-32.993,-0.22602014,-0.02076942,0.029321533,-1.0,0.0,0.0,9.963813,-6.127476,-0.15011019
1587633942101,-0.1388637,1.2677298,9.779117,-36.647,-229.148,-32.993,-0.22174409,-0.0061086523,0.039095376,-1.0,0.0,0.0,9.77391,-6.0121784,-0.11561565
1587633942111,-0.12090719,1.2150574,9.835381,-36.7,-229.4,-33.1,-0.19792034,0.031154128,0.03848451,-1.0,0.0,0.0,9.668557,-5.985479,-0.1298112
1587633942122,-0.107739076,1.1492168,9.791088,-36.7,-229.4,-33.1,-0.19486602,0.07819075,0.032986723,-1.0,0.0,0.0,9.659112,-5.9552097,-0.16886513
1587633942134,-0.12569559,1.1528081,9.679757,-36.7,-229.7,-33.2,-0.20891592,0.06780604,0.018936822,-1.0,0.0,0.0,9.628606,-5.9134707,-0.20175213
1587633942143,-0.08379706,1.1336545,9.636662,-36.7,-229.7,-33.2,-0.23151793,0.027488936,0.0061086523,-1.0,0.0,0.0,9.634162,-5.857022,-0.21081488
1587633942154,-0.10414778,1.1013328,9.5971575,-36.8,-229.79999,-33.3,-0.24984388,-0.018325957,0.0012217305,-1.0,0.0,0.0,9.666011,-5.787824,-0.19377859
1587633942165,-0.108936176,1.0115502,9.634268,-36.8,-229.79999,-33.3,-0.24801129,-0.04337143,-0.012217305,-1.0,0.0,0.0,9.682156,-5.7158175,-0.16329987
1587633942176,-0.12449849,1.0079589,9.7479925,-36.899998,-230.0,-33.3,-0.22235495,-0.037873644,-0.01282817,-1.0,0.0,0.0,9.752413,-5.6470995,-0.12947929
1587633942187,-0.15203181,1.0522517,9.828198,-36.899998,-230.0,-33.3,-0.20708331,-0.025045475,-0.005497787,-1.0,0.0,0.0,9.769186,-5.585092,-0.103858545
1587633942198,-0.12569559,1.1109096,9.811439,-36.899998,-230.09999,-33.4,-0.19364429,-0.023823744,0.0030543262,-1.0,0.0,0.0,9.816698,-5.5326047,-0.08585979
1587633942209,-0.15442601,1.0139444,9.7863,-37.0,-230.2,-33.4,-0.17165314,-0.005497787,0.007330383,-1.0,0.0,0.0,9.824504,-5.485591,-0.068749495
1587633942220,-0.09696517,0.9792285,9.79827,-37.0,-230.2,-33.4,-0.10995574,0.016493361,0.015271631,-1.0,0.0,0.0,9.898901,-5.448326,-0.06094367
1587633942229,-0.08619126,1.0043676,9.773131,-37.0,-230.29999,-33.5,-0.07574729,0.032986723,0.022602014,-1.0,0.0,0.0,9.899493,-5.4440804,-0.06403078
1587633942240,-0.07182605,1.0247183,9.674969,-37.0,-230.29999,-33.5,-0.051923547,0.02443461,0.028099801,-1.0,0.0,0.0,9.96331,-5.4575796,-0.07466409
1587633942251,-0.047884032,1.0342951,9.593566,-37.0,-230.29999,-33.4,-0.0580322,0.0012217305,0.027488936,-1.0,0.0,0.0,9.95629,-5.4832907,-0.07857672
1587633942262,-0.08140286,1.0809821,9.712079,-37.0,-230.29999,-33.4,-0.08246681,-0.0067195175,0.025045475,-1.0,0.0,0.0,9.998331,-5.513622,-0.05524774
1587633942273,-0.06823475,1.0414777,9.728839,-37.0,-230.29999,-33.5,-0.106901415,0.0061086523,0.02443461,-1.0,0.0,0.0,10.03207,-5.507178,-0.048288275
1587633942284,-0.1412579,1.0283096,9.785102,-37.0,-230.29999,-33.5,-0.116675265,0.028099801,0.02687807,-1.0,0.0,0.0,10.025723,-5.4945936,-0.05453353
1587633942295,-0.11133038,1.0199299,9.79827,-37.0,-230.29999,-33.4,-0.10934488,0.050701816,0.022602014,-1.0,0.0,0.0,10.064535,-5.485308,-0.07365855
1587633942307,-0.10654198,1.0187328,9.776723,-37.0,-230.29999,-33.4,-0.103847094,0.054367006,0.01282817,-1.0,0.0,0.0,10.0621805,-5.4759054,-0.098292276
1587633942319,-0.12449849,0.997185,9.673772,-37.0,-230.29999,-33.3,-0.08979719,0.040927973,0.005497787,-1.0,0.0,0.0,10.114277,-5.46909,-0.1189296
1587633942328,-0.10414778,1.0319009,9.617508,-37.0,-230.29999,-33.3,-0.06780604,0.007330383,0.01282817,-1.0,0.0,0.0,10.120098,-5.469622,-0.13248388
1587633942340,-0.08619126,1.0115502,9.64983,-37.0,-230.2,-33.3,-0.057421334,0.01038471,0.019547688,-1.0,0.0,0.0,10.15579,-5.482016,-0.12601008
1587633942349,-0.12808979,0.9983821,9.744401,-37.0,-230.2,-33.2,-0.06047566,0.030543262,0.025045475,-1.0,0.0,0.0,10.153613,-5.49923,-0.12144675
1587633942361,-0.142455,1.0474633,9.7240505,-37.0,-230.2,-33.2,-0.08246681,0.037873644,0.031154128,-1.0,0.0,0.0,10.176653,-5.5149097,-0.12857537
1587633942372,-0.107739076,1.0223241,9.710882,-37.0,-230.09999,-33.2,-0.0983493,0.047036625,0.032375857,-1.0,0.0,0.0,10.186104,-5.512819,-0.15571466
1587633942384,-0.06584055,0.9959879,9.781511,-37.0,-230.09999,-33.2,-0.12217305,0.044593163,0.032375857,-1.0,0.0,0.0,10.17637,-5.492903,-0.16893645
1587633942394,-0.108936176,0.9840169,9.809045,-37.0,-230.0,-33.1,-0.1282817,0.047036625,0.03176499,-1.0,0.0,0.0,10.197683,-5.4688,-0.18328695
1587633942407,-0.11133038,0.94211835,9.788693,-37.0,-230.0,-33.1,-0.0720821,0.036651913,0.023823744,-1.0,0.0,0.0,10.193451,-5.4528184,-0.19809861
1587633942419,-0.06464344,0.94810385,9.781511,-37.0,-229.9,-33.1,-0.021991149,0.017104227,0.035430185,-1.0,0.0,0.0,10.215595,-5.4582934,-0.20548305
1587633942430,-0.092176765,0.93972415,9.727641,-37.1,-229.79999,-33.1,0.007941248,0.0018325958,0.04886922,-1.0,0.0,0.0,10.20408,-5.490957,-0.20081778
1587633942440,-0.010773907,1.1480197,9.636662,-37.1,-229.79999,-33.1,-0.0067195175,-0.018936822,0.037873644,-1.0,0.0,0.0,10.234797,-5.5424414,-0.18577138
1587633942452,-0.05626374,1.079785,9.872491,-37.1,-229.7,-33.1,-0.040927973,0.008552114,0.03848451,-1.0,0.0,0.0,10.231569,-5.6103134,-0.14750585
1587633942462,-0.05626374,1.079785,9.872491,-37.1,-229.7,-33.1,-0.057421334,0.032375857,0.043982297,-1.0,0.0,0.0,10.231569,-5.6103134,-0.14750585
1587633942474,-0.061052144,1.0654198,9.713276,-37.2,-229.59999,-33.0,-0.057421334,0.042760566,0.047036625,-1.0,0.0,0.0,10.255925,-5.6405444,-0.15775809
1587633942484,-0.021547815,1.0378864,9.696517,-37.2,-229.59999,-33.0,-0.053145275,0.03726278,0.03970624,-1.0,0.0,0.0,10.241636,-5.6577325,-0.1619885
1587633942496,-0.023942016,1.0702082,9.682152,-37.2,-229.59999,-33.1,-0.05131268,0.040317107,0.027488936,-1.0,0.0,0.0,10.284531,-5.677751,-0.1652982
1587633942506,0.0023942017,1.1049241,9.611523,-37.2,-229.59999,-33.1,-0.06963864,0.037873644,0.029321533,-1.0,0.0,0.0,10.277113,-5.6969013,-0.17045738
1587633942519,-0.0011971008,1.103727,9.582792,-37.2,-229.5,-33.1,-0.08735373,0.03848451,0.028710667,-1.0,0.0,0.0,10.308912,-5.7064676,-0.17342235
1587633942532,-0.05267244,1.055843,9.623494,-37.2,-229.4,-33.1,-0.10873401,0.042760566,0.026267206,-1.0,0.0,0.0,10.325469,-5.6938467,-0.18249223
1587633942541,-0.027533319,1.0546459,9.647436,-37.2,-229.4,-33.1,-0.10751228,0.040927973,0.02321288,-1.0,0.0,0.0,10.320361,-5.6825037,-0.18717426
1587633942555,-0.061052144,1.0151415,9.627085,-37.2,-229.4,-33.1,-0.07819075,0.031154128,0.027488936,-1.0,0.0,0.0,10.342208,-5.6868715,-0.1863512
1587633942564,-0.093373865,1.0402806,9.64145,-37.2,-229.4,-33.1,-0.061086524,0.02565634,0.026267206,-1.0,0.0,0.0,10.335494,-5.70057,-0.18320966
1587633942577,-0.095768064,1.0893618,9.66659,-37.2,-229.29999,-33.0,-0.0842994,0.022602014,0.014049901,-1.0,0.0,0.0,10.348336,-5.7109237,-0.1767899
1587633942586,-0.11133038,1.0869676,9.647436,-37.2,-229.29999,-33.0,-0.09773844,0.02076942,0.005497787,-1.0,0.0,0.0,10.3487835,-5.7124133,-0.17425025
1587633942597,-0.12449849,1.0857705,9.65821,-37.3,-229.29999,-33.1,-0.10262536,0.02076942,0.0061086523,-1.0,0.0,0.0,10.401373,-5.706929,-0.17220183
1587633942608,-0.11611878,1.0905589,9.7324295,-37.3,-229.29999,-33.1,-0.10323623,0.015882496,0.007941248,-1.0,0.0,0.0,10.406532,-5.699209,-0.17085116
1587633942619,-0.079008654,1.0582372,9.7563715,-37.3,-229.29999,-33.1,-0.1001819,0.01160644,0.008552114,-1.0,0.0,0.0,10.445932,-5.690858,-0.16656277
1587633942630,-0.06823475,1.055843,9.716867,-37.3,-229.2,-33.2,-0.10445796,0.009162978,0.01282817,-1.0,0.0,0.0,10.449681,-5.6840653,-0.15966254
1587633942643,-0.130484,1.0881647,9.812635,-37.3,-229.2,-33.2,-0.11178834,0.028099801,0.014049901,-1.0,0.0,0.0,10.467667,-5.6627955,-0.15533783
1587633942654,-0.10534488,1.009156,9.7324295,-37.3,-229.2,-33.1,-0.11301007,0.039095376,0.015271631,-1.0,0.0,0.0,10.4868145,-5.648574,-0.16513035
1587633942664,-0.08020575,1.0115502,9.689334,-37.3,-229.2,-33.1,-0.106901415,0.043982297,0.015271631,-1.0,0.0,0.0,10.48674,-5.6370506,-0.17720619
1587633942677,-0.09935937,1.0103531,9.721656,-37.3,-229.09999,-33.1,-0.080634214,0.028710667,0.017104227,-1.0,0.0,0.0,10.501239,-5.6305256,-0.18288398
1587633942689,-0.108936176,1.0079589,9.726444,-37.3,-229.09999,-33.1,-0.07941248,0.032986723,0.015271631,-1.0,0.0,0.0,10.500179,-5.6327786,-0.18614739
1587633942700,-0.077811554,1.0414777,9.728839,-37.3,-229.09999,-33.1,-0.095294975,0.02443461,0.014660766,-1.0,0.0,0.0,10.514189,-5.6355486,-0.19154404
1587633942711,-0.08738836,1.0163386,9.722853,-37.3,-229.09999,-33.1,-0.105068825,0.023823744,0.013439035,-1.0,0.0,0.0,10.514441,-5.628884,-0.1919469
1587633942722,-0.12928689,0.9696517,9.745598,-37.3,-229.09999,-33.1,-0.10567969,0.015271631,0.01038471,-1.0,0.0,0.0,10.52941,-5.601824,-0.18772429
1587633942732,-0.107739076,0.9768343,9.7479925,-37.3,-229.0,-33.2,-0.09285152,0.01160644,0.0067195175,-1.0,0.0,0.0,10.534259,-5.594799,-0.18201348
1587633942742,-0.08619126,0.9792285,9.752781,-37.3,-229.0,-33.2,-0.07574729,-0.0012217305,0.01160644,-1.0,0.0,0.0,10.536374,-5.5968366,-0.16841558
1587633942753,-0.074220255,0.9864111,9.770737,-37.3,-229.0,-33.2,-0.06291912,6.1086525E-4,0.015271631,-1.0,0.0,0.0,10.527159,-5.605683,-0.15555978
1587633942764,-0.055066638,1.0223241,9.753978,-37.3,-229.0,-33.2,-0.06536258,0.023823744,0.018936822,-1.0,0.0,0.0,10.524978,-5.6131964,-0.1551393
1587633942775,-0.055066638,1.0474633,9.76954,-37.3,-229.0,-33.2,-0.09896017,0.06352998,0.019547688,-1.0,0.0,0.0,10.522276,-5.601938,-0.1768413
1587633942786,-0.08738836,1.0151415,9.688137,-37.3,-229.0,-33.2,-0.10140363,0.07513642,0.014660766,-1.0,0.0,0.0,10.520288,-5.5859356,-0.205406
1587633942796,-0.075417355,1.0007763,9.623494,-37.3,-229.0,-33.1,-0.09101892,0.058643065,0.009773844,-1.0,0.0,0.0,10.539496,-5.5738726,-0.2330369
1587633942808,-0.04309563,0.997185,9.616311,-37.3,-229.0,-33.1,-0.08857546,0.045814894,0.01160644,-1.0,0.0,0.0,10.542302,-5.5676727,-0.25072926
1587633942820,-0.07062895,1.0378864,9.674969,-37.3,-229.0,-33.1,-0.081855945,0.03848451,0.015271631,-1.0,0.0,0.0,10.568107,-5.563536,-0.2607047
1587633942830,-0.11133038,1.0163386,9.721656,-37.3,-229.0,-33.2,-0.07391469,0.045814894,0.02076942,-1.0,0.0,0.0,10.567779,-5.563189,-0.2667679
1587633942840,-0.11971009,1.0295067,9.667787,-37.3,-229.0,-33.2,-0.070249505,0.047647487,0.02443461,-1.0,0.0,0.0,10.588448,-5.5677543,-0.27710897
1587633942853,-0.1412579,0.985214,9.697714,-37.3,-229.0,-33.2,-0.070249505,0.052534413,0.02565634,-1.0,0.0,0.0,10.604904,-5.5802126,-0.30273214
1587633942863,-0.12928689,0.9660604,9.689334,-37.3,-229.0,-33.2,-0.054367006,0.044593163,0.02321288,-1.0,0.0,0.0,10.600159,-5.594458,-0.31299877
1587633942873,-0.08020575,1.0007763,9.7803135,-37.3,-228.9,-33.2,-0.050701816,0.03359759,0.020158553,-1.0,0.0,0.0,10.617102,-5.6101665,-0.3166364
1587633942886,-0.09696517,0.9576807,9.704897,-37.3,-228.9,-33.2,-0.07941248,0.012217305,0.019547688,-1.0,0.0,0.0,10.613712,-5.6136856,-0.319735
1587633942897,-0.108936176,0.997185,9.667787,-37.3,-228.9,-33.3,-0.092240654,-0.0061086523,0.014660766,-1.0,0.0,0.0,10.626526,-5.6124234,-0.31129816
1587633942908,-0.08738836,1.009156,9.799467,-37.3,-228.9,-33.3,-0.10323623,0.004276057,0.016493361,-1.0,0.0,0.0,10.62662,-5.6039295,-0.29266864
1587633942921,-0.10295067,0.9816227,9.794679,-37.3,-228.9,-33.3,-0.108123146,0.02443461,0.014049901,-1.0,0.0,0.0,10.629407,-5.5890245,-0.2801295
1587633942932,-0.12689269,0.9959879,9.586384,-37.3,-228.9,-33.3,-0.09712757,0.031154128,0.012217305,-1.0,0.0,0.0,10.636903,-5.5610566,-0.2851981
1587633942943,-0.079008654,1.0067618,9.595961,-37.3,-228.9,-33.3,-0.06963864,0.004886922,0.014049901,-1.0,0.0,0.0,10.637545,-5.566417,-0.27446094
1587633942953,-0.06943185,0.9995792,9.655815,-37.3,-228.9,-33.3,-0.05497787,-0.02443461,0.017715093,-1.0,0.0,0.0,10.627701,-5.5800705,-0.24640498
1587633942963,-0.093373865,1.009156,9.706094,-37.3,-228.9,-33.3,-0.05681047,-0.03359759,0.022602014,-1.0,0.0,0.0,10.623458,-5.592706,-0.21308482
1587633942974,-0.08259996,0.997185,9.673772,-37.3,-228.9,-33.4,-0.0580322,-0.01160644,0.025045475,-1.0,0.0,0.0,10.595297,-5.60437,-0.19262698
1587633942984,-0.095768064,1.0043676,9.68694,-37.3,-228.9,-33.4,-0.07880162,-0.0012217305,0.030543262,-1.0,0.0,0.0,10.585585,-5.603879,-0.17595439
1587633942997,-0.075417355,0.9756372,9.787497,-37.3,-228.9,-33.4,-0.08735373,0.010995574,0.026267206,-1.0,0.0,0.0,10.555436,-5.6009126,-0.1644106
1587633943007,-0.08020575,0.92416185,9.850943,-37.3,-228.9,-33.4,-0.08307768,0.02321288,0.02076942,-1.0,0.0,0.0,10.549026,-5.594292,-0.15647925
1587633943017,-0.093373865,0.92176765,9.792285,-37.3,-228.9,-33.3,-0.07819075,0.022602014,0.016493361,-1.0,0.0,0.0,10.527691,-5.589228,-0.15578611
1587633943030,-0.11971009,0.9696517,9.750386,-37.3,-228.9,-33.4,-0.06780604,0.017104227,0.009773844,-1.0,0.0,0.0,10.526971,-5.5869875,-0.15549575
1587633943041,-0.12330139,0.9636662,9.707291,-37.3,-228.9,-33.4,-0.056199603,0.01282817,0.0036651916,-1.0,0.0,0.0,10.512959,-5.5905576,-0.1528311
1587633943052,-0.108936176,1.0187328,9.665392,-37.3,-229.0,-33.3,-0.044593163,0.0030543262,0.002443461,-1.0,0.0,0.0,10.513282,-5.618535,-0.13972536
1587633943062,-0.09935937,1.0199299,9.734824,-37.3,-229.0,-33.3,-0.04642576,-0.004276057,0.007330383,-1.0,0.0,0.0,10.518019,-5.6351805,-0.12635551
1587633943072,-0.08379706,1.0163386,9.721656,-37.3,-228.9,-33.2,-0.042760566,0.0061086523,0.014049901,-1.0,0.0,0.0,10.491766,-5.6540976,-0.11819361
1587633943085,-0.07062895,1.0462662,9.668983,-37.3,-228.9,-33.2,-0.03726278,0.0030543262,0.02076942,-1.0,0.0,0.0,10.488744,-5.676693,-0.10754534
1587633943096,-0.12090719,1.0833763,9.697714,-37.3,-228.9,-33.2,-0.03848451,0.004886922,0.02321288,-1.0,0.0,0.0,10.455481,-5.6995425,-0.09851724
1587633943106,-0.1316811,1.0666169,9.665392,-37.3,-228.9,-33.2,-0.027488936,0.021380283,0.03176499,-1.0,0.0,0.0,10.448041,-5.722542,-0.09621877
1587633943119,-0.1400608,1.0342951,9.598354,-37.3,-228.9,-33.2,-0.01038471,0.018936822,0.035430185,-1.0,0.0,0.0,10.414822,-5.7520885,-0.09751233
1587633943130,-0.12808979,0.9995792,9.677363,-37.3,-228.9,-33.2,-0.004276057,0.022602014,0.027488936,-1.0,0.0,0.0,10.403602,-5.790541,-0.097351655
1587633943141,-0.12928689,0.9935937,9.744401,-37.3,-228.9,-33.1,0.0067195175,0.026267206,0.027488936,-1.0,0.0,0.0,10.37779,-5.8314176,-0.09984672
1587633943153,-0.092176765,1.0414777,9.665392,-37.3,-228.9,-33.1,0.018936822,0.03176499,0.028710667,-1.0,0.0,0.0,10.350419,-5.9307404,-0.11254143
1587633943164,-0.11492168,1.0498575,9.67018,-37.3,-228.9,-33.1,0.040927973,0.03176499,0.029932396,-1.0,0.0,0.0,10.342442,-5.995701,-0.1197173
1587633943175,-0.10534488,1.0965444,9.570822,-37.3,-228.9,-33.1,0.057421334,0.0421497,0.03848451,-1.0,0.0,0.0,10.320279,-6.070368,-0.13188414
1587633943186,-0.17357962,1.1384429,9.598354,-37.3,-228.9,-33.1,0.080634214,0.04520403,0.05375614,-1.0,0.0,0.0,10.298619,-6.158761,-0.14573509
1587633943196,-0.1316811,1.1647792,9.586384,-37.3,-228.9,-33.1,0.17165314,0.10751228,0.087964594,-1.0,0.0,0.0,10.271972,-6.267318,-0.16928817
1587633943207,-0.08738836,1.1575965,9.579201,-37.3,-228.9,-33.1,0.1881465,0.13194689,0.09896017,-1.0,0.0,0.0,10.230536,-6.4074235,-0.21476477
1587633943217,-0.089782566,1.1935096,9.524135,-37.3,-228.9,-33.0,0.1863139,0.15271631,0.1020145,-1.0,0.0,0.0,10.221001,-6.5553265,-0.27150682
1587633943231,-0.12330139,1.2605472,9.412804,-37.3,-228.9,-33.0,0.1600467,0.15210545,0.09040806,-1.0,0.0,0.0,10.1717,-6.7030606,-0.33902055
1587633943242,-0.15562311,1.2641385,9.40203,-37.3,-228.9,-33.0,0.13255776,0.15210545,0.08307768,-1.0,0.0,0.0,10.202179,-6.837035,-0.4069001
1587633943252,-0.22385786,1.2497733,9.702502,-37.3,-229.0,-33.0,0.11301007,0.15271631,0.069027774,-1.0,0.0,0.0,10.240969,-7.059333,-0.5440865
1587633943264,-0.19991584,1.2366052,9.730036,-37.3,-229.0,-33.0,0.11789699,0.16737708,0.06780604,-1.0,0.0,0.0,10.211606,-7.1662903,-0.6213259
1587633943279,-0.16998832,1.1611878,9.77792,-37.3,-229.0,-33.0,0.24312437,0.17470746,0.07941248,-1.0,0.0,0.0,10.310063,-7.301455,-0.70093244
1587633943288,-0.17597382,1.0690111,9.94312,-37.3,-229.0,-33.0,0.24312437,0.17470746,0.07941248,-1.0,0.0,0.0,10.27555,-7.469474,-0.7791387
1587633943297,-0.21068975,1.0654198,9.974244,-37.3,-229.0,-32.9,0.41233405,0.21991149,0.10567969,-1.0,0.0,0.0,10.372122,-7.8011084,-0.9087299
1587633943307,-0.2789245,1.1528081,9.902418,-37.3,-229.0,-32.9,0.6035349,0.23640485,0.13194689,-1.0,0.0,0.0,10.372626,-7.7795634,-0.9124217
1587633943318,-0.2741361,1.2330139,9.913192,-37.2,-229.09999,-32.9,0.68416905,0.2761111,0.14660765,-1.0,0.0,0.0,10.285079,-8.413599,-1.0914707
1587633943328,-0.29927522,1.3192052,9.836577,-37.2,-229.09999,-32.9,0.7556403,0.31581733,0.15882497,-1.0,0.0,0.0,10.216782,-8.837643,-1.220891
1587633943339,-0.24660277,1.4317327,9.5732155,-37.2,-229.2,-32.9,0.8155051,0.30848694,0.1740966,-1.0,0.0,0.0,10.1611185,-9.319806,-1.3770413
1587633943351,-0.33877954,1.6903064,9.369708,-37.1,-229.29999,-32.9,0.87109387,0.2565634,0.18753563,-1.0,0.0,0.0,10.0197525,-10.321807,-1.6265293
1587633943361,-0.33877954,1.8698715,9.527725,-37.1,-229.29999,-32.9,0.9193522,0.21563543,0.19364429,-1.0,0.0,0.0,9.930889,-10.876872,-1.7139316
1587633943372,-0.427365,1.9141643,9.661801,-37.1,-229.4,-32.8,0.97433007,0.19058995,0.1881465,-1.0,0.0,0.0,9.8720875,-11.46021,-1.7873715
1587633943383,-0.37469256,2.2050598,9.793482,-37.1,-229.4,-32.8,1.0641272,0.15454891,0.19058995,-1.0,0.0,0.0,9.788553,-12.096934,-1.8398374
1587633943393,-0.50038815,1.9536686,9.865308,-37.0,-229.59999,-32.9,1.2034045,0.08857546,0.17531833,-1.0,0.0,0.0,9.738109,-12.806505,-1.8572333
1587633943405,-0.58897364,2.019509,10.058042,-37.0,-229.59999,-32.9,1.3304645,0.017104227,0.17898351,-1.0,0.0,0.0,9.666972,-13.582256,-1.8350534
1587633943417,-0.49799395,2.27928,10.007763,-36.899998,-229.79999,-32.9,1.5454891,-0.05681047,0.18020524,-1.0,0.0,0.0,9.599299,-14.407775,-1.7814373
1587633943426,-0.40701428,2.349909,9.921572,-36.899998,-229.79999,-32.9,1.5717562,-0.020158553,0.18325958,-1.0,0.0,0.0,9.530393,-15.288311,-1.7185365
1587633943439,-0.30047232,2.542642,9.818622,-36.8,-230.09999,-32.9,1.5509869,0.03848451,0.19120082,-1.0,0.0,0.0,9.463141,-16.181723,-1.6745381
1587633943449,-0.30047232,2.542642,9.818622,-36.8,-230.4,-32.8,1.5210545,0.07086037,0.19364429,-1.0,0.0,0.0,9.463141,-16.181723,-1.6745381
1587633943460,-0.2837129,3.1495724,9.593566,-36.8,-230.4,-32.8,1.5076154,0.06414085,0.18387043,-1.0,0.0,0.0,9.228198,-18.799917,-1.6604617
1587633943472,-0.23463176,3.240552,10.060435,-36.774,-231.368,-32.951,1.5137241,0.0580322,0.16310102,-1.0,0.0,0.0,9.164269,-19.637232,-1.6586133
1587633943481,-0.23822308,3.1998506,10.284293,-36.774,-231.368,-32.951,1.5662584,0.13988814,0.1337795,-1.0,0.0,0.0,9.120378,-20.50052,-1.7072687
1587633943493,-0.30286652,3.2034419,9.959879,-36.27,-234.43,-33.212,1.6468927,0.21868975,0.1020145,-1.0,0.0,0.0,9.09279,-21.402851,-1.8070561
1587633943504,-0.40462008,3.4344823,9.533711,-36.27,-234.43,-33.212,1.7281377,0.2144137,0.08979719,-1.0,0.0,0.0,9.076853,-22.342068,-1.9075707
1587633943515,-0.36631286,3.6750996,9.175778,-36.484,-236.892,-32.823,1.8264871,0.16554448,0.08246681,-1.0,0.0,0.0,9.06656,-23.331182,-1.982487
1587633943526,-0.16998832,4.0438066,8.567651,-36.484,-236.892,-32.823,2.0952678,-0.03176499,0.12034045,-1.0,0.0,0.0,9.072106,-24.401142,-2.018488
1587633943537,-0.1328782,4.44723,8.449138,-36.240997,-239.269,-32.644,2.0885482,-0.06169739,0.12034045,-1.0,0.0,0.0,9.044026,-25.564945,-1.9697547
1587633943546,-0.16400282,4.770447,8.494628,-36.240997,-239.269,-32.644,1.9730947,-0.02321288,0.089186326,-1.0,0.0,0.0,9.0254345,-26.735052,-1.9025164
1587633943556,-0.12569559,5.057751,8.514978,-36.190998,-241.31299,-33.037,1.8228219,0.04642576,0.051923547,-1.0,0.0,0.0,9.01064,-27.848715,-1.8635945
1587633943568,-0.06464344,5.0541596,8.5473,-36.190998,-241.31299,-33.037,1.7055358,0.1301143,0.031154128,-1.0,0.0,0.0,9.024391,-28.878645,-1.8724035
1587633943579,-0.18555063,5.021838,8.603564,-36.125,-243.51999,-33.515,1.6291776,0.22602014,0.029321533,-1.0,0.0,0.0,9.03585,-29.843521,-1.9344438
1587633943590,-0.34596214,5.033809,8.614338,-36.125,-243.51999,-33.515,1.6065756,0.3323107,0.04520403,-1.0,0.0,0.0,9.060542,-30.763033,-2.052959
1587633943601,-0.33159694,5.269638,7.9714947,-36.161,-245.82599,-32.345,1.6340646,0.39584067,0.042760566,-1.0,0.0,0.0,9.085896,-32.595783,-2.4438438
1587633943613,-0.32800564,5.327099,7.487866,-35.273,-247.971,-30.754002,1.6975945,0.3652974,0.03176499,-1.0,0.0,0.0,9.092081,-33.560528,-2.6483815
1587633943625,-0.25977087,5.554548,7.285556,-35.273,-247.971,-30.754002,1.7611245,0.26511553,0.015882496,-1.0,0.0,0.0,9.132355,-34.56775,-2.8051035
1587633943635,-0.32202014,5.6982,7.2125325,-35.187,-249.187,-32.022,1.8112154,0.1423316,-0.009162978,-1.0,0.0,0.0,9.179113,-35.605686,-2.9056664
1587633943646,-0.29807812,5.7903767,7.27957,-35.187,-249.187,-32.022,1.8839084,-0.04337143,-0.01160644,-1.0,0.0,0.0,9.25704,-36.66544,-2.9271383
1587633943655,-0.33638534,5.9603653,7.380127,-34.881,-250.762,-33.085,1.8839084,-0.04337143,-0.01160644,-1.0,0.0,0.0,9.317394,-37.74608,-2.9301977
1587633943669,-0.4141969,6.0728927,6.9838862,-35.419,-252.81999,-31.164001,1.9230038,-0.112399206,0.029932396,-1.0,0.0,0.0,9.352694,-38.84814,-2.9218345
1587633943678,-0.45489833,6.3901243,6.730101,-35.419,-252.81999,-31.164001,1.8790215,-0.1777618,0.015271631,-1.0,0.0,0.0,9.391395,-39.956413,-2.8754165
1587633943689,-0.4321534,6.6175733,6.793547,-35.419,-252.81999,-31.164001,1.8295414,-0.16187929,-0.012217305,-1.0,0.0,0.0,9.459283,-41.053844,-2.799653
1587633943700,-0.45968673,6.801927,6.977901,-35.433,-254.381,-30.581001,1.78617,-0.105068825,-0.065973446,-1.0,0.0,0.0,9.528896,-42.098835,-2.749708
1587633943712,-0.60573304,6.7468605,6.9587474,-35.02,-256.444,-27.958,1.7263051,-0.045814894,-0.08124508,-1.0,0.0,0.0,9.75282,-44.114006,-2.821206
1587633943721,-0.6452374,6.9252286,6.467936,-35.02,-256.444,-27.958,1.6578883,-0.022602014,-0.081855945,-1.0,0.0,0.0,9.866878,-45.06536,-2.8994722
1587633943732,-0.58298814,7.1622543,5.93762,-36.027,-257.625,-28.476002,1.6194037,-0.040317107,-0.07819075,-1.0,0.0,0.0,9.975581,-46.00197,-2.9701266
1587633943743,-0.21906945,7.3430166,5.0840874,-36.027,-257.625,-28.476002,1.6303993,-0.12034045,-0.065973446,-1.0,0.0,0.0,10.120783,-46.956135,-2.9889796
1587633943755,-0.19752164,7.41604,4.88896,-35.269,-258.632,-28.145,1.7232509,-0.3200934,-0.0580322,-1.0,0.0,0.0,10.246977,-47.97462,-2.892458
1587633943763,-0.2789245,7.5465236,5.0397944,-35.269,-258.632,-28.145,1.8368717,-0.5039638,-0.07452556,-1.0,0.0,0.0,10.403639,-49.05733,-2.7064013
1587633943778,-0.41180268,7.8972745,5.5162406,-35.8,-260.392,-28.111,1.8270979,-0.71776664,-0.16249016,-1.0,0.0,0.0,10.620177,-50.179916,-2.4433322
1587633943788,-0.47764325,8.094796,5.9124813,-35.8,-260.392,-28.111,1.6194037,-0.5699373,-0.19853121,-1.0,0.0,0.0,10.875929,-51.2552,-2.19899
1587633943797,-0.3842694,8.279149,6.027403,-36.374,-261.862,-26.897999,1.3390167,-0.32070425,-0.22968534,-1.0,0.0,0.0,11.145507,-52.20738,-1.5995448
1587633943808,-0.30406362,8.341399,5.8083334,-36.374,-261.862,-26.897999,1.0586295,-0.040927973,-0.21746802,-1.0,0.0,0.0,11.407924,-53.000725,-1.574793
1587633943819,-0.34476504,8.485051,5.4168816,-37.215,-263.00198,-25.687,0.8313876,0.19914207,-0.17104226,-1.0,0.0,0.0,11.607547,-53.636,-1.667853
1587633943830,-0.38067806,8.444349,5.2049947,-36.967,-263.304,-25.361,0.7012733,0.3463606,-0.13255776,-1.0,0.0,0.0,11.784114,-54.144554,-1.8354516
1587633943842,-0.35913026,8.285135,4.88896,-36.967,-263.304,-25.361,0.6377433,0.36957347,-0.10140363,-1.0,0.0,0.0,11.851692,-54.58155,-2.0393713
1587633943851,-0.50038815,8.470686,4.2305546,-36.454,-263.889,-25.032001,0.6035349,0.29749137,-0.086132,-1.0,0.0,0.0,11.9844675,-55.37341,-2.3869984
1587633943862,-0.51475334,8.48984,4.337096,-36.454,-263.889,-25.032001,0.60903263,0.12095132,-0.07696902,-1.0,0.0,0.0,12.088756,-55.769466,-2.4655113
1587633943871,-0.51475334,8.48984,4.337096,-36.193,-264.442,-25.3,0.61208695,0.020158553,-0.07819075,-1.0,0.0,0.0,12.088756,-55.769466,-2.4655113
1587633943882,-0.62368953,8.582016,4.665102,-36.193,-264.442,-25.3,0.61391956,-0.034208454,-0.08368854,-1.0,0.0,0.0,12.301473,-56.57204,-2.5308735
1587633943895,-0.5530606,8.584411,4.7405195,-35.429,-264.392,-23.797,0.5888741,-0.06658431,-0.08002335,-1.0,0.0,0.0,12.407047,-56.959435,-2.5422893
1587633943904,-0.47524905,8.536526,4.868609,-35.429,-264.392,-23.797,0.6041457,-0.1020145,-0.06536258,-1.0,0.0,0.0,12.504078,-57.35461,-2.5321639
1587633943917,-0.4177882,8.467094,4.8279076,-36.494,-265.557,-24.087002,0.7079928,-0.1826487,-0.053145275,-1.0,0.0,0.0,12.607713,-57.783573,-2.4980109
1587633943926,-0.46806642,8.535329,4.7776294,-36.494,-265.557,-24.087002,0.70371675,-0.1777618,-0.054367006,-1.0,0.0,0.0,12.754018,-58.233128,-2.451837
1587633943937,-0.6428431,8.531737,4.736928,-36.279,-265.807,-22.583,0.66156703,-0.13927728,-0.057421334,0.0,0.0,0.0,12.866104,-58.679276,-2.4106412
1587633943949,-0.5303157,8.647857,4.5681367,-35.735,-266.60498,-23.464,0.6151413,-0.076358154,-0.062308256,0.0,0.0,0.0,13.001325,-59.099873,-2.3868296
1587633943960,-0.49440265,8.701726,4.414908,-35.735,-266.60498,-23.464,0.5375614,-0.023823744,-0.059864793,0.0,0.0,0.0,13.097931,-59.494385,-2.388822
1587633943972,-0.5590461,8.7532015,3.881001,-36.812,-266.991,-22.875,0.4990769,-0.007330383,-0.058643065,0.0,0.0,0.0,13.257947,-60.182915,-2.4357073
1587633943979,-0.5590461,8.7532015,3.881001,-36.812,-266.991,-22.875,0.46486846,-0.005497787,-0.05131268,0.0,0.0,0.0,13.257947,-60.182915,-2.4357073
1587633943990,-0.5386954,8.748413,3.8486793,-36.812,-266.991,-22.875,0.48380527,-0.02565634,-0.05009095,0.0,0.0,0.0,13.379849,-60.500656,-2.4599628
1587633944002,-0.50158525,8.544906,4.120421,-35.504997,-267.328,-22.863998,0.53878313,-0.047647487,-0.051923547,0.0,0.0,0.0,13.527878,-61.186596,-2.4867551
1587633944013,-0.5422867,8.644265,4.1012673,-36.038998,-267.828,-22.578,0.54733527,-0.05497787,-0.055588737,0.0,0.0,0.0,13.617343,-61.547817,-2.49674
1587633944023,-0.5470751,8.759187,3.845088,-36.038998,-267.828,-22.578,0.4972443,-0.045814894,-0.06291912,0.0,0.0,0.0,13.720565,-61.8811,-2.515071
1587633944034,-0.61650693,8.836999,3.5924997,-36.312,-268.333,-22.283,0.45570546,-0.034208454,-0.055588737,0.0,0.0,0.0,13.80539,-62.19332,-2.534614
1587633944045,-0.5805939,8.75799,3.5996823,-36.312,-268.333,-22.283,0.44165558,-0.05009095,-0.047647487,0.0,0.0,0.0,14.125485,-62.499054,-2.5458875
1587633944056,-0.5482722,8.707711,3.6487634,-36.299,-268.63098,-22.876,0.49968776,-0.09162979,-0.040317107,0.0,0.0,0.0,14.213016,-62.819527,-2.5476334
1587633944067,-0.59855044,8.663419,3.6858735,-36.299,-268.63098,-22.876,0.5235115,-0.09773844,-0.0580322,0.0,0.0,0.0,14.393496,-63.166485,-2.5427449
1587633944078,-0.60693014,8.698134,3.6858735,-35.816998,-269.109,-22.007,0.46914452,-0.076358154,-0.0580322,0.0,0.0,0.0,14.49779,-63.510468,-2.5471025
1587633944087,-0.6476316,8.743625,3.4967315,-35.816998,-269.109,-22.007,0.3817908,-0.032986723,-0.04520403,0.0,0.0,0.0,14.486726,-63.829082,-2.5593753
1587633944098,-0.61530983,8.883685,3.1962593,-36.576,-268.819,-22.027,0.26450464,0.02076942,-0.029321533,0.0,0.0,0.0,14.566427,-64.10402,-2.5787635
1587633944109,-0.6667852,9.02614,3.0801406,-36.576,-268.819,-22.027,0.1337795,0.07941248,-0.01282817,0.0,0.0,0.0,14.824596,-64.3166,-2.606799
1587633944120,-0.760159,8.991425,3.21661,-35.857,-268.852,-20.917,0.0036651916,0.15393804,0.007941248,0.0,0.0,0.0,14.848699,-64.46114,-2.645039
1587633944132,-0.81402856,9.074024,2.9951463,-36.853,-269.00598,-20.672,-0.10567969,0.19853121,0.01282817,0.0,0.0,0.0,14.807668,-64.56908,-2.7572825
1587633944143,-0.78170687,9.012972,2.9245174,-36.853,-269.00598,-20.672,-0.21319197,0.19303341,0.025045475,0.0,0.0,0.0,14.82426,-64.541084,-2.8156347
1587633944154,-0.7433996,8.941146,2.873042,-36.044,-268.49298,-22.598,-0.27855456,0.1685988,0.03481932,0.0,0.0,0.0,14.788361,-64.486015,-2.8642848
1587633944165,-0.6787562,8.844181,2.8981812,-36.044,-268.49298,-22.598,-0.26267207,0.118507855,0.03604105,0.0,0.0,0.0,14.761232,-64.44186,-2.8996248
1587633944176,-0.61171854,8.748413,3.357868,-35.826,-268.48898,-22.083,-0.06719518,-0.06291912,-0.0030543262,0.0,0.0,0.0,14.771377,-64.44846,-2.9169626
1587633944187,-0.5542577,8.726865,3.7612908,-35.826,-268.48898,-22.083,-0.042760566,-0.1301143,-0.004276057,0.0,0.0,0.0,14.8171835,-64.502495,-2.9168732
1587633944196,-0.50517654,8.841787,3.8247373,-36.315,-268.759,-21.085,-0.007941248,-0.13805555,-0.004276057,0.0,0.0,0.0,14.888218,-64.560455,-2.89589
1587633944207,-0.59735334,8.896853,4.1036615,-36.315,-268.759,-21.085,-0.02687807,-0.081855945,-0.0018325958,0.0,0.0,0.0,14.978971,-64.62696,-2.8708558
1587633944218,-0.6464345,8.876503,4.0916905,-36.532997,-268.624,-21.387001,-0.07880162,-0.01282817,0.0036651916,0.0,0.0,0.0,15.033141,-64.67534,-2.8585994
1587633944229,-0.5662287,8.937555,4.0426097,-35.869,-268.292,-21.909,-0.11362094,0.043982297,0.005497787,0.0,0.0,0.0,15.084563,-64.6895,-2.8612156
1587633944240,-0.58657944,8.978256,3.9743748,-35.869,-268.292,-21.909,-0.15210545,0.092240654,0.017104227,0.0,0.0,0.0,15.095063,-64.68137,-2.8775325
1587633944251,-0.5446809,8.9758625,3.7110126,-36.695,-268.697,-21.133999,-0.18753563,0.12644911,0.023823744,0.0,0.0,0.0,15.041504,-64.602455,-2.9281538
1587633944262,-0.59615624,8.948329,3.550601,-36.695,-268.697,-21.133999,-0.22296582,0.1423316,0.02687807,0.0,0.0,0.0,15.045264,-64.53588,-2.9594474
1587633944274,-0.6488287,9.027337,3.3135753,-35.609,-267.962,-21.998001,-0.23762658,0.14294247,0.023823744,0.0,0.0,0.0,15.041486,-64.5672,-3.0242717
1587633944286,-0.676362,9.0476885,3.2812533,-35.609,-267.962,-21.998001,-0.22113322,-0.0030543262,0.015271631,0.0,0.0,0.0,15.037533,-64.63298,-3.079116
1587633944298,-0.6452374,8.8777,3.5122938,-36.617,-267.958,-22.23,-0.22113322,-0.0030543262,0.015271631,0.0,0.0,0.0,15.08255,-64.69281,-3.1114807
1587633944307,-0.56982,8.973468,3.6296098,-36.617,-267.958,-22.23,-0.2846632,0.017715093,0.016493361,0.0,0.0,0.0,15.355887,-64.709076,-3.1449537
1587633944320,-0.6536171,9.02614,3.5972881,-36.287,-268.258,-21.548,-0.44959682,0.099571034,0.047647487,0.0,0.0,0.0,15.360149,-64.67624,-3.1845052
1587633944332,-0.7398083,8.985439,3.513491,-36.418,-268.009,-22.278,-0.5729916,0.14477506,0.06047566,0.0,0.0,0.0,15.482238,-64.52714,-3.2863483
1587633944342,-0.6572084,9.004593,3.6176388,-36.418,-268.009,-22.278,-0.7141015,0.23273966,0.073303826,0.0,0.0,0.0,15.3981495,-64.20262,-3.3253403
1587633944352,-0.7086837,8.9842415,3.630807,-36.2,-267.9,-22.2,-0.86498517,0.33475417,0.08552113,0.0,0.0,0.0,15.255636,-63.797787,-3.3898172
1587633944362,-0.6859388,8.881291,3.5565867,-36.2,-267.9,-22.2,-1.0091494,0.42394048,0.09773844,0.0,0.0,0.0,15.102686,-63.31651,-3.4777691
1587633944375,-0.62368953,8.755595,3.527856,-36.3,-268.1,-22.0,-1.119716,0.45265114,0.10934488,0.0,0.0,0.0,14.905478,-62.77982,-3.5723114
1587633944386,-0.62368953,8.755595,3.527856,-36.3,-268.1,-22.0,-1.1917981,0.42210788,0.10934488,0.0,0.0,0.0,14.905478,-62.77982,-3.5723114
1587633944396,-0.6607997,8.531737,3.846285,-36.3,-268.3,-21.8,-1.2651019,0.40683624,0.087964594,0.0,0.0,0.0,14.571398,-61.512302,-3.7520688
1587633944406,-0.7469909,8.435969,4.0521865,-36.3,-268.3,-21.8,-1.3384057,0.43554693,0.07269296,0.0,0.0,0.0,14.501812,-61.000835,-3.8472974
1587633944417,-0.7326257,8.439561,4.080917,-36.2,-268.4,-21.7,-1.4605788,0.4709771,0.059864793,0.0,0.0,0.0,14.340923,-60.370193,-3.9773312
1587633944429,-0.80684596,8.553286,4.0294414,-36.2,-268.4,-21.7,-1.6352862,0.5009095,0.04153884,0.0,0.0,0.0,14.27611,-59.67843,-4.1347055
1587633944438,-1.0307038,8.689755,4.027047,-36.2,-268.4,-21.7,-1.8875736,0.56505036,0.023823744,0.0,0.0,0.0,14.123697,-58.904263,-4.3265424
1587633944449,-1.079785,8.653842,4.059369,-36.1,-268.4,-21.7,-2.2033908,0.63346726,0.04153884,0.0,0.0,0.0,14.096259,-58.00497,-4.5695257
1587633944460,-0.7314286,8.64666,4.131195,-36.1,-268.4,-21.7,-2.5344799,0.5858198,0.04886922,0.0,0.0,0.0,13.902515,-56.956074,-4.842048
1587633944471,-0.30885202,8.447941,6.277597,-36.1,-268.3,-21.7,-2.8295279,0.49174652,0.043982297,0.0,0.0,0.0,13.655606,-54.318756,-5.352807
1587633944482,-0.48961425,7.4591355,6.513426,-36.1,-268.3,-21.7,-2.8228083,0.5876524,-0.023823744,0.0,0.0,0.0,13.675453,-52.882607,-5.690081
1587633944493,-0.8690952,6.930017,6.669049,-36.0,-268.19998,-21.8,-2.7324002,0.5522222,-0.02443461,0.0,0.0,0.0,13.5134535,-51.466007,-7.631564
1587633944504,-1.163582,6.6726403,6.4140663,-36.0,-268.19998,-21.8,-2.5357015,0.45937067,-0.021380283,0.0,0.0,0.0,13.604313,-50.13777,-7.6759543
1587633944517,-1.1611878,6.7468605,5.8586116,-35.541,-266.75198,-22.563,-1.7708983,-0.3390302,-0.039095376,0.0,0.0,0.0,13.547131,-49.060314,-7.5400157
1587633944523,-1.1228806,6.9371996,5.7484784,-35.541,-266.75198,-22.563,-1.7708983,-0.3390302,-0.039095376,0.0,0.0,0.0,13.7513,-48.18346,-7.24593
1587633944536,-0.90141696,7.064092,5.896919,-35.086998,-263.561,-24.624,-1.6438384,-0.81489426,-0.032986723,0.0,0.0,0.0,13.81747,-47.38318,-6.816408
1587633944549,-0.6476316,7.3549876,6.0465565,-35.086998,-263.561,-24.624,-1.8099937,-0.9309586,-0.03176499,0.0,0.0,0.0,13.991791,-46.5824,-6.281609
1587633944560,-0.37948096,7.4088573,6.3003416,-34.923,-260.844,-26.29,-2.0390682,-0.96577793,-0.014660766,0.0,0.0,0.0,14.075588,-45.685257,-5.671498
1587633944571,-0.30765492,7.1706343,6.615179,-36.051,-258.022,-28.053001,-2.3151793,-0.89552844,0.0030543262,0.0,0.0,0.0,14.162181,-44.670227,-5.034548
1587633944581,-0.29568392,6.769605,7.589619,-36.051,-258.022,-28.053001,-2.6077838,-0.73914695,0.007941248,0.0,0.0,0.0,14.232722,-42.146545,-3.907218
1587633944591,-0.3866636,6.0848637,8.045714,-36.04,-255.78499,-29.437,-2.8478537,-0.552833,0.05131268,0.0,0.0,0.0,14.1912775,-40.642216,-3.4769363
1587633944604,-0.3866636,5.9723363,8.141483,-36.04,-255.78499,-29.437,-2.9700267,-0.36713,0.08246681,0.0,0.0,0.0,14.115185,-39.082115,-3.1526468
1587633944615,-0.21906945,5.619191,7.795521,-36.033,-253.039,-29.946999,-3.0030136,-0.26939157,0.10262536,0.0,0.0,0.0,14.015927,-37.485565,-2.8810575
1587633944626,-0.110133275,5.5138464,7.704541,-36.033,-253.039,-29.946999,-2.9064968,-0.24190263,0.10567969,0.0,0.0,0.0,13.904212,-35.961613,-2.6361907
1587633944638,-0.10295067,5.261258,8.070854,-36.245,-251.221,-30.823002,-2.7782152,-0.27122417,0.100792766,0.0,0.0,0.0,13.807798,-34.477837,-2.3891435
1587633944648,-0.1328782,4.7668557,8.444349,-36.245,-251.221,-30.823002,-2.7641652,-0.27000242,0.061086524,0.0,0.0,0.0,13.70512,-33.01463,-2.1459467
1587633944658,-0.12569559,4.3406878,8.750807,-36.711998,-248.45499,-31.397,-2.7623327,-0.25411993,0.029932396,0.0,0.0,0.0,13.644219,-31.543167,-1.9243604
1587633944671,-0.10534488,4.2317514,9.0237465,-36.711998,-248.45499,-31.397,-2.7782152,-0.23945917,0.015882496,0.0,0.0,0.0,13.593274,-30.056826,-1.726978
1587633944681,-0.19153613,4.1934443,9.387665,-36.2,-246.48099,-32.176,-2.8215866,-0.1881465,0.02687807,0.0,0.0,0.0,13.564656,-28.559591,-1.548211
1587633944691,-0.06823475,3.8786068,9.703699,-35.683,-243.804,-31.486,-2.9064968,-0.11728613,0.05009095,0.0,0.0,0.0,13.489773,-27.012108,-1.3961499
1587633944703,0.1328782,3.6535518,9.603143,-35.683,-243.804,-31.486,-3.028059,0.037873644,0.081855945,0.0,0.0,0.0,13.3005,-23.800714,-1.245844
1587633944713,-0.038307227,3.834314,8.959103,-36.139,-240.476,-32.503,-3.1581733,0.17898351,0.1301143,0.0,0.0,0.0,13.1893,-22.085552,-1.2791848
1587633944725,-0.4213795,3.157952,8.665813,-36.139,-240.476,-32.503,-3.2107077,0.26328292,0.1600467,0.0,0.0,0.0,13.017317,-20.373262,-1.3587533
1587633944736,-0.6715736,2.255338,8.986636,-35.885,-238.302,-31.433998,-3.0592132,0.3475823,0.16187929,0.0,0.0,0.0,12.885972,-18.732687,-1.4953052
1587633944746,-0.50637364,1.9632454,9.242816,-35.885,-238.302,-31.433998,-2.8667905,0.4111123,0.1142318,0.0,0.0,0.0,12.746883,-17.20383,-1.6800307
1587633944758,-0.33039984,1.8507179,9.370906,-35.269,-236.068,-33.291,-2.4239132,0.3231477,0.111177474,0.0,0.0,0.0,12.646301,-15.787253,-1.8476835
1587633944770,-0.33877954,1.5263035,9.734824,-35.269,-236.068,-33.291,-2.2052236,0.30787608,0.07941248,0.0,0.0,0.0,12.495237,-14.481434,-1.9862169
1587633944779,-0.31004912,1.0606314,9.953894,-36.341,-235.07399,-33.07,-1.9865338,0.2657264,0.04642576,0.0,0.0,0.0,12.41289,-13.281923,-2.122473
1587633944791,-0.24779987,0.93972415,10.225636,-35.746998,-233.579,-34.326,-1.8161024,0.22174409,0.031154128,0.0,0.0,0.0,12.303407,-11.220979,-2.332795
1587633944801,-0.22385786,1.0426749,10.035296,-35.746998,-233.579,-34.326,-1.7519615,0.22968534,0.028099801,0.0,0.0,0.0,12.242651,-10.267237,-2.4321473
1587633944813,-0.142455,1.1049241,9.740809,-35.004997,-230.9,-31.358002,-1.8368717,0.23457226,0.039095376,0.0,0.0,0.0,12.184395,-9.273522,-2.531052
1587633944822,-0.1316811,1.1013328,9.534908,-35.004997,-230.9,-31.358002,-1.9749273,0.25717425,0.06963864,0.0,0.0,0.0,12.063815,-8.200819,-2.6387088
1587633944833,-0.90500826,0.7086837,9.168595,-34.96,-228.978,-31.696,-2.084883,0.28160888,0.09101892,0.0,0.0,0.0,11.965161,-7.0681806,-2.763003
1587633944844,-1.0881647,0.29688102,9.0429,-34.96,-228.978,-31.696,-2.0659463,0.28893927,0.039095376,0.0,0.0,0.0,11.862692,-5.9428205,-2.9007838
1587633944853,-0.8463503,-0.0035913025,9.165004,-34.93,-227.375,-32.031,-1.9529362,0.19547687,-0.039095376,0.0,0.0,0.0,11.838316,-4.876607,-2.9926176
1587633944864,-0.6548142,0.01436521,9.487024,-34.93,-227.375,-32.031,-1.8429805,0.0580322,-0.055588737,0.0,0.0,0.0,11.79586,-3.8718286,-3.0075788
1587633944876,-0.5793968,-0.2825158,9.655815,-35.177998,-226.454,-32.349,-1.7354681,-0.02565634,-0.07391469,0.0,0.0,0.0,11.796872,-2.9261527,-2.9757545
1587633944887,-0.6476316,-0.7015011,9.840169,-35.177998,-226.454,-32.349,-1.5027285,-0.059864793,-0.12217305,0.0,0.0,0.0,11.795151,-2.0352821,-2.9247477
1587633944898,-0.5793968,-0.92655605,9.7958765,-34.625,-224.892,-32.063,-1.368949,-0.07941248,-0.15332718,-1.0,0.0,0.0,11.831844,-1.2144356,-2.8743289
1587633944910,-0.34117374,-0.82719666,9.7240505,-35.947998,-223.50699,-32.71,-1.287093,-0.13255776,-0.17470746,-1.0,0.0,0.0,11.843555,-0.46548754,-2.8115368
1587633944919,-0.4285621,-0.6619968,9.618706,-35.947998,-223.50699,-32.71,-1.2278391,-0.16249016,-0.20586158,-1.0,0.0,0.0,11.9179535,0.2334455,-2.717938
1587633944931,-0.6943185,-0.8595184,9.417592,-35.756,-222.85199,-29.665,-1.1863003,-0.22296582,-0.2828306,-1.0,0.0,0.0,12.002268,0.90256,-2.6066923
1587633944942,-0.6392518,-1.1492168,9.830592,-35.756,-222.85199,-29.665,-1.1203269,-0.2932153,-0.42760566,-1.0,0.0,0.0,12.33669,2.1613834,-2.2718763
1587633944953,-0.40342298,-1.353921,10.243592,-36.276,-221.79999,-30.293,-1.0659598,-0.36346483,-0.47708577,-1.0,0.0,0.0,12.596366,2.743212,-2.039574
1587633944963,-0.2813187,-1.3718776,10.2495775,-36.276,-221.79999,-30.293,-1.0103711,-0.28160888,-0.48808134,-1.0,0.0,0.0,12.828744,3.2953804,-1.8498104
1587633944975,-0.37588966,-1.3275849,9.862914,-36.274998,-220.474,-29.689,-0.92057395,-0.18997909,-0.49296826,-1.0,0.0,0.0,13.103244,3.7923336,-1.710986
1587633944985,-0.34955344,-1.3718776,9.376891,-36.274998,-220.474,-29.689,-0.7800749,-0.18387043,-0.50946164,-1.0,0.0,0.0,13.331071,4.2109156,-1.5724492
1587633944997,-0.10175357,-1.5622166,9.210494,-36.842,-220.775,-29.095001,-0.49480084,-0.30482176,-0.49541172,-1.0,0.0,0.0,13.630121,4.541522,-1.3961129
1587633945008,0.10295067,-1.5777789,9.258378,-36.842,-220.775,-29.095001,-0.41050145,-0.31581733,-0.44043383,-1.0,0.0,0.0,13.86253,4.8004603,-1.182332
1587633945019,0.031124622,-1.3874398,9.367314,-38.177998,-220.418,-29.729,-0.34513888,-0.2968805,-0.37384954,-1.0,0.0,0.0,14.1190605,5.0082746,-0.96485025
1587633945029,-0.053869538,-1.4173675,9.291897,-38.177998,-220.418,-29.729,-0.28099802,-0.2950479,-0.29626966,-1.0,0.0,0.0,14.312871,5.17895,-0.76011527
1587633945042,-0.049081136,-1.3012487,9.607931,-37.381,-219.59698,-28.819,-0.25350907,-0.27855456,-0.22418754,-1.0,0.0,0.0,14.550345,5.4310484,-0.370919
1587633945052,0.1352724,-1.7250223,10.134656,-38.975998,-219.40799,-29.75,-0.18875736,-0.27550024,-0.172264,-1.0,0.0,0.0,14.655597,5.5121794,-0.19001737
1587633945062,0.22026655,-1.7106571,10.57878,-38.975998,-219.40799,-29.75,-0.13072516,-0.2321288,-0.1282817,-1.0,0.0,0.0,14.70703,5.5626454,-0.032025065
1587633945074,0.142455,-1.578976,10.159795,-38.703,-220.034,-29.763,-0.086132,-0.087964594,-0.07513642,-1.0,0.0,0.0,14.758532,5.5884156,0.04080427
1587633945085,0.11851298,-1.553837,9.734824,-38.703,-220.034,-29.763,-0.062308256,0.01160644,-0.032986723,-1.0,0.0,0.0,14.74672,5.602018,0.0546341
1587633945096,0.21906945,-1.4987702,9.56723,-38.683,-220.01,-30.380001,-0.05009095,0.0421497,-0.007330383,-1.0,0.0,0.0,14.759173,5.609656,0.0511894
1587633945106,0.18195933,-1.4879963,9.692925,-38.683,-220.01,-30.380001,-0.039095376,0.043982297,0.03604105,-1.0,0.0,0.0,14.708249,5.6116085,0.045347646
1587633945119,0.09816227,-1.6675615,9.689334,-38.69,-218.746,-29.785,0.052534413,0.10873401,0.06841691,-1.0,0.0,0.0,14.682248,5.5935826,0.015149353
1587633945130,0.094570965,-1.6448165,9.672575,-38.194,-219.726,-28.603,0.073303826,0.081855945,0.07513642,-1.0,0.0,0.0,14.605431,5.548724,-0.0282067
1587633945141,0.11133038,-1.6484078,9.770737,-38.194,-219.726,-28.603,0.06047566,0.062308256,0.06780604,-1.0,0.0,0.0,14.570988,5.4950914,-0.05550116
1587633945153,-0.077811554,-1.5646108,9.909601,-38.398,-218.905,-30.102001,0.018325957,0.056199603,0.05375614,-1.0,0.0,0.0,14.462846,5.428342,-0.08383108
1587633945163,-0.1388637,-1.6065093,9.821015,-38.398,-218.905,-30.102001,-0.029932396,0.055588737,0.022602014,-1.0,0.0,0.0,14.407319,5.4359174,-0.095496945
1587633945173,-0.05626374,-1.6412252,9.854534,-38.406,-219.394,-29.818,-0.017104227,0.029321533,0.007330383,-1.0,0.0,0.0,14.4114485,5.437036,-0.09194995
1587633945186,-0.05746084,-1.6136919,9.940725,-38.406,-219.394,-29.818,0.007330383,0.020158553,0.009162978,-1.0,0.0,0.0,14.367501,5.4243937,-0.08377157
1587633945197,-0.017956512,-1.5454572,9.792285,-37.847,-219.398,-30.400002,0.025045475,0.028710667,0.028099801,-1.0,0.0,0.0,14.368085,5.404873,-0.07535256
1587633945207,0.06584055,-1.5251064,9.703699,-37.847,-219.398,-30.400002,0.0421497,0.047036625,0.04337143,-1.0,0.0,0.0,14.293339,5.3846083,-0.07281681
1587633945217,0.05865794,-1.543063,9.751583,-38.114998,-219.73799,-29.846,0.037873644,0.058643065,0.050701816,-1.0,0.0,0.0,14.2772875,5.483316,-0.07557955
1587633945230,0.022744916,-1.4939818,9.725247,-37.331,-219.612,-30.133,0.0067195175,0.04642576,0.04642576,-1.0,0.0,0.0,13.747722,5.5725164,-0.084796086
1587633945240,0.06703765,-1.447295,9.69532,-37.331,-219.612,-30.133,0.0067195175,0.03970624,0.077579886,-1.0,0.0,0.0,13.7301655,5.666415,-0.085031435
1587633945253,-0.12569559,-1.3718776,9.664195,-38.062,-219.083,-29.604,0.02565634,0.050701816,0.030543262,-1.0,0.0,0.0,13.002643,5.7438383,-0.08914257
1587633945263,-0.077811554,-1.4891934,9.862914,-38.062,-219.083,-29.604,0.028710667,0.062308256,0.014049901,-1.0,0.0,0.0,12.685858,5.8797655,-0.11854579
1587633945273,-0.05865794,-1.3479356,9.659407,-37.529,-219.12999,-30.153,0.017104227,0.03970624,0.009162978,-1.0,0.0,0.0,12.688641,5.9352665,-0.12438787
1587633945282,0.023942016,-1.447295,9.554062,-37.529,-219.12999,-30.153,0.018325957,0.023823744,0.014660766,-1.0,0.0,0.0,12.25785,5.9855323,-0.11974162
1587633945296,0.08140286,-1.4185646,9.677363,-37.738,-219.872,-30.412998,0.03604105,0.03726278,0.019547688,-1.0,0.0,0.0,12.262245,6.028538,-0.11409931
1587633945305,-0.01436521,-1.3575124,9.818622,-37.738,-219.872,-30.412998,0.03604105,0.03726278,0.019547688,-1.0,0.0,0.0,12.049717,6.052501,-0.11444521
1587633945317,-0.017956512,-1.352724,9.77792,-38.100998,-220.282,-31.119999,0.055588737,0.03481932,0.020158553,-1.0,0.0,0.0,12.046348,6.0605693,-0.1192721
1587633945328,-0.017956512,-1.352724,9.77792,-38.100998,-220.282,-31.119999,0.055588737,0.03481932,0.020158553,-1.0,0.0,0.0,12.046348,6.0605693,-0.1192721
1587633945343,0.11971009,-1.2425907,9.576807,-37.633,-220.172,-30.837002,0.061086524,0.021380283,0.031154128,-1.0,0.0,0.0,11.858406,6.0740824,-0.10209814
1587633945353,0.11971009,-1.2425907,9.576807,-37.629997,-220.025,-29.669998,0.050701816,0.02076942,0.04520403,-1.0,0.0,0.0,11.858406,6.0740824,-0.10209814
1587633945362,0.11971009,-1.1791444,9.637859,-37.629997,-220.025,-29.669998,0.007330383,0.037873644,0.047647487,-1.0,0.0,0.0,11.830078,6.010994,-0.085701376
1587633945372,-0.090979666,-1.2425907,9.664195,-37.413998,-219.983,-30.507,-0.03726278,0.032986723,0.04520403,-1.0,0.0,0.0,11.626609,5.9968023,-0.087687954
1587633945382,0.049081136,-1.316811,9.660604,-37.413998,-219.983,-30.507,-0.062308256,-0.0036651916,0.039095376,-1.0,0.0,0.0,11.400826,6.040043,-0.063473195
1587633945393,-0.09816227,-1.2413936,9.740809,-37.516,-220.42099,-30.022999,-0.015882496,-0.014660766,0.09101892,-1.0,0.0,0.0,11.356334,6.051983,-0.03964846
1587633945402,-0.033518825,-1.6232687,9.996989,-37.516,-220.42099,-30.022999,0.020158553,-6.1086525E-4,0.047036625,-1.0,0.0,0.0,11.232524,6.0559244,-0.02283139
1587633945413,0.0035913025,-1.2808979,9.925163,-37.399998,-220.2,-30.2,0.002443461,6.1086525E-4,0.023823744,-1.0,0.0,0.0,11.226944,6.0646334,-0.0054347506
1587633945424,-0.05626374,-1.2892777,9.907207,-37.399998,-220.2,-30.2,-0.031154128,-0.014049901,0.020158553,-1.0,0.0,0.0,11.071554,6.088227,0.018581856
1587633945435,-0.06943185,-1.3108255,9.785102,-37.5,-219.9,-30.2,-0.036651913,-0.018325957,0.018936822,-1.0,0.0,0.0,11.06833,6.1129785,0.042982936
1587633945446,0.035913024,-1.2641385,9.576807,-37.5,-219.9,-30.2,0.004886922,-0.037873644,0.028099801,-1.0,0.0,0.0,10.946297,6.1247735,0.07145665
1587633945457,0.12808979,-1.1875241,9.560047,-37.6,-219.7,-30.2,-0.0061086523,0.004886922,0.035430185,-1.0,0.0,0.0,10.93808,6.1192584,0.110111296
1587633945468,0.05865794,-1.1456255,9.659407,-37.6,-219.7,-30.2,-0.03726278,0.018936822,0.039095376,-1.0,0.0,0.0,10.845262,6.1149397,0.12453902
1587633945479,-0.03232172,-1.2282255,9.685743,-37.7,-219.5,-30.2,-0.055588737,0.016493361,0.035430185,-1.0,0.0,0.0,10.830674,6.126398,0.1294847
1587633945490,0.051475335,-1.270124,9.7958765,-37.8,-219.29999,-30.099998,-0.08246681,0.005497787,0.021991149,-1.0,0.0,0.0,10.780782,6.1473985,0.13678798
1587633945501,0.0023942017,-1.328782,9.781511,-37.8,-219.29999,-30.099998,-0.086132,-0.008552114,0.014660766,-1.0,0.0,0.0,10.762389,6.2223306,0.17457972
1587633945509,0.0023942017,-1.328782,9.781511,-37.899998,-219.2,-30.099998,-0.07696902,-0.014660766,0.002443461,-1.0,0.0,0.0,10.762389,6.2223306,0.17457972
1587633945520,-0.02873042,-1.3467385,9.920375,-37.899998,-219.2,-30.099998,-0.07574729,6.1086525E-4,6.1086525E-4,-1.0,0.0,0.0,10.768843,6.2559295,0.19960068
1587633945533,-0.029927522,-1.3108255,9.718064,-38.0,-219.09999,-30.099998,-0.07086037,0.014049901,0.0018325958,-1.0,0.0,0.0,10.790299,6.31731,0.22086741
1587633945545,-0.009576807,-1.271321,9.628283,-38.0,-219.09999,-30.099998,-0.06963864,0.010995574,6.1086525E-4,-1.0,0.0,0.0,10.830774,6.3444867,0.22873856
1587633945556,0.0023942017,-1.2749124,9.730036,-38.0,-219.09999,-30.099998,-0.05681047,0.002443461,0.005497787,-1.0,0.0,0.0,10.835166,6.3630314,0.24118668
1587633945566,0.031124622,-1.2485762,9.794679,-38.0,-219.09999,-30.099998,-0.029932396,0.03481932,0.021991149,-1.0,0.0,0.0,10.857796,6.3721924,0.24705176
1587633945580,-0.007182605,-1.2354081,9.78989,-38.1,-219.09999,-30.099998,-0.019547688,0.04337143,0.02565634,-1.0,0.0,0.0,10.852728,6.3709364,0.24080653
1587633945591,0.02873042,-1.2018893,9.7324295,-38.1,-219.09999,-30.099998,-0.016493361,0.040317107,0.025045475,-1.0,0.0,0.0,10.90804,6.3618402,0.23026751
1587633945601,0.108936176,-1.2126632,9.698911,-38.1,-219.09999,-30.099998,-0.02687807,0.04337143,0.029932396,-1.0,0.0,0.0,10.901487,6.3499546,0.22360681
1587633945612,0.005985504,-1.1480197,9.744401,-38.1,-219.09999,-30.2,-0.017715093,0.053145275,0.027488936,-1.0,0.0,0.0,10.941807,6.3285885,0.20262432
1587633945622,0.0011971008,-1.1707647,9.6845455,-38.1,-219.09999,-30.2,-0.017715093,0.040927973,0.015882496,-1.0,0.0,0.0,10.992854,6.313651,0.1968678
1587633945634,0.02633622,-1.1659763,9.726444,-38.1,-219.09999,-30.2,-0.035430185,0.016493361,0.0061086523,-1.0,0.0,0.0,10.997314,6.307463,0.20559444
1587633945644,0.020350715,-1.1767502,9.811439,-38.1,-219.09999,-30.2,-0.057421334,0.0030543262,0.0018325958,-1.0,0.0,0.0,11.0375185,6.312573,0.22208738
1587633945657,-0.039504327,-1.1815386,9.803059,-38.1,-219.09999,-30.2,-0.0720821,0.015271631,-6.1086525E-4,-1.0,0.0,0.0,11.045073,6.327519,0.2332434
1587633945667,-0.025139118,-1.2030864,9.76954,-38.1,-219.09999,-30.2,-0.05375614,0.014049901,0.0036651916,-1.0,0.0,0.0,11.0732765,6.339746,0.2411353
1587633945677,0.017956512,-1.2150574,9.707291,-38.0,-219.09999,-30.2,-0.030543262,0.018936822,0.015271631,-1.0,0.0,0.0,11.078878,6.341936,0.24916627
1587633945690,0.020350715,-1.1947067,9.752781,-38.0,-219.09999,-30.3,-0.007941248,0.03176499,0.022602014,-1.0,0.0,0.0,11.052311,6.330726,0.25391847
1587633945701,0.0023942017,-1.1372458,9.7958765,-38.0,-219.09999,-30.3,0.01160644,0.052534413,0.04337143,-1.0,0.0,0.0,11.0469675,6.305515,0.25085235
1587633945712,-0.033518825,-1.1168951,9.736021,-38.0,-219.2,-30.3,0.01282817,0.086132,0.053145275,-1.0,0.0,0.0,10.9924135,6.2300467,0.19802548
1587633945722,-0.01436521,-1.1085154,9.68694,-38.0,-219.2,-30.3,0.015882496,0.1020145,0.058643065,-1.0,0.0,0.0,10.989424,6.190241,0.15321183
1587633945734,0.021547815,-1.1168951,9.710882,-38.0,-219.2,-30.400002,0.016493361,0.10629055,0.06169739,-1.0,0.0,0.0,10.961822,6.149776,0.106678106
1587633945745,-0.011971008,-1.0761937,9.690532,-38.0,-219.2,-30.400002,0.014049901,0.122783914,0.06536258,-1.0,0.0,0.0,10.985751,6.1103024,0.05147001
1587633945755,-0.011971008,-1.0785879,9.655815,-38.0,-219.29999,-30.5,0.009773844,0.13072516,0.073303826,-1.0,0.0,0.0,10.951604,6.072578,-0.008441618
1587633945768,-0.04070143,-1.0726024,9.697714,-38.0,-219.29999,-30.5,-0.0018325958,0.17104226,0.09285152,-1.0,0.0,0.0,11.007338,6.0377536,-0.07457247
1587633945779,-0.031124622,-1.0690111,9.706094,-38.0,-219.4,-30.5,-0.02443461,0.19730948,0.099571034,-1.0,0.0,0.0,10.962187,6.00595,-0.1573149
1587633945790,-0.059855044,-1.0606314,9.730036,-37.899998,-219.4,-30.5,-0.032375857,0.2144137,0.10751228,-1.0,0.0,0.0,11.062475,5.9867644,-0.25369173
1587633945800,-0.10055647,-1.079785,9.794679,-37.899998,-219.4,-30.5,-0.029321533,0.24862215,0.1160644,-1.0,0.0,0.0,11.009078,5.9714804,-0.3608638
1587633945812,-0.15322891,-1.1049241,9.728839,-37.899998,-219.5,-30.5,-0.0036651916,0.31887165,0.13927728,-1.0,0.0,0.0,11.04507,5.9226727,-0.6546261
1587633945822,-0.22505496,-1.1360487,9.757569,-37.899998,-219.5,-30.5,0.020158553,0.3659083,0.15760323,-1.0,0.0,0.0,11.228773,5.87973,-0.8455142
1587633945832,-0.24420857,-1.0989386,9.809045,-37.8,-219.5,-30.599998,0.042760566,0.3915646,0.172264,-1.0,0.0,0.0,11.139946,5.824114,-1.0522561
1587633945845,-0.22385786,-1.0618285,9.854534,-37.8,-219.5,-30.599998,0.058643065,0.43371433,0.19730948,-1.0,0.0,0.0,11.362773,5.7590117,-1.2836416
1587633945855,-0.2645593,-1.0642227,9.850943,-37.8,-219.59999,-30.599998,0.07513642,0.4886922,0.22113322,-1.0,0.0,0.0,11.247726,5.685875,-1.5420542
1587633945866,-0.2885013,-1.0235212,9.895236,-37.8,-219.59999,-30.599998,0.084910266,0.5516113,0.24923302,-1.0,0.0,0.0,11.16083,5.594011,-1.8530252
1587633945877,-0.2789245,-0.997185,9.861717,-37.7,-219.59999,-30.599998,0.08857546,0.68233645,0.30787608,-1.0,0.0,0.0,11.015168,5.502255,-2.1929278
1587633945887,-0.25857377,-0.9816227,9.80665,-37.7,-219.59999,-30.599998,0.08246681,0.7715228,0.33658674,-1.0,0.0,0.0,10.917617,5.407434,-2.5733778
1587633945901,-0.41180268,-0.89902276,9.922769,-37.6,-219.7,-30.599998,0.073303826,0.8686504,0.36163223,-1.0,0.0,0.0,10.737158,5.3141184,-3.0046418
1587633945912,-0.65242,-0.89303726,10.067618,-37.5,-219.7,-30.5,0.056199603,1.0146471,0.37507126,-1.0,0.0,0.0,10.434391,5.140915,-4.0583253
1587633945922,-1.3718776,-1.0594343,10.077195,-37.5,-219.7,-30.5,0.043982297,1.0952814,0.37201694,-1.0,0.0,0.0,10.361842,5.0644298,-4.667788
1587633945932,-0.7302315,-0.5434838,9.69532,-37.3,-219.79999,-30.5,0.044593163,1.183246,0.45937067,-1.0,0.0,0.0,10.11425,4.978761,-5.333035
1587633945942,-0.9708488,-1.091756,9.512163,-37.3,-219.79999,-30.5,0.047647487,1.2089024,0.39767328,-1.0,0.0,0.0,10.060662,4.8931704,-6.0126805
1587633945954,-1.0845734,-0.8631097,9.611523,-37.1,-219.79999,-30.5,0.017104227,1.2260065,0.39522982,-1.0,0.0,0.0,9.8498745,4.8233933,-6.695455
1587633945964,-1.2641385,-0.9672575,9.61272,-37.1,-219.79999,-30.5,-0.023823744,1.2681563,0.40378192,-1.0,0.0,0.0,9.82731,4.775171,-7.3934836
1587633945978,-1.3718776,-0.7266402,9.791088,-36.899998,-219.9,-30.400002,-0.10934488,1.41904,0.44898596,-1.0,0.0,0.0,9.579691,4.7514367,-8.1234665
1587633945988,-1.4173675,-0.82121116,9.731233,-36.899998,-219.9,-30.400002,-0.13194689,1.4953982,0.46181414,-1.0,0.0,0.0,9.542994,4.740204,-8.910533
1587633946000,-1.532289,-0.8858546,9.643845,-36.6,-220.0,-30.400002,-0.13500121,1.5467108,0.45937067,-1.0,0.0,0.0,9.284058,4.7372017,-9.745078
1587633946011,-1.6400281,-0.9540894,9.672575,-36.3,-220.0,-30.2,-0.1020145,1.5650368,0.4373795,-1.0,0.0,0.0,9.273099,4.7333226,-10.589906
1587633946021,-1.8782512,-0.9564836,9.613917,-36.3,-220.0,-30.2,-0.05009095,1.5448782,0.40378192,-1.0,0.0,0.0,9.032759,4.7100925,-11.453991
1587633946032,-2.1057005,-0.8643068,9.763555,-34.024,-220.31999,-29.314999,0.03848451,1.505172,0.344528,-1.0,0.0,0.0,8.919988,4.563984,-13.103668
1587633946042,-2.1799207,-0.7290344,9.719262,-34.024,-220.31999,-29.314999,0.06352998,1.464244,0.30115658,-1.0,0.0,0.0,9.007626,4.456495,-13.893998
1587633946052,-2.2637177,-0.6500258,9.470264,-32.698997,-220.816,-28.646,0.05375614,1.4569136,0.25228736,-1.0,0.0,0.0,8.897313,4.360017,-14.663721
1587633946065,-2.4121583,-0.60214174,9.49301,-32.698997,-220.816,-28.646,-0.0036651916,1.4477507,0.20280726,-1.0,0.0,0.0,9.0230255,4.298863,-15.430454
1587633946076,-2.542642,-0.46567222,9.600749,-30.546,-220.65,-28.002998,-0.0720821,1.4856243,0.15332718,-1.0,0.0,0.0,8.941992,4.2764163,-16.30334
1587633946086,-2.6192567,-0.3878607,9.526528,-30.546,-220.65,-28.002998,-0.105068825,1.6041322,0.12095132,-1.0,0.0,0.0,9.064873,4.2747355,-17.051384
1587633946096,-2.7688942,-0.49081135,9.155427,-29.108,-221.194,-26.493,-0.15577064,1.7519615,0.11789699,-1.0,0.0,0.0,9.002269,4.280625,-17.951588
1587633946108,-2.9592333,-0.60214174,9.033323,-29.108,-221.194,-26.493,-0.20769419,1.7580702,0.12522738,-1.0,0.0,0.0,9.118517,4.3023643,-18.877415
1587633946119,-3.084929,-0.6356605,9.0716305,-27.062,-221.15399,-24.717,-0.2406809,1.7849482,0.12339478,-1.0,0.0,0.0,9.037475,4.3490396,-19.808311
